timestamp,gyro_x,gyro_y,gyro_z,acc_x,acc_y,acc_z
1621586519315,0.0,0.0,0.0,0.0,0.0,0.0
1621586519324,-0.3499999940395355,3.056999921798706,-5.644999980926514,-0.5879999995231628,-9.727999687194824,-0.4009999930858612
1621586519334,-0.2800000011920929,3.319999933242798,-5.5269999504089355,-0.5879999995231628,-9.772999763488768,-0.3689999878406524
1621586519344,-0.2800000011920929,3.243000030517578,-5.895999908447266,-0.6280000209808348,-9.767000198364256,-0.4079999923706054
1621586519354,-0.2800000011920929,3.303999900817871,-6.241000175476074,-0.6280000209808348,-9.734999656677246,-0.3619999885559082
1621586519364,-0.3499999940395355,3.177999973297119,-6.334000110626221,-0.6280000209808348,-9.741999626159668,-0.3240000009536743
1621586519374,-0.3499999940395355,3.4499998092651367,-6.4639997482299805,-0.6280000209808348,-9.734999656677246,-0.3619999885559082
1621586519384,-0.3499999940395355,3.7219998836517334,-6.593999862670898,-0.6669999957084655,-9.772999763488768,-0.3689999878406524
1621586519394,-0.2800000011920929,3.7219998836517334,-6.593999862670898,-0.6280000209808348,-9.767000198364256,-0.4079999923706054
1621586519404,-0.3499999940395355,3.9409999847412114,-6.625999927520752,-0.6280000209808348,-9.767000198364256,-0.4079999923706054
1621586519414,-0.4900000095367431,4.033999919891357,-6.751999855041504,-0.6280000209808348,-9.741999626159668,-0.3240000009536743
1621586519424,-0.4199999868869781,4.447000026702881,-6.678999900817871,-0.5879999995231628,-9.734999656677246,-0.3619999885559082
1621586519434,-0.4199999868869781,4.642000198364258,-6.573999881744385,-0.5879999995231628,-9.741999626159668,-0.3240000009536743
1621586519444,-0.4900000095367431,4.642000198364258,-6.573999881744385,-0.6280000209808348,-9.696000099182127,-0.3549999892711639
1621586519454,-0.4900000095367431,4.921999931335449,-6.951000213623047,-0.5879999995231628,-9.734999656677246,-0.3619999885559082
1621586519464,-0.4199999868869781,4.885000228881836,-6.74399995803833,-0.5879999995231628,-9.772999763488768,-0.3689999878406524
1621586519474,-0.6299999952316284,5.002999782562256,-5.798999786376953,-0.5879999995231628,-9.727999687194824,-0.4009999930858612
1621586519484,-0.9100000262260436,4.771999835968018,-5.697999954223633,-0.5879999995231628,-9.696000099182127,-0.3549999892711639
1621586519494,-0.8399999737739563,4.484000205993652,-5.677999973297119,-0.6280000209808348,-9.734999656677246,-0.3619999885559082
1621586519504,-0.6299999952316284,4.442999839782715,-6.252999782562256,-0.5879999995231628,-9.772999763488768,-0.3689999878406524
1621586519514,-0.2800000011920929,4.249000072479248,-6.359000205993652,-0.5879999995231628,-9.734999656677246,-0.3619999885559082
1621586519524,-0.2800000011920929,4.515999794006348,-6.666999816894531,-0.6280000209808348,-9.79800033569336,-0.453000009059906
1621586519534,-0.3499999940395355,4.548999786376953,-6.447999954223633,-0.6280000209808348,-9.767000198364256,-0.4079999923706054
1621586519544,-0.4900000095367431,4.730999946594238,-6.27400016784668,-0.5879999995231628,-9.79800033569336,-0.453000009059906
1621586519554,-0.699999988079071,4.48799991607666,-6.103000164031982,-0.5879999995231628,-9.767000198364256,-0.4079999923706054
1621586519564,-0.8399999737739563,4.455999851226807,-6.322000026702881,-0.5879999995231628,-9.727999687194824,-0.4009999930858612
1621586519574,-1.0499999523162842,4.610000133514404,-6.793000221252441,-0.5879999995231628,-9.696000099182127,-0.3549999892711639
1621586519584,-1.2599999904632568,4.796000003814697,-7.044000148773193,-0.6280000209808348,-9.734999656677246,-0.3619999885559082
1621586519594,-1.225000023841858,4.859000205993652,-6.997500419616699,-0.5879999995231628,-9.772999763488768,-0.3689999878406524
1621586519604,-1.190000057220459,4.921999931335449,-6.951000213623047,-0.6280000209808348,-9.772999763488768,-0.3689999878406524
1621586519614,-1.3300000429153442,5.189000129699707,-7.258999824523927,-0.5879999995231628,-9.767000198364256,-0.4079999923706054
1621586519624,-1.4700000286102295,5.335000038146973,-6.877999782562256,-0.5879999995231628,-9.727999687194824,-0.4009999930858612
1621586519634,-1.6100000143051147,5.550000190734863,-6.485000133514404,-0.5879999995231628,-9.734999656677246,-0.3619999885559082
1621586519644,-1.8200000524520872,5.849999904632568,-6.573999881744385,-0.5490000247955322,-9.727999687194824,-0.4009999930858612
1621586519654,-1.75,6.113999843597412,-6.455999851226807,-0.5490000247955322,-9.689000129699709,-0.3939999938011169
1621586519664,-1.75,6.0329999923706055,-6.400000095367432,-0.5490000247955322,-9.727999687194824,-0.4009999930858612
1621586519674,-1.5399999618530271,5.724999904632568,-6.666999816894531,-0.4709999859333038,-9.727999687194824,-0.4009999930858612
1621586519684,-1.3300000429153442,5.8379998207092285,-6.505000114440918,-0.4709999859333038,-9.734999656677246,-0.3619999885559082
1621586519694,-1.1200000047683716,5.656000137329102,-6.678999900817871,-0.4709999859333038,-9.696000099182127,-0.3549999892711639
1621586519704,-0.9100000262260436,5.699999809265137,-6.5289998054504395,-0.4709999859333038,-9.689000129699709,-0.3939999938011169
1621586519714,-0.699999988079071,5.614999771118164,-6.046999931335449,-0.4709999859333038,-9.689000129699709,-0.3939999938011169
1621586519724,-0.3499999940395355,5.395999908447266,-6.013999938964844,-0.5099999904632568,-9.682000160217283,-0.4329999983310699
1621586519734,-0.209999993443489,5.0269999504089355,-5.936999797821045,-0.5099999904632568,-9.682000160217283,-0.4329999983310699
1621586519744,0.0700000002980232,4.771999835968018,-5.697999954223633,-0.4709999859333038,-9.682000160217283,-0.4329999983310699
1621586519754,0.0700000002980232,4.645999908447266,-5.790999889373779,-0.4709999859333038,-9.651000022888184,-0.3869999945163726
1621586519764,0.1400000005960464,4.086999893188477,-6.244999885559082,-0.4709999859333038,-9.651000022888184,-0.3869999945163726
1621586519774,0.7699999809265136,3.7539999485015874,-6.375,-0.5490000247955322,-9.696000099182127,-0.3549999892711639
1621586519784,0.8399999737739563,3.4089999198913574,-6.435999870300293,-0.5099999904632568,-9.755000114440918,-0.2460000067949295
1621586519794,0.5600000023841857,3.3970000743865967,-6.367000102996826,-0.5490000247955322,-9.748000144958496,-0.2849999964237213
1621586519804,0.4199999868869781,3.6930000782012935,-6.03000020980835,-0.5879999995231628,-9.734999656677246,-0.3619999885559082
1621586519814,0.3499999940395355,3.6424999237060542,-6.145500183105469,-0.5879999995231628,-9.741999626159668,-0.3240000009536743
1621586519824,0.2800000011920929,3.5920000076293945,-6.261000156402588,-0.5879999995231628,-9.772999763488768,-0.3689999878406524
1621586519834,0.2800000011920929,3.937000036239624,-6.201000213623047,-0.5879999995231628,-9.772999763488768,-0.3689999878406524
1621586519844,-0.1400000005960464,4.419000148773193,-6.116000175476074,-0.5879999995231628,-9.772999763488768,-0.3689999878406524
1621586519854,-0.0700000002980232,4.47599983215332,-6.033999919891357,-0.6280000209808348,-9.767000198364256,-0.4079999923706054
1621586519864,-0.0700000002980232,4.706999778747559,-6.136000156402588,-0.5879999995231628,-9.772999763488768,-0.3689999878406524
1621586519874,-0.4199999868869781,5.084000110626221,-5.855999946594238,-0.5879999995231628,-9.734999656677246,-0.3619999885559082
1621586519884,-0.4199999868869781,5.197999954223633,-5.693999767303467,-0.5879999995231628,-9.772999763488768,-0.3689999878406524
1621586519894,-0.4900000095367431,5.6479997634887695,-5.828000068664551,-0.5490000247955322,-9.734999656677246,-0.3619999885559082
1621586519904,-0.3499999940395355,5.761000156402588,-5.665999889373779,-0.5879999995231628,-9.734999656677246,-0.3619999885559082
1621586519914,-0.4199999868869781,5.623000144958496,-5.690000057220459,-0.5490000247955322,-9.734999656677246,-0.3619999885559082
1621586519924,-0.7699999809265136,5.368000030517578,-5.451000213623047,-0.5099999904632568,-9.734999656677246,-0.3619999885559082
1621586519934,-0.7699999809265136,5.428999900817871,-5.795000076293945,-0.5490000247955322,-9.741999626159668,-0.3240000009536743
1621586519944,-0.7699999809265136,5.234000205993652,-5.901000022888184,-0.5879999995231628,-9.741999626159668,-0.3240000009536743
1621586519954,-0.6299999952316284,5.047999858856201,-5.64900016784668,-0.5879999995231628,-9.741999626159668,-0.3240000009536743
1621586519964,-0.7699999809265136,5.190000057220459,-6.051000118255615,-0.5879999995231628,-9.734999656677246,-0.3619999885559082
1621586519974,-0.9800000190734864,4.791999816894531,-5.409999847412109,-0.5879999995231628,-9.734999656677246,-0.3619999885559082
1621586519984,-0.9100000262260436,4.630000114440918,-5.296000003814697,-0.5879999995231628,-9.696000099182127,-0.3549999892711639
1621586519994,-0.8399999737739563,4.427000045776367,-5.758999824523926,-0.5490000247955322,-9.696000099182127,-0.3549999892711639
1621586520004,-0.6299999952316284,4.431000232696533,-6.184000015258789,-0.5879999995231628,-9.70300006866455,-0.31700000166893
1621586520014,-0.4199999868869781,4.788000106811523,-6.192999839782715,-0.5879999995231628,-9.656999588012695,-0.3490000069141387
1621586520024,-0.3499999940395355,4.810500144958496,-6.118000030517578,-0.5879999995231628,-9.734999656677246,-0.3619999885559082
1621586520034,-0.2800000011920929,4.833000183105469,-6.043000221252441,-0.5879999995231628,-9.734999656677246,-0.3619999885559082
1621586520044,-0.2800000011920929,4.760000228881836,-5.629000186920166,-0.5490000247955322,-9.70300006866455,-0.31700000166893
1621586520054,-0.2800000011920929,4.678999900817871,-5.572000026702881,-0.5490000247955322,-9.741999626159668,-0.3240000009536743
1621586520064,-0.4900000095367431,4.6579999923706055,-5.860000133514404,-0.5490000247955322,-9.734999656677246,-0.3619999885559082
1621586520074,-0.4900000095367431,4.706999778747559,-6.136000156402588,-0.5879999995231628,-9.793999671936035,-0.2529999911785125
1621586520084,-0.4900000095367431,4.833000183105469,-6.043000221252441,-0.5490000247955322,-9.741999626159668,-0.3240000009536743
1621586520094,-0.5600000023841857,4.560999870300293,-6.517000198364258,-0.5490000247955322,-9.741999626159668,-0.3240000009536743
1621586520104,-0.9800000190734864,4.848999977111816,-6.5370001792907715,-0.5879999995231628,-9.779999732971191,-0.3300000131130218
1621586520114,-0.8399999737739563,5.056000232696533,-6.500999927520752,-0.5879999995231628,-9.734999656677246,-0.3619999885559082
1621586520124,-1.2599999904632568,5.111999988555908,-6.420000076293945,-0.5879999995231628,-9.727999687194824,-0.4009999930858612
1621586520134,-1.4700000286102295,5.626999855041504,-6.116000175476074,-0.5879999995231628,-9.734999656677246,-0.3619999885559082
1621586520144,-1.2599999904632568,5.421000003814697,-6.1519999504089355,-0.5879999995231628,-9.734999656677246,-0.3619999885559082
1621586520154,-1.399999976158142,5.603000164031982,-5.978000164031982,-0.5879999995231628,-9.689000129699709,-0.3939999938011169
1621586520164,-1.399999976158142,5.875,-5.502999782562256,-0.5490000247955322,-9.696000099182127,-0.3549999892711639
1621586520174,-1.399999976158142,5.943999767303467,-5.491000175476074,-0.5879999995231628,-9.772999763488768,-0.3689999878406524
1621586520184,-1.190000057220459,5.797999858856201,-5.872000217437744,-0.5879999995231628,-9.772999763488768,-0.3689999878406524
1621586520194,-1.1200000047683716,5.696000099182129,-6.104000091552734,-0.5879999995231628,-9.727999687194824,-0.4009999930858612
1621586520204,-0.8399999737739563,5.709000110626221,-6.171999931335449,-0.5879999995231628,-9.767000198364256,-0.4079999923706054
1621586520214,-1.0499999523162842,5.829999923706055,-5.6529998779296875,-0.5490000247955322,-9.720999717712402,-0.4390000104904174
1621586520224,-1.190000057220459,5.546000003814697,-6.059000015258789,-0.5099999904632568,-9.720999717712402,-0.4390000104904174
1621586520234,-0.9100000262260436,5.428999900817871,-5.795000076293945,-0.5490000247955322,-9.727999687194824,-0.4009999930858612
1621586520244,-0.8050000071525573,5.341500282287598,-5.703999996185303,-0.5490000247955322,-9.727999687194824,-0.4009999930858612
1621586520254,-0.699999988079071,5.254000186920166,-5.61299991607666,-0.5490000247955322,-9.727999687194824,-0.4009999930858612
1621586520264,-0.9800000190734864,5.047999858856201,-5.64900016784668,-0.5879999995231628,-9.734999656677246,-0.3619999885559082
1621586520274,-0.8399999737739563,4.410999774932861,-5.263999938964844,-0.5879999995231628,-9.727999687194824,-0.4009999930858612
1621586520284,-1.1200000047683716,4.354000091552734,-5.34499979019165,-0.6280000209808348,-9.727999687194824,-0.4009999930858612
1621586520294,-1.0499999523162842,4.046000003814697,-5.61299991607666,-0.6280000209808348,-9.779999732971191,-0.3300000131130218
1621586520304,-1.2599999904632568,3.9200000762939458,-5.705999851226807,-0.5879999995231628,-9.734999656677246,-0.3619999885559082
1621586520314,-1.3300000429153442,3.7100000381469727,-5.316999912261963,-0.5879999995231628,-9.727999687194824,-0.4009999930858612
1621586520324,-1.2599999904632568,3.9849998950958256,-5.26800012588501,-0.6280000209808348,-9.727999687194824,-0.4009999930858612
1621586520334,-1.399999976158142,4.010000228881836,-5.406000137329102,-0.6280000209808348,-9.741999626159668,-0.3240000009536743
1621586520344,-1.6100000143051147,4.284999847412109,-5.35699987411499,-0.6669999957084655,-9.734999656677246,-0.3619999885559082
1621586520354,-1.5399999618530271,4.091000080108643,-5.4629998207092285,-0.7059999704360961,-9.760000228881836,-0.4460000097751617
1621586520364,-1.4700000286102295,4.289000034332275,-5.7829999923706055,-0.7059999704360961,-9.720999717712402,-0.4390000104904174
1621586520374,-1.4700000286102295,4.557000160217285,-6.091000080108643,-0.6669999957084655,-9.682000160217283,-0.4329999983310699
1621586520384,-1.75,4.730999946594238,-6.27400016784668,-0.6669999957084655,-9.689000129699709,-0.3939999938011169
1621586520394,-1.4700000286102295,4.686999797821045,-6.423999786376953,-0.5879999995231628,-9.767000198364256,-0.4079999923706054
1621586520404,-1.0499999523162842,4.836999893188477,-6.4679999351501465,-0.6280000209808348,-9.682000160217283,-0.4329999983310699
1621586520414,-1.0499999523162842,5.011000156402588,-6.651000022888184,-0.6280000209808348,-9.689000129699709,-0.3939999938011169
1621586520424,-0.9100000262260436,5.116000175476074,-6.8460001945495605,-0.6280000209808348,-9.689000129699709,-0.3939999938011169
1621586520434,-0.9800000190734864,5.2789998054504395,-6.959000110626221,-0.6669999957084655,-9.727999687194824,-0.4009999930858612
1621586520444,-0.9100000262260436,5.566999912261963,-6.979000091552734,-0.7059999704360961,-9.760000228881836,-0.4460000097751617
1621586520454,-1.0499999523162842,5.736999988555908,-6.736000061035156,-0.6669999957084655,-9.753000259399414,-0.4850000143051147
1621586520464,-1.0499999523162842,5.635499954223633,-6.36299991607666,-0.6280000209808348,-9.734999656677246,-0.3619999885559082
1621586520474,-1.0499999523162842,5.533999919891357,-5.989999771118164,-0.5490000247955322,-9.696000099182127,-0.3549999892711639
1621586520484,-0.7699999809265136,5.50600004196167,-5.426000118255615,-0.5879999995231628,-9.689000129699709,-0.3939999938011169
1621586520494,-1.1200000047683716,5.335999965667725,-5.670000076293945,-0.6280000209808348,-9.727999687194824,-0.4009999930858612
1621586520504,-0.7699999809265136,4.686999797821045,-6.423999786376953,-0.6280000209808348,-9.727999687194824,-0.4009999930858612
1621586520514,-0.6299999952316284,4.560999870300293,-6.517000198364258,-0.6280000209808348,-9.720999717712402,-0.4390000104904174
1621586520524,-0.4199999868869781,4.7230000495910645,-6.63100004196167,-0.5879999995231628,-9.720999717712402,-0.4390000104904174
1621586520534,-0.3499999940395355,4.216000080108643,-6.578000068664551,-0.6280000209808348,-9.689000129699709,-0.3939999938011169
1621586520544,-0.3499999940395355,3.996999979019165,-6.545000076293945,-0.6280000209808348,-9.720999717712402,-0.4390000104904174
1621586520554,-0.699999988079071,3.7460000514984126,-6.73199987411499,-0.6280000209808348,-9.727999687194824,-0.4009999930858612
1621586520564,-0.4900000095367431,4.196000099182129,-6.866000175476074,-0.6280000209808348,-9.727999687194824,-0.4009999930858612
1621586520574,-0.6299999952316284,4.322000026702881,-6.771999835968018,-0.6280000209808348,-9.689000129699709,-0.3939999938011169
1621586520584,-0.6299999952316284,4.289000034332275,-6.991000175476074,-0.6669999957084655,-9.727999687194824,-0.4009999930858612
1621586520594,-0.699999988079071,4.552999973297119,-6.874000072479248,-0.7059999704360961,-9.689000129699709,-0.3939999938011169
1621586520604,-0.4900000095367431,4.710999965667725,-6.561999797821045,-0.6669999957084655,-9.760000228881836,-0.4460000097751617
1621586520614,-0.5600000023841857,5.011000156402588,-6.651000022888184,-0.6280000209808348,-9.734999656677246,-0.3619999885559082
1621586520624,-0.4900000095367431,5.53000020980835,-6.7729997634887695,-0.6280000209808348,-9.741999626159668,-0.3240000009536743
1621586520634,-0.4900000095367431,5.849999904632568,-6.573999881744385,-0.6280000209808348,-9.727999687194824,-0.4009999930858612
1621586520644,-0.4900000095367431,5.817999839782715,-6.793000221252441,-0.6280000209808348,-9.720999717712402,-0.4390000104904174
1621586520654,-0.2800000011920929,6.451000213623047,-6.751999855041504,-0.5879999995231628,-9.720999717712402,-0.4390000104904174
1621586520664,0.0700000002980232,6.447000026702881,-6.327000141143799,-0.5879999995231628,-9.734999656677246,-0.3619999885559082
1621586520674,-0.2800000011920929,6.6570000648498535,-6.716000080108643,-0.5490000247955322,-9.727999687194824,-0.4009999930858612
1621586520684,-0.3499999940395355,6.506999969482422,-6.671500205993652,-0.5099999904632568,-9.772999763488768,-0.3689999878406524
1621586520694,-0.4199999868869781,6.35699987411499,-6.626999855041504,-0.5099999904632568,-9.772999763488768,-0.3689999878406524
1621586520704,-0.5600000023841857,6.36899995803833,-6.696000099182129,-0.4709999859333038,-9.767000198364256,-0.4079999923706054
1621586520714,-0.4900000095367431,6.236000061035156,-5.936999797821045,-0.4709999859333038,-9.772999763488768,-0.3689999878406524
1621586520724,-0.4900000095367431,5.935999870300293,-5.8480000495910645,-0.4709999859333038,-9.767000198364256,-0.4079999923706054
1621586520734,-0.8399999737739563,5.453000068664551,-5.933000087738037,-0.4709999859333038,-9.767000198364256,-0.4079999923706054
1621586520744,-0.8399999737739563,5.2220001220703125,-5.831999778747559,-0.4709999859333038,-9.80500030517578,-0.414000004529953
1621586520754,-1.1200000047683716,5.197999954223633,-5.693999767303467,-0.5099999904632568,-9.760000228881836,-0.4460000097751617
1621586520764,-1.3300000429153442,4.642000198364258,-5.364999771118164,-0.5099999904632568,-9.779999732971191,-0.3300000131130218
1621586520774,-1.6799999475479126,4.297999858856201,-5.426000118255615,-0.5099999904632568,-9.767000198364256,-0.4079999923706054
1621586520784,-1.8899999856948853,4.297999858856201,-5.426000118255615,-0.5490000247955322,-9.720999717712402,-0.4390000104904174
1621586520794,-2.240000009536743,4.091000080108643,-5.4629998207092285,-0.5490000247955322,-9.760000228881836,-0.4460000097751617
1621586520804,-2.0999999046325684,4.191999912261963,-5.23199987411499,-0.5879999995231628,-9.720999717712402,-0.4390000104904174
1621586520814,-2.0299999713897705,4.269000053405762,-4.86299991607666,-0.5879999995231628,-9.720999717712402,-0.4390000104904174
1621586520824,-2.1700000762939453,4.2769999504089355,-4.50600004196167,-0.5879999995231628,-9.727999687194824,-0.4009999930858612
1621586520834,-1.9600000381469729,4.306000232696533,-5.068999767303467,-0.5879999995231628,-9.720999717712402,-0.4390000104904174
1621586520844,-1.6799999475479126,4.306000232696533,-5.068999767303467,-0.5879999995231628,-9.682000160217283,-0.4329999983310699
1621586520854,-1.75,4.211999893188477,-4.943999767303467,-0.5879999995231628,-9.675999641418455,-0.4709999859333038
1621586520864,-1.5399999618530271,4.317999839782715,-5.138000011444092,-0.6669999957084655,-9.675999641418455,-0.4709999859333038
1621586520874,-1.2599999904632568,4.633999824523926,-5.7220001220703125,-0.6669999957084655,-9.71399974822998,-0.4779999852180481
1621586520884,-0.9800000190734864,4.864999771118164,-5.823999881744385,-0.7059999704360961,-9.675999641418455,-0.4709999859333038
1621586520894,-0.9450000524520874,5.014999866485596,-5.868499755859375,-0.6669999957084655,-9.70699977874756,-0.5170000195503234
1621586520904,-0.9100000262260436,5.164999961853027,-5.913000106811523,-0.6280000209808348,-9.675999641418455,-0.4709999859333038
1621586520914,-0.699999988079071,5.197999954223633,-5.693999767303467,-0.6280000209808348,-9.675999641418455,-0.4709999859333038
1621586520924,-0.4199999868869781,5.671999931335449,-5.966000080108643,-0.6280000209808348,-9.675999641418455,-0.4709999859333038
1621586520934,-0.2800000011920929,5.785999774932861,-5.802999973297119,-0.6280000209808348,-9.675999641418455,-0.4709999859333038
1621586520944,-0.209999993443489,5.817999839782715,-5.585000038146973,-0.6280000209808348,-9.675999641418455,-0.4709999859333038
1621586520954,0.209999993443489,6.085999965667725,-5.89300012588501,-0.5879999995231628,-9.71399974822998,-0.4779999852180481
1621586520963,0.6299999952316284,5.566999912261963,-5.770999908447266,-0.6280000209808348,-9.70699977874756,-0.5170000195503234
1621586520973,0.699999988079071,5.498000144958496,-5.7829999923706055,-0.6280000209808348,-9.71399974822998,-0.4779999852180481
1621586520983,0.8399999737739563,5.307000160217285,-5.105999946594238,-0.5879999995231628,-9.71399974822998,-0.4779999852180481
1621586520993,1.1200000047683716,4.776000022888184,-4.914999961853027,-0.5490000247955322,-9.682000160217283,-0.4329999983310699
1621586521003,1.1200000047683716,3.82699990272522,-5.579999923706055,-0.6280000209808348,-9.720999717712402,-0.4390000104904174
1621586521013,1.6100000143051147,3.7179999351501465,-6.168000221252441,-0.6280000209808348,-9.720999717712402,-0.4390000104904174
1621586521023,1.5399999618530271,3.8469998836517334,-6.500999927520752,-0.6280000209808348,-9.727999687194824,-0.4009999930858612
1621586521033,1.6799999475479126,3.73799991607666,-7.089000225067139,-0.6280000209808348,-9.720999717712402,-0.4390000104904174
1621586521043,1.8899999856948853,3.6040000915527344,-7.539000034332275,-0.6280000209808348,-9.80500030517578,-0.414000004529953
1621586521053,1.75,3.36899995803833,-7.01200008392334,-0.6669999957084655,-9.760000228881836,-0.4460000097751617
1621586521063,1.399999976158142,3.194000005722046,-6.828999996185303,-0.6280000209808348,-9.767000198364256,-0.4079999923706054
1621586521073,1.4700000286102295,3.2190001010894775,-6.9670000076293945,-0.6280000209808348,-9.727999687194824,-0.4009999930858612
1621586521083,1.3300000429153442,3.506999969482422,-6.986999988555908,-0.6669999957084655,-9.720999717712402,-0.4390000104904174
1621586521093,1.0499999523162842,4.085999965667725,-7.453999996185303,-0.6669999957084655,-9.772999763488768,-0.3689999878406524
1621586521103,0.7699999809265136,4.368000030517578,-7.439499855041504,-0.6669999957084655,-9.767000198364256,-0.4079999923706054
1621586521113,0.4900000095367431,4.650000095367432,-7.425000190734864,-0.7059999704360961,-9.720999717712402,-0.4390000104904174
1621586521123,0.4900000095367431,5.084000110626221,-7.065000057220459,-0.7059999704360961,-9.727999687194824,-0.4009999930858612
1621586521133,0.1400000005960464,5.638999938964844,-7.39300012588501,-0.6669999957084655,-9.727999687194824,-0.4009999930858612
1621586521143,0.0700000002980232,5.671999931335449,-7.173999786376953,-0.6669999957084655,-9.734999656677246,-0.3619999885559082
1621586521153,-0.1400000005960464,5.960000038146973,-7.193999767303467,-0.5879999995231628,-9.734999656677246,-0.3619999885559082
1621586521163,-0.209999993443489,6.072999954223633,-7.0320000648498535,-0.5490000247955322,-9.70300006866455,-0.31700000166893
1621586521173,-0.1400000005960464,5.598999977111816,-6.760000228881836,-0.5099999904632568,-9.696000099182127,-0.3549999892711639
1621586521183,0.0,5.623000144958496,-6.8979997634887695,-0.4709999859333038,-9.682000160217283,-0.4329999983310699
1621586521193,0.0700000002980232,5.510000228881836,-7.060999870300293,-0.5099999904632568,-9.682000160217283,-0.4329999983310699
1621586521203,0.1400000005960464,5.164999961853027,-7.120999813079834,-0.5099999904632568,-9.689000129699709,-0.3939999938011169
1621586521213,0.3499999940395355,4.747000217437744,-6.76800012588501,-0.4709999859333038,-9.767000198364256,-0.4079999923706054
1621586521223,0.1400000005960464,4.349999904632568,-6.127999782562256,-0.4309999942779541,-9.727999687194824,-0.4009999930858612
1621586521233,-0.1400000005960464,4.326000213623047,-5.989999771118164,-0.4709999859333038,-9.734999656677246,-0.3619999885559082
1621586521243,0.0700000002980232,3.8069999217987065,-5.868000030517578,-0.5099999904632568,-9.734999656677246,-0.3619999885559082
1621586521253,-0.0700000002980232,3.559999942779541,-5.271999835968018,-0.5099999904632568,-9.696000099182127,-0.3549999892711639
1621586521263,0.0,3.4260001182556152,-5.7220001220703125,-0.5099999904632568,-9.696000099182127,-0.3549999892711639
1621586521273,0.3499999940395355,2.663000106811523,-5.429999828338623,-0.5490000247955322,-9.710000038146973,-0.277999997138977
1621586521283,0.4900000095367431,2.5420000553131104,-5.948999881744385,-0.5490000247955322,-9.741999626159668,-0.3240000009536743
1621586521293,0.4200000166893005,2.4830000400543213,-5.816999912261963,-0.6280000209808348,-9.734999656677246,-0.3619999885559082
1621586521303,0.3499999940395355,2.424000024795532,-5.684999942779541,-0.6280000209808348,-9.772999763488768,-0.3689999878406524
1621586521313,0.0,2.8499999046325684,-5.681000232696533,-0.6280000209808348,-9.727999687194824,-0.4009999930858612
1621586521323,-0.209999993443489,2.885999917984009,-5.888000011444092,-0.6669999957084655,-9.720999717712402,-0.4390000104904174
1621586521333,-0.699999988079071,3.1050000190734863,-5.921000003814697,-0.6669999957084655,-9.767000198364256,-0.4079999923706054
1621586521343,-0.9100000262260436,3.1170001029968266,-5.989999771118164,-0.6669999957084655,-9.772999763488768,-0.3689999878406524
1621586521353,-0.8399999737739563,3.628000020980835,-6.4679999351501465,-0.6669999957084655,-9.734999656677246,-0.3619999885559082
1621586521363,-0.7699999809265136,3.9040000438690186,-6.420000076293945,-0.6669999957084655,-9.689000129699709,-0.3939999938011169
1621586521373,-0.7699999809265136,4.6539998054504395,-6.64300012588501,-0.7059999704360961,-9.689000129699709,-0.3939999938011169
1621586521383,-0.6299999952316284,4.560999870300293,-6.517000198364258,-0.7059999704360961,-9.689000129699709,-0.3939999938011169
1621586521393,-0.699999988079071,4.991000175476074,-6.939000129699707,-0.6669999957084655,-9.689000129699709,-0.3939999938011169
1621586521403,-0.4199999868869781,5.335000038146973,-6.877999782562256,-0.6669999957084655,-9.70300006866455,-0.31700000166893
1621586521413,-0.1400000005960464,5.140999794006348,-6.982999801635742,-0.6669999957084655,-9.734999656677246,-0.3619999885559082
1621586521423,0.2800000011920929,5.064000129699707,-7.3520002365112305,-0.6280000209808348,-9.767000198364256,-0.4079999923706054
1621586521433,0.209999993443489,5.4079999923706055,-7.291999816894531,-0.5879999995231628,-9.727999687194824,-0.4009999930858612
1621586521443,0.1400000005960464,5.265999794006348,-6.889999866485596,-0.5879999995231628,-9.734999656677246,-0.3619999885559082
1621586521453,-0.0700000002980232,5.1529998779296875,-7.052000045776367,-0.5879999995231628,-9.772999763488768,-0.3689999878406524
1621586521463,0.2800000011920929,4.815999984741211,-6.75600004196167,-0.5490000247955322,-9.779999732971191,-0.3300000131130218
1621586521473,-0.2800000011920929,4.803999900817871,-6.686999797821045,-0.5099999904632568,-9.734999656677246,-0.3619999885559082
1621586521483,-0.3499999940395355,4.6620001792907715,-6.285999774932861,-0.5879999995231628,-9.772999763488768,-0.3689999878406524
1621586521493,-0.2800000011920929,4.4654998779296875,-6.178500175476074,-0.5879999995231628,-9.727999687194824,-0.4009999930858612
1621586521503,-0.209999993443489,4.269000053405762,-6.071000099182129,-0.5879999995231628,-9.741999626159668,-0.3240000009536743
1621586521513,-0.1400000005960464,3.8919999599456783,-5.142000198364258,-0.6280000209808348,-9.772999763488768,-0.3689999878406524
1621586521523,0.0,3.6930000782012935,-6.03000020980835,-0.6280000209808348,-9.819000244140623,-0.3370000123977661
1621586521533,-0.2800000011920929,3.559000015258789,-6.480000019073486,-0.5879999995231628,-9.812000274658203,-0.3759999871253967
1621586521543,-0.209999993443489,3.515000104904175,-6.630000114440918,-0.5879999995231628,-9.772999763488768,-0.3689999878406524
1621586521553,-0.209999993443489,3.6570000648498535,-7.0320000648498535,-0.5879999995231628,-9.819000244140623,-0.3370000123977661
1621586521563,-0.3499999940395355,3.7820000648498535,-6.939000129699707,-0.5879999995231628,-9.819000244140623,-0.3370000123977661
1621586521573,-0.5600000023841857,3.66100001335144,-6.249000072479248,-0.6280000209808348,-9.734999656677246,-0.3619999885559082
1621586521583,-0.7699999809265136,3.5920000076293945,-6.261000156402588,-0.6280000209808348,-9.689000129699709,-0.3939999938011169
1621586521593,-0.9800000190734864,3.9609999656677246,-6.339000225067139,-0.5879999995231628,-9.741999626159668,-0.3240000009536743
1621586521603,-0.9800000190734864,4.086999893188477,-6.244999885559082,-0.5879999995231628,-9.741999626159668,-0.3240000009536743
1621586521613,-0.8399999737739563,4.191999912261963,-6.440000057220459,-0.5879999995231628,-9.734999656677246,-0.3619999885559082
1621586521623,-1.190000057220459,4.103000164031982,-6.739999771118164,-0.5879999995231628,-9.767000198364256,-0.4079999923706054
1621586521633,-1.2599999904632568,4.309999942779541,-6.703999996185303,-0.5879999995231628,-9.812000274658203,-0.3759999871253967
1621586521643,-1.399999976158142,4.4720001220703125,-6.816999912261963,-0.5879999995231628,-9.812000274658203,-0.3759999871253967
1621586521653,-1.399999976158142,4.885000228881836,-6.74399995803833,-0.5879999995231628,-9.80500030517578,-0.414000004529953
1621586521663,-1.75,5.307000160217285,-6.314000129699707,-0.5879999995231628,-9.734999656677246,-0.3619999885559082
1621586521673,-1.75,5.2870001792907715,-6.6020002365112305,-0.5879999995231628,-9.734999656677246,-0.3619999885559082
1621586521683,-1.4700000286102295,5.275000095367432,-6.5329999923706055,-0.5879999995231628,-9.727999687194824,-0.4009999930858612
1621586521693,-1.2599999904632568,5.388000011444092,-6.370999813079834,-0.5490000247955322,-9.727999687194824,-0.4009999930858612
1621586521703,-0.9800000190734864,5.230000019073486,-6.683000087738037,-0.5490000247955322,-9.682000160217283,-0.4329999983310699
1621586521713,-0.7699999809265136,5.310999870300293,-6.739999771118164,-0.5490000247955322,-9.682000160217283,-0.4329999983310699
1621586521723,-0.5600000023841857,5.392000198364258,-6.796999931335449,-0.5490000247955322,-9.727999687194824,-0.4009999930858612
1621586521733,-0.4199999868869781,5.664000034332275,-6.322999954223633,-0.5099999904632568,-9.720999717712402,-0.4390000104904174
1621586521743,-0.209999993443489,5.327000141143799,-6.026000022888184,-0.5099999904632568,-9.682000160217283,-0.4329999983310699
1621586521753,0.0,4.841000080108643,-5.685999870300293,-0.5099999904632568,-9.682000160217283,-0.4329999983310699
1621586521763,0.1400000005960464,4.572999954223633,-5.377999782562256,-0.5099999904632568,-9.689000129699709,-0.3939999938011169
1621586521773,0.4900000095367431,4.021999835968018,-5.474999904632568,-0.4709999859333038,-9.720999717712402,-0.4390000104904174
1621586521783,0.9100000262260436,3.7460000514984126,-5.5229997634887695,-0.5490000247955322,-9.720999717712402,-0.4390000104904174
1621586521793,0.9100000262260436,3.4140000343322754,-5.6529998779296875,-0.5490000247955322,-9.727999687194824,-0.4009999930858612
1621586521803,0.9800000190734864,2.7809998989105225,-5.693999767303467,-0.5490000247955322,-9.760000228881836,-0.4460000097751617
1621586521813,0.699999988079071,2.7809998989105225,-5.693999767303467,-0.5490000247955322,-9.727999687194824,-0.4009999930858612
1621586521823,0.9100000262260436,2.4119999408721924,-5.616000175476074,-0.5490000247955322,-9.767000198364256,-0.4079999923706054
1621586521833,0.8399999737739563,2.4609999656677246,-5.892000198364258,-0.5879999995231628,-9.772999763488768,-0.3689999878406524
1621586521843,0.6299999952316284,2.3550000190734863,-5.697999954223633,-0.5879999995231628,-9.772999763488768,-0.3689999878406524
1621586521853,0.4900000095367431,2.444000005722046,-5.3979997634887695,-0.6280000209808348,-9.819000244140623,-0.3370000123977661
1621586521863,0.1400000005960464,2.4000000953674316,-5.547999858856201,-0.6669999957084655,-9.772999763488768,-0.3689999878406524
1621586521873,-0.0700000002980232,2.63100004196167,-5.64900016784668,-0.7059999704360961,-9.80500030517578,-0.414000004529953
1621586521883,0.209999993443489,3.01200008392334,-5.795000076293945,-0.7059999704360961,-9.727999687194824,-0.4009999930858612
1621586521893,0.0,3.174000024795532,-5.908999919891357,-0.6669999957084655,-9.727999687194824,-0.4009999930858612
1621586521903,0.0700000002980232,3.3239998817443848,-5.953000068664551,-0.6669999957084655,-9.727999687194824,-0.4009999930858612
1621586521913,0.0,3.6489999294281006,-6.179999828338623,-0.6669999957084655,-9.734999656677246,-0.3619999885559082
1621586521923,0.0700000002980232,3.684999942779541,-6.38700008392334,-0.6280000209808348,-9.727999687194824,-0.4009999930858612
1621586521933,0.2800000011920929,3.9409999847412114,-6.625999927520752,-0.6280000209808348,-9.727999687194824,-0.4009999930858612
1621586521943,0.5600000023841857,3.8940000534057617,-6.563499927520752,-0.5879999995231628,-9.727999687194824,-0.4009999930858612
1621586521953,0.8399999737739563,3.8469998836517334,-6.500999927520752,-0.5879999995231628,-9.734999656677246,-0.3619999885559082
1621586521963,0.7699999809265136,4.171999931335449,-6.728000164031982,-0.5879999995231628,-9.689000129699709,-0.3939999938011169
1621586521973,1.0499999523162842,4.309999942779541,-6.703999996185303,-0.5490000247955322,-9.741999626159668,-0.3240000009536743
1621586521983,0.9100000262260436,4.434999942779541,-6.610000133514404,-0.5490000247955322,-9.772999763488768,-0.3689999878406524
1621586521993,0.8399999737739563,4.434999942779541,-6.610000133514404,-0.6280000209808348,-9.720999717712402,-0.4390000104904174
1621586522003,0.8399999737739563,4.5970001220703125,-6.723999977111816,-0.5879999995231628,-9.727999687194824,-0.4009999930858612
1621586522013,0.9100000262260436,4.492000102996826,-6.5289998054504395,-0.5490000247955322,-9.696000099182127,-0.3549999892711639
1621586522023,0.6299999952316284,4.613999843597412,-6.010000228881836,-0.5879999995231628,-9.696000099182127,-0.3549999892711639
1621586522033,0.6299999952316284,4.519999980926514,-5.883999824523926,-0.5490000247955322,-9.696000099182127,-0.3549999892711639
1621586522043,0.9800000190734864,4.188000202178955,-6.013999938964844,-0.5490000247955322,-9.734999656677246,-0.3619999885559082
1621586522053,1.5399999618530271,3.624000072479248,-6.041999816894531,-0.5490000247955322,-9.734999656677246,-0.3619999885559082
1621586522063,1.4700000286102295,3.3529999256134033,-6.517000198364258,-0.5490000247955322,-9.741999626159668,-0.3240000009536743
1621586522073,1.6100000143051147,3.250999927520752,-6.748000144958496,-0.5490000247955322,-9.70300006866455,-0.31700000166893
1621586522083,1.6799999475479126,2.821000099182129,-6.326000213623047,-0.5490000247955322,-9.70300006866455,-0.31700000166893
1621586522093,1.75,2.5859999656677246,-5.798999786376953,-0.5490000247955322,-9.741999626159668,-0.3240000009536743
1621586522103,1.75,2.1519999504089355,-6.159999847412109,-0.5879999995231628,-9.748000144958496,-0.2849999964237213
1621586522113,1.6100000143051147,1.7869999408721924,-6.508999824523926,-0.6280000209808348,-9.748000144958496,-0.2849999964237213
1621586522123,1.6799999475479126,1.6859999895095823,-6.739999771118164,-0.6280000209808348,-9.793999671936035,-0.2529999911785125
1621586522133,1.4700000286102295,1.7350000143051147,-7.014999866485596,-0.6280000209808348,-9.786999702453612,-0.2919999957084655
1621586522143,0.6299999952316284,1.9780000448226929,-7.185999870300293,-0.6280000209808348,-9.786999702453612,-0.2919999957084655
1621586522153,0.4900000095367431,2.3670001029968266,-6.974999904632568,-0.6669999957084655,-9.826000213623049,-0.2989999949932098
1621586522163,0.0700000002980232,3.0,-6.934000015258789,-0.6669999957084655,-9.819000244140623,-0.3370000123977661
1621586522173,-0.2100000083446502,3.2695000171661377,-6.85099983215332,-0.6280000209808348,-9.786999702453612,-0.2919999957084655
1621586522183,-0.4900000095367431,3.5390000343322754,-6.76800012588501,-0.6669999957084655,-9.779999732971191,-0.3300000131130218
1621586522193,-0.5600000023841857,3.9040000438690186,-6.420000076293945,-0.6669999957084655,-9.748000144958496,-0.2849999964237213
1621586522203,-0.5600000023841857,4.605999946594238,-6.367000102996826,-0.6280000209808348,-9.710000038146973,-0.277999997138977
1621586522213,-0.699999988079071,5.031000137329102,-6.36299991607666,-0.5490000247955322,-9.696000099182127,-0.3549999892711639
1621586522223,-0.5600000023841857,4.811999797821045,-6.330999851226807,-0.5490000247955322,-9.696000099182127,-0.3549999892711639
1621586522233,-0.3499999940395355,4.803999900817871,-6.686999797821045,-0.5099999904632568,-9.696000099182127,-0.3549999892711639
1621586522243,-0.209999993443489,5.2789998054504395,-6.959000110626221,-0.5099999904632568,-9.70300006866455,-0.31700000166893
1621586522253,0.0700000002980232,5.498000144958496,-6.992000102996826,-0.5490000247955322,-9.741999626159668,-0.3240000009536743
1621586522263,0.1400000005960464,5.0960001945495605,-5.925000190734863,-0.5099999904632568,-9.70300006866455,-0.31700000166893
1621586522273,-0.1400000005960464,4.622000217437744,-5.6529998779296875,-0.5490000247955322,-9.722999572753906,-0.2010000050067901
1621586522283,0.0700000002980232,4.199999809265137,-6.083000183105469,-0.5490000247955322,-9.678000450134276,-0.2329999953508377
1621586522293,0.209999993443489,3.8680000305175786,-6.2129998207092285,-0.5490000247955322,-9.717000007629396,-0.2399999946355819
1621586522303,0.1400000005960464,3.802999973297119,-6.651000022888184,-0.5879999995231628,-9.710000038146973,-0.277999997138977
1621586522313,0.0700000002980232,3.713000059127808,-6.951000213623047,-0.5879999995231628,-9.70300006866455,-0.31700000166893
1621586522323,0.4900000095367431,3.7460000514984126,-6.73199987411499,-0.5879999995231628,-9.67099952697754,-0.2709999978542327
1621586522333,0.4199999868869781,3.688999891281128,-6.813000202178955,-0.5879999995231628,-9.710000038146973,-0.277999997138977
1621586522343,0.209999993443489,3.6530001163482666,-6.605999946594238,-0.5879999995231628,-9.717000007629396,-0.2399999946355819
1621586522353,0.0700000002980232,4.203999996185303,-6.508999824523926,-0.5879999995231628,-9.70300006866455,-0.31700000166893
1621586522363,0.3499999940395355,4.065999984741211,-6.5329999923706055,-0.6280000209808348,-9.748000144958496,-0.2849999964237213
1621586522373,0.5600000023841857,4.2769999504089355,-6.921999931335449,-0.5879999995231628,-9.717000007629396,-0.2399999946355819
1621586522383,0.209999993443489,4.828999996185303,-6.824999809265137,-0.6280000209808348,-9.717000007629396,-0.2399999946355819
1621586522393,-0.0700000002980232,5.034999847412109,-6.789000034332275,-0.5879999995231628,-9.710000038146973,-0.277999997138977
1621586522403,0.0700000002980232,5.160999774932861,-6.696000099182129,-0.5490000247955322,-9.717000007629396,-0.2399999946355819
1621586522413,0.209999993443489,5.252499580383301,-6.608500003814697,-0.5490000247955322,-9.710000038146973,-0.277999997138977
1621586522423,0.3499999940395355,5.343999862670898,-6.520999908447266,-0.5490000247955322,-9.755000114440918,-0.2460000067949295
1621586522433,0.2800000011920929,5.51800012588501,-6.703999996185303,-0.5879999995231628,-9.755000114440918,-0.2460000067949295
1621586522443,0.4199999868869781,5.611000061035156,-6.828999996185303,-0.5879999995231628,-9.710000038146973,-0.277999997138977
1621586522453,0.4199999868869781,5.614999771118164,-7.255000114440918,-0.5879999995231628,-9.755000114440918,-0.2460000067949295
1621586522463,0.699999988079071,5.9029998779296875,-7.275000095367432,-0.5879999995231628,-9.755000114440918,-0.2460000067949295
1621586522473,0.699999988079071,6.142000198364258,-7.019999980926514,-0.5879999995231628,-9.793999671936035,-0.2529999911785125
1621586522483,0.9800000190734864,6.373000144958496,-7.120999813079834,-0.5490000247955322,-9.755000114440918,-0.2460000067949295
1621586522493,0.5600000023841857,5.894999980926514,-7.631999969482423,-0.5099999904632568,-9.786999702453612,-0.2919999957084655
1621586522503,0.699999988079071,6.007999897003174,-7.469999790191651,-0.5490000247955322,-9.786999702453612,-0.2919999957084655
1621586522513,0.4199999868869781,5.671999931335449,-7.173999786376953,-0.5099999904632568,-9.786999702453612,-0.2919999957084655
1621586522523,0.209999993443489,5.744999885559082,-7.5879998207092285,-0.5490000247955322,-9.748000144958496,-0.2849999964237213
1621586522533,0.209999993443489,5.752999782562256,-7.230999946594238,-0.5490000247955322,-9.755000114440918,-0.2460000067949295
1621586522543,-0.209999993443489,5.980000019073486,-6.906000137329102,-0.5099999904632568,-9.722999572753906,-0.2010000050067901
1621586522553,-0.209999993443489,5.671999931335449,-5.966000080108643,-0.4709999859333038,-9.722999572753906,-0.2010000050067901
1621586522563,-0.209999993443489,5.210000038146973,-5.763000011444092,-0.5490000247955322,-9.717000007629396,-0.2399999946355819
1621586522573,-0.0700000002980232,4.85699987411499,-6.179999828338623,-0.5490000247955322,-9.755000114440918,-0.2460000067949295
1621586522583,0.3499999940395355,4.89300012588501,-6.38700008392334,-0.5490000247955322,-9.755000114440918,-0.2460000067949295
1621586522593,0.0,5.111999988555908,-6.420000076293945,-0.5099999904632568,-9.826000213623049,-0.2989999949932098
1621586522603,-0.209999993443489,5.25,-6.394999980926514,-0.5490000247955322,-9.826000213623049,-0.2989999949932098
1621586522613,-0.4199999868869781,4.9019999504089355,-6.03000020980835,-0.5490000247955322,-9.793999671936035,-0.2529999911785125
1621586522623,-0.5600000023841857,4.5,-6.171999931335449,-0.5490000247955322,-9.755000114440918,-0.2460000067949295
1621586522633,-0.8399999737739563,4.698999881744385,-6.493000030517578,-0.5490000247955322,-9.717000007629396,-0.2399999946355819
1621586522642,-0.9100000262260436,4.78000020980835,-6.548999786376953,-0.5879999995231628,-9.67099952697754,-0.2709999978542327
1621586522652,-0.875,4.9704999923706055,-6.622499942779541,-0.5879999995231628,-9.678000450134276,-0.2329999953508377
1621586522662,-0.8399999737739563,5.160999774932861,-6.696000099182129,-0.5879999995231628,-9.710000038146973,-0.277999997138977
1621586522672,-0.6299999952316284,5.368000030517578,-6.658999919891357,-0.5879999995231628,-9.748000144958496,-0.2849999964237213
1621586522682,-0.3499999940395355,5.372000217437744,-7.085000038146973,-0.5879999995231628,-9.748000144958496,-0.2849999964237213
1621586522692,0.0,5.802000045776367,-7.506999969482423,-0.5490000247955322,-9.741999626159668,-0.3240000009536743
1621586522702,-0.2800000011920929,6.133999824523926,-7.376999855041504,-0.5879999995231628,-9.70300006866455,-0.31700000166893
1621586522712,-0.4900000095367431,6.3979997634887695,-7.258999824523927,-0.5099999904632568,-9.734999656677246,-0.3619999885559082
1621586522722,-0.3499999940395355,6.5229997634887695,-7.165999889373779,-0.5099999904632568,-9.710000038146973,-0.277999997138977
1621586522732,-0.4199999868869781,6.742000102996826,-7.198999881744385,-0.5099999904632568,-9.734999656677246,-0.3619999885559082
1621586522742,-0.4199999868869781,6.705999851226807,-6.992000102996826,-0.5099999904632568,-9.70300006866455,-0.31700000166893
1621586522752,-0.3499999940395355,6.336999893188477,-6.914999961853027,-0.5099999904632568,-9.710000038146973,-0.277999997138977
1621586522762,-0.3499999940395355,6.215000152587891,-7.434000015258789,-0.5099999904632568,-9.717000007629396,-0.2399999946355819
1621586522772,-0.0700000002980232,6.145999908447266,-7.44600009918213,-0.4309999942779541,-9.755000114440918,-0.2460000067949295
1621586522782,0.209999993443489,5.995999813079834,-7.401000022888184,-0.4309999942779541,-9.793999671936035,-0.2529999911785125
1621586522792,0.209999993443489,5.598999977111816,-6.760000228881836,-0.4709999859333038,-9.793999671936035,-0.2529999911785125
1621586522802,-0.1400000005960464,5.574999809265137,-6.623000144958496,-0.4709999859333038,-9.793999671936035,-0.2529999911785125
1621586522812,-0.209999993443489,4.999000072479248,-6.581999778747559,-0.4709999859333038,-9.755000114440918,-0.2460000067949295
1621586522822,-0.1400000005960464,4.743000030517578,-6.3429999351501465,-0.4709999859333038,-9.755000114440918,-0.2460000067949295
1621586522832,0.0,4.455999851226807,-6.322000026702881,-0.4709999859333038,-9.722999572753906,-0.2010000050067901
1621586522842,0.0,4.179999828338623,-6.370999813079834,-0.4709999859333038,-9.6850004196167,-0.1940000057220459
1621586522852,-0.1400000005960464,4.065999984741211,-6.5329999923706055,-0.5490000247955322,-9.722999572753906,-0.2010000050067901
1621586522862,-0.4199999868869781,4.098999977111816,-6.314000129699707,-0.5490000247955322,-9.755000114440918,-0.2460000067949295
1621586522872,-0.3499999940395355,4.196000099182129,-6.261500358581543,-0.5490000247955322,-9.722999572753906,-0.2010000050067901
1621586522882,-0.2800000011920929,4.293000221252441,-6.209000110626221,-0.5099999904632568,-9.755000114440918,-0.2460000067949295
1621586522892,-0.4199999868869781,4.394999980926514,-5.978000164031982,-0.5099999904632568,-9.717000007629396,-0.2399999946355819
1621586522902,-0.3499999940395355,4.565000057220459,-5.734000205993652,-0.5099999904632568,-9.762000083923342,-0.2080000042915344
1621586522912,-0.4900000095367431,5.197999954223633,-5.693999767303467,-0.5099999904632568,-9.762000083923342,-0.2080000042915344
1621586522922,-0.6299999952316284,5.388000011444092,-5.163000106811523,-0.5099999904632568,-9.800999641418455,-0.2150000035762786
1621586522932,-0.5600000023841857,5.563000202178955,-5.34499979019165,-0.4709999859333038,-9.793999671936035,-0.2529999911785125
1621586522942,-0.9100000262260436,5.59499979019165,-5.125999927520752,-0.5099999904632568,-9.800999641418455,-0.2150000035762786
1621586522952,-0.9800000190734864,5.513999938964844,-5.070000171661377,-0.5099999904632568,-9.76900005340576,-0.1689999997615814
1621586522962,-1.2599999904632568,5.23799991607666,-5.118000030517578,-0.5099999904632568,-9.807000160217283,-0.1759999990463256
1621586522972,-1.399999976158142,5.343999862670898,-5.313000202178955,-0.5490000247955322,-9.800999641418455,-0.2150000035762786
1621586522982,-1.5399999618530271,5.0229997634887695,-5.511000156402588,-0.5490000247955322,-9.800999641418455,-0.2150000035762786
1621586522992,-1.9600000381469729,4.991000175476074,-5.730000019073486,-0.5490000247955322,-9.793999671936035,-0.2529999911785125
1621586523002,-2.0299999713897705,4.926000118255615,-6.168000221252441,-0.5490000247955322,-9.755000114440918,-0.2460000067949295
1621586523012,-1.8899999856948853,4.760000228881836,-5.629000186920166,-0.5490000247955322,-9.762000083923342,-0.2080000042915344
1621586523022,-2.0999999046325684,4.946000099182129,-5.880000114440918,-0.5490000247955322,-9.755000114440918,-0.2460000067949295
1621586523032,-1.9600000381469729,5.172999858856201,-5.556000232696533,-0.5490000247955322,-9.786999702453612,-0.2919999957084655
1621586523042,-2.380000114440918,5.047999858856201,-5.64900016784668,-0.5879999995231628,-9.755000114440918,-0.2460000067949295
1621586523052,-2.1700000762939453,5.129000186920166,-5.705999851226807,-0.5099999904632568,-9.793999671936035,-0.2529999911785125
1621586523062,-2.240000009536743,5.460999965667725,-5.576000213623047,-0.5099999904632568,-9.748000144958496,-0.2849999964237213
1621586523072,-2.309999942779541,5.4730000495910645,-5.644999980926514,-0.5490000247955322,-9.710000038146973,-0.277999997138977
1621586523082,-2.4149999618530273,5.355500221252441,-5.381500244140625,-0.5879999995231628,-9.748000144958496,-0.2849999964237213
1621586523092,-2.5199999809265137,5.23799991607666,-5.118000030517578,-0.5879999995231628,-9.717000007629396,-0.2399999946355819
1621586523102,-2.380000114440918,5.486000061035156,-4.50600004196167,-0.5879999995231628,-9.678000450134276,-0.2329999953508377
1621586523112,-2.450000047683716,5.513999938964844,-5.070000171661377,-0.5879999995231628,-9.70300006866455,-0.31700000166893
1621586523122,-2.380000114440918,5.185999870300293,-5.625,-0.6280000209808348,-9.70300006866455,-0.31700000166893
1621586523132,-2.0299999713897705,4.991000175476074,-5.730000019073486,-0.5879999995231628,-9.70300006866455,-0.31700000166893
1621586523142,-1.75,5.059999942779541,-5.7179999351501465,-0.5490000247955322,-9.793999671936035,-0.2529999911785125
1621586523152,-0.9100000262260436,5.1529998779296875,-5.843999862670898,-0.5099999904632568,-9.748000144958496,-0.2849999964237213
1621586523162,-0.9800000190734864,4.909999847412109,-5.673999786376953,-0.5490000247955322,-9.741999626159668,-0.3240000009536743
1621586523172,-1.0499999523162842,4.439000129699707,-5.828000068664551,-0.5490000247955322,-9.696000099182127,-0.3549999892711639
1621586523182,-0.9100000262260436,4.326000213623047,-5.989999771118164,-0.5879999995231628,-9.67099952697754,-0.2709999978542327
1621586523192,-0.699999988079071,4.455999851226807,-6.322000026702881,-0.5879999995231628,-9.67099952697754,-0.2709999978542327
1621586523202,-0.7699999809265136,5.011000156402588,-6.651000022888184,-0.5879999995231628,-9.717000007629396,-0.2399999946355819
1621586523212,-1.0499999523162842,5.343999862670898,-6.520999908447266,-0.5879999995231628,-9.748000144958496,-0.2849999964237213
1621586523222,-0.7699999809265136,5.380000114440918,-6.728000164031982,-0.5879999995231628,-9.786999702453612,-0.2919999957084655
1621586523232,-0.6299999952316284,5.691999912261963,-6.886000156402588,-0.5490000247955322,-9.748000144958496,-0.2849999964237213
1621586523242,-0.6299999952316284,5.829999923706055,-6.861999988555908,-0.5490000247955322,-9.748000144958496,-0.2849999964237213
1621586523252,-0.7699999809265136,5.97599983215332,-6.480999946594238,-0.5490000247955322,-9.70300006866455,-0.31700000166893
1621586523262,-0.7699999809265136,6.0,-6.61899995803833,-0.4709999859333038,-9.717000007629396,-0.2399999946355819
1621586523272,-0.4199999868869781,6.198999881744385,-6.939000129699707,-0.4709999859333038,-9.67099952697754,-0.2709999978542327
1621586523282,-0.3499999940395355,6.324999809265137,-6.8454999923706055,-0.4709999859333038,-9.696000099182127,-0.3549999892711639
1621586523292,-0.2800000011920929,6.451000213623047,-6.751999855041504,-0.5099999904632568,-9.710000038146973,-0.277999997138977
1621586523302,-0.0700000002980232,6.418000221252441,-6.9710001945495605,-0.5099999904632568,-9.748000144958496,-0.2849999964237213
1621586523312,0.3499999940395355,5.834000110626221,-7.288000106811523,-0.5099999904632568,-9.748000144958496,-0.2849999964237213
1621586523322,-0.0700000002980232,5.591000080108643,-7.117000102996826,-0.5099999904632568,-9.779999732971191,-0.3300000131130218
1621586523332,-0.209999993443489,5.598999977111816,-6.760000228881836,-0.4709999859333038,-9.779999732971191,-0.3300000131130218
1621586523342,-0.0700000002980232,5.538000106811523,-6.415999889373779,-0.5099999904632568,-9.786999702453612,-0.2919999957084655
1621586523352,-0.209999993443489,5.0879998207092285,-6.2820000648498535,-0.4709999859333038,-9.779999732971191,-0.3300000131130218
1621586523362,-0.3499999940395355,4.811999797821045,-6.330999851226807,-0.5099999904632568,-9.819000244140623,-0.3370000123977661
1621586523372,-0.5600000023841857,4.47599983215332,-6.033999919891357,-0.4709999859333038,-9.819000244140623,-0.3370000123977661
1621586523382,-0.4900000095367431,4.452000141143799,-5.896999835968018,-0.5099999904632568,-9.819000244140623,-0.3370000123977661
1621586523392,-0.5600000023841857,4.232999801635742,-5.863999843597412,-0.4709999859333038,-9.779999732971191,-0.3300000131130218
1621586523402,-0.9800000190734864,3.7260000705718994,-5.810999870300293,-0.5099999904632568,-9.741999626159668,-0.3240000009536743
1621586523412,-0.699999988079071,3.9809999465942383,-6.051000118255615,-0.5099999904632568,-9.748000144958496,-0.2849999964237213
1621586523422,-0.9100000262260436,3.619999885559082,-5.617000102996826,-0.5490000247955322,-9.748000144958496,-0.2849999964237213
1621586523432,-0.9800000190734864,3.5959999561309814,-5.479000091552734,-0.5879999995231628,-9.734999656677246,-0.3619999885559082
1621586523442,-1.2599999904632568,3.3970000743865967,-5.1579999923706055,-0.5490000247955322,-9.741999626159668,-0.3240000009536743
1621586523452,-1.3300000429153442,3.5959999561309814,-5.479000091552734,-0.5490000247955322,-9.755000114440918,-0.2460000067949295
1621586523462,-1.399999976158142,3.677000045776367,-5.535999774932861,-0.5490000247955322,-9.748000144958496,-0.2849999964237213
1621586523472,-1.4700000286102295,3.786499977111816,-5.552000045776367,-0.5490000247955322,-9.779999732971191,-0.3300000131130218
1621586523482,-1.5399999618530271,3.8959999084472656,-5.567999839782715,-0.5879999995231628,-9.748000144958496,-0.2849999964237213
1621586523492,-1.75,3.900000095367432,-5.99399995803833,-0.5490000247955322,-9.786999702453612,-0.2919999957084655
1621586523502,-1.4700000286102295,3.7829999923706055,-5.730000019073486,-0.5879999995231628,-9.741999626159668,-0.3240000009536743
1621586523512,-1.4700000286102295,4.1519999504089355,-5.807000160217285,-0.5879999995231628,-9.696000099182127,-0.3549999892711639
1621586523522,-1.399999976158142,4.414999961853027,-5.690000057220459,-0.5879999995231628,-9.70300006866455,-0.31700000166893
1621586523532,-1.1200000047683716,4.452000141143799,-5.896999835968018,-0.5490000247955322,-9.762000083923342,-0.2080000042915344
1621586523542,-1.0499999523162842,4.645999908447266,-5.790999889373779,-0.5490000247955322,-9.722999572753906,-0.2010000050067901
1621586523552,-0.8399999737739563,4.3379998207092285,-6.059000015258789,-0.5879999995231628,-9.729999542236328,-0.1620000004768371
1621586523562,-0.9800000190734864,4.51200008392334,-6.241000175476074,-0.5490000247955322,-9.755000114440918,-0.2460000067949295
1621586523572,-1.1200000047683716,4.548999786376953,-6.447999954223633,-0.5879999995231628,-9.710000038146973,-0.277999997138977
1621586523582,-0.699999988079071,4.374000072479248,-6.265999794006348,-0.5879999995231628,-9.748000144958496,-0.2849999964237213
1621586523592,-0.5600000023841857,4.560999870300293,-6.517000198364258,-0.5879999995231628,-9.741999626159668,-0.3240000009536743
1621586523602,-0.8399999737739563,4.747000217437744,-6.76800012588501,-0.5490000247955322,-9.741999626159668,-0.3240000009536743
1621586523612,-1.1200000047683716,4.760000228881836,-6.836999893188477,-0.5879999995231628,-9.741999626159668,-0.3240000009536743
1621586523622,-0.9100000262260436,4.552999973297119,-6.874000072479248,-0.5490000247955322,-9.70300006866455,-0.31700000166893
1621586523632,-0.7699999809265136,4.703000068664551,-6.918000221252441,-0.5490000247955322,-9.696000099182127,-0.3549999892711639
1621586523642,-0.8399999737739563,4.695000171661377,-6.066999912261963,-0.5490000247955322,-9.696000099182127,-0.3549999892711639
1621586523652,-0.699999988079071,4.284999847412109,-5.35699987411499,-0.5879999995231628,-9.696000099182127,-0.3549999892711639
1621586523662,-0.4900000095367431,4.357999801635742,-5.770999908447266,-0.5879999995231628,-9.696000099182127,-0.3549999892711639
1621586523672,-0.4200000166893005,4.361999988555908,-6.196499824523926,-0.5879999995231628,-9.772999763488768,-0.3689999878406524
1621586523682,-0.3499999940395355,4.366000175476074,-6.622000217437744,-0.6669999957084655,-9.734999656677246,-0.3619999885559082
1621586523692,-0.2800000011920929,4.808000087738037,-7.11299991607666,-0.6280000209808348,-9.734999656677246,-0.3619999885559082
1621586523702,0.0700000002980232,4.841000080108643,-6.894000053405762,-0.5879999995231628,-9.772999763488768,-0.3689999878406524
1621586523712,0.1400000005960464,4.820000171661377,-7.182000160217285,-0.5490000247955322,-9.772999763488768,-0.3689999878406524
1621586523722,0.0,4.572999954223633,-6.585999965667725,-0.5099999904632568,-9.741999626159668,-0.3240000009536743
1621586523732,0.3499999940395355,4.4720001220703125,-6.816999912261963,-0.5490000247955322,-9.70300006866455,-0.31700000166893
1621586523742,0.6299999952316284,4.2729997634887695,-6.497000217437744,-0.5490000247955322,-9.70300006866455,-0.31700000166893
1621586523752,0.9800000190734864,4.026000022888184,-7.109000205993652,-0.5490000247955322,-9.748000144958496,-0.2849999964237213
1621586523762,0.9100000262260436,4.386000156402588,-7.543000221252441,-0.5490000247955322,-9.744999885559082,-0.3044999837875366
1621586523772,0.4900000095367431,4.638000011444092,-7.355999946594238,-0.5490000247955322,-9.741999626159668,-0.3240000009536743
1621586523782,0.209999993443489,5.019000053405762,-7.501999855041504,-0.5490000247955322,-9.826000213623049,-0.2989999949932098
1621586523792,0.209999993443489,5.132999897003174,-7.3400001525878915,-0.5879999995231628,-9.819000244140623,-0.3370000123977661
1621586523802,0.0,5.372000217437744,-7.085000038146973,-0.5490000247955322,-9.786999702453612,-0.2919999957084655
1621586523812,-0.2800000011920929,5.498000144958496,-6.992000102996826,-0.5099999904632568,-9.767000198364256,-0.4079999923706054
1621586523822,-0.4199999868869781,6.110000133514404,-7.238999843597413,-0.5099999904632568,-9.734999656677246,-0.3619999885559082
1621586523832,-0.6299999952316284,6.0370001792907715,-6.824999809265137,-0.5099999904632568,-9.696000099182127,-0.3549999892711639
1621586523842,-0.5600000023841857,5.8420000076293945,-6.931000232696533,-0.4709999859333038,-9.741999626159668,-0.3240000009536743
1621586523852,-0.209999993443489,6.0,-6.61899995803833,-0.4709999859333038,-9.741999626159668,-0.3240000009536743
1621586523862,-0.3149999976158142,5.840000152587891,-6.7179999351501465,-0.4309999942779541,-9.70300006866455,-0.31700000166893
1621586523872,-0.4199999868869781,5.679999828338623,-6.816999912261963,-0.4309999942779541,-9.70300006866455,-0.31700000166893
1621586523882,-0.2800000011920929,5.623000144958496,-6.8979997634887695,-0.4709999859333038,-9.741999626159668,-0.3240000009536743
1621586523892,-0.1400000005960464,5.298999786376953,-6.671000003814697,-0.4709999859333038,-9.741999626159668,-0.3240000009536743
1621586523902,-0.3499999940395355,5.006999969482422,-6.224999904632568,-0.4709999859333038,-9.696000099182127,-0.3549999892711639
1621586523912,0.0,4.382999897003174,-5.908999919891357,-0.4309999942779541,-9.696000099182127,-0.3549999892711639
1621586523922,-0.209999993443489,4.168000221252441,-6.302000045776367,-0.4709999859333038,-9.70300006866455,-0.31700000166893
1621586523932,0.0700000002980232,4.041999816894531,-6.394999980926514,-0.4709999859333038,-9.70300006866455,-0.31700000166893
1621586523942,0.2800000011920929,3.8350000381469727,-6.432000160217285,-0.4709999859333038,-9.67099952697754,-0.2709999978542327
1621586523952,0.209999993443489,3.8469998836517334,-6.500999927520752,-0.5099999904632568,-9.70300006866455,-0.31700000166893
1621586523962,0.0,3.9409999847412114,-6.625999927520752,-0.5490000247955322,-9.696000099182127,-0.3549999892711639
1621586523972,0.4900000095367431,3.7219998836517334,-6.593999862670898,-0.5099999904632568,-9.70300006866455,-0.31700000166893
1621586523982,0.5600000023841857,3.5959999561309814,-6.686999797821045,-0.5099999904632568,-9.755000114440918,-0.2460000067949295
1621586523992,0.6299999952316284,3.619999885559082,-6.824999809265137,-0.5490000247955322,-9.748000144958496,-0.2849999964237213
1621586524002,0.699999988079071,4.114999771118164,-6.809000015258789,-0.5490000247955322,-9.741999626159668,-0.3240000009536743
1621586524012,0.7699999809265136,4.354000091552734,-6.552999973297119,-0.5490000247955322,-9.70300006866455,-0.31700000166893
1621586524022,0.9800000190734864,4.390999794006348,-6.760000228881836,-0.5490000247955322,-9.70300006866455,-0.31700000166893
1621586524032,0.699999988079071,4.568999767303467,-7.368999958038329,-0.5879999995231628,-9.741999626159668,-0.3240000009536743
1621586524042,0.7699999809265136,4.545000076293945,-7.230999946594238,-0.5879999995231628,-9.786999702453612,-0.2919999957084655
1621586524052,0.840000033378601,4.759500026702881,-7.441499710083008,-0.5879999995231628,-9.779999732971191,-0.3300000131130218
1621586524062,0.9100000262260436,4.973999977111816,-7.651999950408936,-0.5879999995231628,-9.779999732971191,-0.3300000131130218
1621586524072,0.9100000262260436,5.160999774932861,-7.90399980545044,-0.6669999957084655,-9.786999702453612,-0.2919999957084655
1621586524082,1.1200000047683716,5.0229997634887695,-7.927999973297118,-0.7450000047683715,-9.826000213623049,-0.2989999949932098
1621586524092,0.8399999737739563,5.445000171661377,-8.706999778747559,-0.8240000009536743,-9.786999702453612,-0.2919999957084655
1621586524102,0.5600000023841857,6.190999984741211,-9.713000297546388,-0.9409999847412108,-9.871000289916992,-0.2669999897480011
1621586524112,0.8399999737739563,7.961999893188477,-10.892999649047852,-0.981000006198883,-9.916999816894531,-0.2349999994039535
1621586524122,0.209999993443489,10.524999618530272,-11.720000267028809,-1.0199999809265137,-9.954999923706056,-0.2419999986886978
1621586524132,-0.1400000005960464,13.3149995803833,-12.223999977111816,-1.0199999809265137,-9.92300033569336,-0.1959999948740005
1621586524142,0.0,16.083999633789062,-13.015000343322754,-1.0590000152587893,-9.885000228881836,-0.1889999955892562
1621586524152,0.0700000002980232,18.72800064086914,-13.89900016784668,-1.0590000152587893,-9.845999717712402,-0.1829999983310699
1621586524162,0.4900000095367431,22.007999420166016,-15.168999671936035,-1.0590000152587893,-9.729999542236328,-0.1620000004768371
1621586524172,0.7699999809265136,25.277000427246097,-16.368999481201172,-1.1770000457763672,-9.722999572753906,-0.2010000050067901
1621586524182,1.3300000429153442,29.802000045776367,-17.84600067138672,-1.215999960899353,-9.762000083923342,-0.2080000042915344
1621586524192,1.6799999475479126,34.78900146484375,-19.525999069213867,-1.1770000457763672,-9.76900005340576,-0.1689999997615814
1621586524202,2.7300000190734863,40.4010009765625,-20.312999725341797,-1.215999960899353,-9.6850004196167,-0.1940000057220459
1621586524212,3.569999933242798,45.801998138427734,-20.711000442504883,-1.1380000114440918,-9.645999908447264,-0.1870000064373016
1621586524222,4.480000019073486,51.32899856567382,-21.016000747680664,-1.1380000114440918,-9.652999877929688,-0.1490000039339065
1621586524232,5.389999866485596,57.28200149536133,-21.316999435424805,-1.0590000152587893,-9.722999572753906,-0.2010000050067901
1621586524242,5.845000267028809,60.1245002746582,-21.917499542236328,-0.9409999847412108,-9.800999641418455,-0.2150000035762786
1621586524252,6.300000190734863,62.96699905395508,-22.51799964904785,-0.8629999756813049,-9.878000259399414,-0.2280000001192092
1621586524262,7.559999942779541,68.4489974975586,-22.972999572753903,-0.7059999704360961,-9.83199977874756,-0.2599999904632568
1621586524271,8.819999694824219,73.23400115966797,-22.697999954223633,-0.5490000247955322,-9.755000114440918,-0.2460000067949295
1621586524281,10.5,77.26899719238281,-22.200000762939453,-0.3919999897480011,-9.722999572753906,-0.2010000050067901
1621586524292,12.109999656677246,80.2490005493164,-20.96299934387207,-0.2349999994039535,-9.69200038909912,-0.1550000011920929
1621586524302,13.579999923706056,82.3949966430664,-20.229999542236328,-0.1570000052452087,-9.69200038909912,-0.1550000011920929
1621586524311,14.489999771118164,84.09400177001953,-18.579999923706055,-0.0780000016093254,-9.69200038909912,-0.1550000011920929
1621586524321,15.1899995803833,85.26200103759767,-16.73900032043457,0.0780000016093254,-9.821000099182127,-0.0989999994635581
1621586524331,15.1899995803833,86.48699951171875,-16.024999618530273,0.0780000016093254,-9.866000175476074,-0.06700000166893
1621586524341,15.260000228881836,87.71499633789062,-15.737000465393066,0.0780000016093254,-9.82800006866455,-0.0599999986588954
1621586524351,15.470000267028809,88.85099792480469,-16.531999588012695,0.1570000052452087,-9.835000038146973,-0.0209999997168779
1621586524361,15.119999885559082,90.15599822998048,-17.083999633789062,0.2349999994039535,-9.880000114440918,0.0099999997764825
1621586524371,14.979999542236328,91.28399658203124,-17.027000427246094,0.3140000104904174,-9.803000450134276,0.0240000002086162
1621586524381,14.489999771118164,92.2689971923828,-16.569000244140625,0.3529999852180481,-9.763999938964846,0.0309999994933605
1621586524391,13.510000228881836,92.8040008544922,-17.18600082397461,0.3919999897480011,-9.763999938964846,0.0309999994933605
1621586524401,11.6899995803833,93.48899841308592,-17.847000122070312,0.4709999859333038,-9.763999938964846,0.0309999994933605
1621586524411,9.65999984741211,94.77899932861328,-19.11199951171875,0.5099999904632568,-9.803000450134276,0.0240000002086162
1621586524421,7.489999771118165,96.77400207519533,-20.750999450683594,0.5490000247955322,-9.8100004196167,0.0630000010132789
1621586524431,5.739999771118164,98.4240036010742,-22.450000762939453,0.6280000209808348,-9.694000244140623,0.0829999968409538
1621586524441,5.039999961853027,99.25700378417967,-22.94300079345703,0.7450000047683715,-9.623000144958496,0.135000005364418
1621586524451,4.340000152587891,100.08999633789062,-23.43600082397461,0.7850000262260437,-9.513999938964846,0.1940000057220459
1621586524461,3.849999904632568,100.78399658203124,-22.531000137329105,0.8629999756813049,-9.392000198364256,0.1759999990463256
1621586524471,3.9200000762939458,101.05999755859376,-21.27400016784668,0.9409999847412108,-9.352999687194824,0.1829999983310699
1621586524481,4.409999847412109,101.35199737548828,-20.511999130249023,0.9409999847412108,-9.26900005340576,0.1580000072717666
1621586524491,4.550000190734863,101.45700073242188,-19.49799919128418,0.9020000100135804,-9.107999801635742,0.1469999998807907
1621586524501,4.550000190734863,101.63600158691406,-18.89800071716309,0.8240000009536743,-9.036999702453612,0.1990000009536743
1621586524511,4.480000019073486,101.93599700927734,-18.988000869750977,0.7450000047683715,-9.043999671936035,0.2380000054836273
1621586524521,4.480000019073486,103.19300079345705,-18.05500030517578,0.6280000209808348,-8.967000007629395,0.2509999871253967
1621586524531,4.269999980926514,105.0709991455078,-17.01300048828125,0.4309999942779541,-9.050999641418455,0.2759999930858612
1621586524541,4.059999942779541,107.75499725341795,-16.113000869750977,0.2349999994039535,-9.18000030517578,0.3330000042915344
1621586524551,3.849999904632568,111.03600311279295,-14.965999603271484,0.0390000008046627,-9.194000244140623,0.4099999964237213
1621586524561,4.199999809265137,115.47200012207033,-14.326000213623049,-0.1570000052452087,-9.201000213623049,0.4490000009536743
1621586524571,4.760000228881836,121.09200286865234,-13.54800033569336,-0.2349999994039535,-9.20699977874756,0.4880000054836273
1621586524581,5.670000076293945,127.22799682617188,-12.467000007629396,-0.2750000059604644,-9.322999954223633,0.4670000076293945
1621586524591,6.510000228881836,132.62899780273438,-10.447999954223633,-0.2349999994039535,-9.484999656677246,0.4790000021457672
1621586524601,7.210000038146973,137.15499877929688,-8.298999786376953,-0.1570000052452087,-9.722999572753906,0.4760000109672546
1621586524611,7.699999809265136,140.41900634765625,-6.6579999923706055,-0.0390000008046627,-9.871000289916992,0.4099999964237213
1621586524621,8.1899995803833,141.7779998779297,-5.49399995803833,0.0780000016093254,-10.031999588012695,0.4219999909400939
1621586524631,8.1899995803833,142.0500030517578,-3.811000108718872,0.1959999948740005,-10.038999557495115,0.4600000083446502
1621586524641,8.119999885559082,141.52699279785156,-3.263999938964844,0.3140000104904174,-10.038999557495115,0.4600000083446502
1621586524651,8.085000038146973,141.06849670410156,-3.486999988555908,0.3919999897480011,-9.961999893188477,0.4740000069141387
1621586524661,8.050000190734863,140.61000061035156,-3.7100000381469727,0.5099999904632568,-9.916000366210936,0.44200000166893
1621586524671,8.1899995803833,138.95599365234375,-5.210000038146973,0.6280000209808348,-9.722999572753906,0.4760000109672546
1621586524681,8.609999656677246,136.41700744628906,-6.936999797821045,0.7450000047683715,-9.6850004196167,0.4830000102519989
1621586524691,9.239999771118164,132.6580047607422,-8.595000267028809,0.8629999756813049,-9.722999572753906,0.4760000109672546
1621586524701,10.079999923706056,127.75900268554688,-9.031999588012695,0.9409999847412108,-9.76900005340576,0.5080000162124633
1621586524711,9.800000190734863,122.24500274658205,-8.795999526977539,1.0590000152587893,-9.878000259399414,0.4490000009536743
1621586524721,9.9399995803833,115.90299987792967,-8.706000328063965,1.1380000114440918,-9.885000228881836,0.4880000054836273
1621586524731,9.380000114440918,109.47599792480467,-8.133000373840332,1.215999960899353,-9.878000259399414,0.4490000009536743
1621586524741,8.680000305175781,102.59799957275392,-7.427000045776368,1.215999960899353,-9.83199977874756,0.4169999957084655
1621586524751,8.050000190734863,96.1959991455078,-6.992000102996826,1.215999960899353,-9.762000083923342,0.4690000116825103
1621586524761,7.559999942779541,90.05599975585938,-6.440000057220459,1.1770000457763672,-9.690999984741213,0.5220000147819519
1621586524771,7.420000076293945,83.54399871826172,-5.383999824523926,1.1770000457763672,-9.569000244140623,0.5040000081062316
1621586524781,8.329999923706055,76.79299926757812,-4.585000038146973,1.0980000495910645,-9.491000175476074,0.5170000195503234
1621586524791,9.65999984741211,70.63300323486328,-4.320000171661377,1.0199999809265137,-9.460000038146973,0.5630000233650208
1621586524801,11.6899995803833,65.50399780273438,-4.656000137329102,0.9409999847412108,-9.543999671936035,0.5879999995231628
1621586524811,13.510000228881836,60.750999450683594,-4.711999893188477,0.8629999756813049,-9.666000366210936,0.606000006198883
1621586524821,15.609999656677246,56.915000915527344,-5.531000137329102,0.7850000262260437,-9.79599952697754,0.6629999876022338
1621586524831,17.149999618530273,52.98600006103515,-5.014999866485596,0.7850000262260437,-9.840999603271484,0.6940000057220459
1621586524841,17.639999389648438,48.72800064086914,-2.638000011444092,0.7059999704360961,-9.840999603271484,0.6940000057220459
1621586524851,17.989999771118164,44.86399841308594,-1.684999942779541,0.6280000209808348,-9.770999908447264,0.746999979019165
1621586524861,18.549999237060547,41.194000244140625,-1.8350000381469729,0.6280000209808348,-9.668999671936035,0.8439999818801879
1621586524871,18.829999923706055,39.81949996948242,-1.899500012397766,0.5490000247955322,-9.682000160217283,0.921999990940094
1621586524881,19.11000061035156,38.44499969482422,-1.9639999866485596,0.4309999942779541,-9.64400005340576,0.9279999732971193
1621586524891,20.020000457763672,35.3390007019043,-2.0850000381469727,0.3529999852180481,-9.696000099182127,0.9990000128746032
1621586524901,20.86000061035156,33.319000244140625,-2.7260000705718994,0.3140000104904174,-9.734999656677246,0.9919999837875366
1621586524911,21.6299991607666,31.51499938964844,-2.9730000495910645,0.2349999994039535,-9.819000244140623,1.0169999599456787
1621586524921,21.350000381469727,29.642000198364254,-3.2320001125335693,0.1959999948740005,-9.90999984741211,1.0809999704360962
1621586524931,20.719999313354492,28.238000869750977,-3.336999893188477,0.1180000007152557,-10.0,1.1440000534057615
1621586524941,19.950000762939453,27.156000137329105,-3.24399995803833,0.1180000007152557,-9.968999862670898,1.190000057220459
1621586524951,19.040000915527344,25.934999465942383,-3.174999952316284,0.1180000007152557,-9.944000244140623,1.27400004863739
1621586524961,18.549999237060547,24.649999618530273,-3.5429999828338623,0.1180000007152557,-9.904999732971191,1.281000018119812
1621586524971,17.850000381469727,23.250999450683594,-4.073999881744385,0.1570000052452087,-9.866000175476074,1.287999987602234
1621586524981,17.43000030517578,21.868000030517575,-3.8919999599456783,0.1959999948740005,-9.840999603271484,1.371999979019165
1621586524991,16.799999237060547,20.395999908447266,-4.008999824523926,0.1570000052452087,-9.95699977874756,1.35099995136261
1621586525001,15.960000038146973,19.01300048828125,-3.82699990272522,0.1959999948740005,-10.097999572753906,1.246999979019165
1621586525011,14.06999969482422,16.670000076293945,-3.0309998989105225,0.1959999948740005,-10.13700008392334,1.2400000095367432
1621586525021,12.109999656677246,14.034000396728516,-1.7899999618530271,0.1959999948740005,-10.156999588012695,1.3559999465942385
1621586525031,9.59000015258789,11.767000198364258,-1.8339999914169312,0.1570000052452087,-10.119000434875488,1.3630000352859497
1621586525041,7.139999866485596,9.171999931335447,-1.22599995136261,0.1959999948740005,-10.059000015258787,1.253000020980835
1621586525051,4.96999979019165,7.034999847412109,-0.3939999938011169,0.1570000052452087,-9.982000350952148,1.2669999599456787
1621586525061,3.5,4.708000183105469,-0.0939999967813491,0.0780000016093254,-9.873000144958496,1.3259999752044678
1621586525071,3.009999990463257,2.509999990463257,-0.1260000020265579,0.0780000016093254,-9.82800006866455,1.2940000295639038
1621586525081,3.0799999237060547,0.2720000147819519,0.4740000069141387,0.0,-9.718999862670898,1.3530000448226929
1621586525091,3.2199997901916504,-0.8250000476837158,0.849500000476837,-0.0390000008046627,-9.725000381469728,1.3919999599456787
1621586525101,3.359999895095825,-1.9220000505447388,1.225000023841858,-0.0780000016093254,-9.803000450134276,1.378000020980835
1621586525111,3.1500000953674316,-4.131999969482422,1.2619999647140503,-0.1180000007152557,-9.833999633789062,1.3329999446868896
1621586525121,2.6600000858306885,-6.519999980926514,1.906999945640564,-0.1180000007152557,-9.833999633789062,1.3329999446868896
1621586525131,1.75,-8.595999717712402,2.3940000534057617,-0.1570000052452087,-9.866000175476074,1.287999987602234
1621586525141,0.699999988079071,-10.14900016784668,2.3329999446868896,-0.2349999994039535,-9.873000144958496,1.3259999752044678
1621586525151,-0.4199999868869781,-11.973999977111816,3.00600004196167,-0.1959999948740005,-9.788999557495115,1.3009999990463257
1621586525161,-1.0499999523162842,-13.531000137329102,3.371999979019165,-0.2349999994039535,-9.82800006866455,1.2940000295639038
1621586525171,-1.8899999856948853,-15.003000259399414,3.253999948501587,-0.2349999994039535,-9.774999618530272,1.2239999771118164
1621586525181,-2.5199999809265137,-16.402000427246094,2.7230000495910645,-0.2750000059604644,-9.697999954223633,1.2380000352859497
1621586525191,-3.2899999618530273,-17.631000518798828,2.434999942779541,-0.2349999994039535,-9.697999954223633,1.2380000352859497
1621586525201,-3.7100000381469727,-19.06599998474121,2.111000061035156,-0.2349999994039535,-9.65999984741211,1.24399995803833
1621586525211,-3.430000066757202,-19.825000762939453,1.9780000448226929,-0.1570000052452087,-9.65999984741211,1.24399995803833
1621586525221,-3.2200000286102295,-21.183000564575195,2.0220000743865967,-0.1180000007152557,-9.697999954223633,1.2380000352859497
1621586525231,-3.009999990463257,-22.96299934387207,2.8459999561309814,-0.1180000007152557,-9.704999923706056,1.2760000228881836
1621586525241,-3.0799999237060547,-24.281000137329105,3.4660000801086426,-0.0780000016093254,-9.704999923706056,1.2760000228881836
1621586525251,-3.2200000286102295,-26.031999588012695,4.934000015258789,-0.0390000008046627,-9.704999923706056,1.2760000228881836
1621586525261,-3.0799999237060547,-27.06599998474121,5.960999965667725,-0.0390000008046627,-9.788999557495115,1.3009999990463257
1621586525271,-3.1500000953674316,-28.667999267578125,6.176000118255615,-0.0390000008046627,-9.859000205993652,1.2489999532699585
1621586525281,-3.2899999618530273,-30.176000595092773,6.264999866485596,-0.0780000016093254,-9.814000129699709,1.2170000076293943
1621586525291,-3.990000009536743,-31.72100067138672,6.560999870300293,-0.0780000016093254,-9.866000175476074,1.287999987602234
1621586525301,-4.829999923706055,-32.625999450683594,6.046000003814697,-0.0780000016093254,-9.866000175476074,1.287999987602234
1621586525311,-5.880000114440918,-33.237998962402344,5.085999965667725,-0.0780000016093254,-10.034000396728516,1.3380000591278076
1621586525321,-6.545000076293945,-33.26449966430664,4.227999687194824,-0.1570000052452087,-10.112000465393066,1.3240000009536743
1621586525331,-7.210000038146973,-33.29100036621094,3.369999885559082,-0.1959999948740005,-10.234000205993652,1.3420000076293943
1621586525341,-8.119999885559082,-33.375999450683594,2.6440000534057617,-0.2349999994039535,-10.234000205993652,1.3420000076293943
1621586525351,-8.680000305175781,-32.090999603271484,1.8049999475479128,-0.2750000059604644,-10.279999732971191,1.3739999532699585
1621586525361,-9.3100004196167,-30.910999298095703,1.1599999666213987,-0.2750000059604644,-10.317999839782717,1.3669999837875366
1621586525371,-10.149999618530272,-29.243999481201172,1.3830000162124634,-0.3529999852180481,-10.350000381469728,1.3220000267028809
1621586525381,-11.270000457763672,-27.23699951171875,2.0920000076293945,-0.4309999942779541,-10.350000381469728,1.3220000267028809
1621586525391,-12.670000076293944,-25.09199905395508,1.6169999837875366,-0.4709999859333038,-10.227999687194824,1.3029999732971191
1621586525401,-14.140000343322754,-22.74799919128418,0.8220000267028807,-0.5099999904632568,-10.163999557495115,1.3940000534057615
1621586525411,-15.119999885559082,-19.386999130249023,-0.5040000081062316,-0.5879999995231628,-10.034000396728516,1.3380000591278076
1621586525421,-16.030000686645508,-16.163000106811523,-1.8550000190734863,-0.5490000247955322,-9.949999809265137,1.312999963760376
1621586525431,-16.100000381469727,-12.498000144958496,-3.696000099182129,-0.5879999995231628,-9.744000434875488,1.2690000534057615
1621586525441,-15.75,-9.26599979400635,-4.690000057220459,-0.5879999995231628,-9.814000129699709,1.2170000076293943
1621586525451,-15.260000228881836,-6.063000202178955,-5.120999813079834,-0.6280000209808348,-9.762000083923342,1.1469999551773071
1621586525461,-14.350000381469728,-2.697999954223633,-6.873000144958496,-0.5879999995231628,-9.55500030517578,1.1030000448226929
1621586525471,-13.93000030517578,0.7730000019073486,-7.611000061035157,-0.5099999904632568,-9.625,1.0509999990463257
1621586525481,-13.579999923706056,3.7579998970031734,-6.801000118255615,-0.5099999904632568,-9.928000450134276,0.9580000042915344
1621586525491,-12.670000076293944,6.860000133514404,-8.670999526977539,-0.4709999859333038,-10.159000396728516,0.9169999957084656
1621586525501,-12.529999732971191,10.140000343322754,-9.9399995803833,-0.4309999942779541,-10.178000450134276,0.7940000295639038
1621586525511,-12.880000114440918,13.112000465393066,-10.269000053405762,-0.3919999897480011,-9.970999717712402,0.7509999871253967
1621586525521,-13.159999847412108,15.58199977874756,-9.762999534606934,-0.3529999852180481,-9.770999908447264,0.746999979019165
1621586525531,-13.159999847412108,18.09600067138672,-10.314000129699709,-0.3140000104904174,-9.564000129699709,0.703000009059906
1621586525541,-13.090000152587892,21.47800064086914,-11.352999687194824,-0.3140000104904174,-9.479999542236328,0.6779999732971191
1621586525551,-12.8100004196167,24.933000564575195,-11.597000122070312,-0.2750000059604644,-9.402999877929688,0.6919999718666076
1621586525561,-12.565000534057615,26.832500457763672,-11.688499450683594,-0.2750000059604644,-9.37600040435791,0.5379999876022338
1621586525571,-12.31999969482422,28.73200035095215,-11.779999732971191,-0.1959999948740005,-9.329999923706056,0.5059999823570251
1621586525581,-11.760000228881836,31.790000915527344,-11.383000373840332,-0.1180000007152557,-9.29800033569336,0.5509999990463256
1621586525591,-10.920000076293944,34.63600158691406,-11.80500030517578,-0.0390000008046627,-9.253000259399414,0.5189999938011169
1621586525601,-10.640000343322754,37.17900085449219,-11.711999893188477,0.0,-9.130000114440918,0.5009999871253967
1621586525611,-10.640000343322754,39.46599960327149,-11.380000114440918,0.0390000008046627,-9.085000038146973,0.4690000116825103
1621586525621,-10.43000030517578,41.505001068115234,-11.659999847412108,0.1180000007152557,-9.07800006866455,0.4309999942779541
1621586525631,-10.220000267028809,43.630001068115234,-12.421999931335447,0.2349999994039535,-9.168999671936035,0.4939999878406524
1621586525641,-10.010000228881836,46.03799819946289,-13.98799991607666,0.2750000059604644,-9.201000213623049,0.4490000009536743
1621586525651,-10.010000228881836,48.13899993896485,-14.61299991607666,0.3529999852180481,-9.071000099182127,0.3919999897480011
1621586525661,-10.220000267028809,49.165000915527344,-14.786999702453612,0.5490000247955322,-9.071000099182127,0.3919999897480011
1621586525671,-9.65999984741211,49.821998596191406,-14.885000228881836,0.5490000247955322,-9.109999656677246,0.3849999904632568
1621586525681,-8.890000343322754,51.01800155639648,-16.02400016784668,0.5099999904632568,-9.187000274658203,0.3720000088214874
1621586525691,-7.980000019073486,52.44499969482422,-17.264999389648438,0.5490000247955322,-9.270999908447264,0.3970000147819519
1621586525701,-7.070000171661377,54.118999481201165,-17.893999099731445,0.6280000209808348,-9.432000160217283,0.4079999923706054
1621586525711,-5.739999771118164,56.43899917602539,-18.551000595092773,0.6669999957084655,-9.470999717712402,0.4009999930858612
1621586525721,-3.6400001049041744,58.327999114990234,-18.78700065612793,0.7059999704360961,-9.522999763488768,0.4720000028610229
1621586525731,-1.2599999904632568,60.242000579833984,-19.15999984741211,0.7850000262260437,-9.491000175476074,0.5170000195503234
1621586525741,1.190000057220459,61.929000854492195,-18.64900016784668,0.8629999756813049,-9.406999588012695,0.492000013589859
1621586525751,3.2200000286102295,63.3489990234375,-17.83099937438965,0.9020000100135804,-9.28499984741211,0.4740000069141387
1621586525761,5.809999942779541,64.62200164794922,-17.39299964904785,0.9409999847412108,-9.260000228881836,0.5580000281333923
1621586525771,8.329999923706055,65.3280029296875,-16.558000564575195,0.9409999847412108,-9.30500030517578,0.5899999737739563
1621586525781,9.729999542236328,65.70100402832031,-15.85200023651123,0.981000006198883,-9.260000228881836,0.5580000281333923
1621586525791,11.130000114440918,66.0739974975586,-15.145999908447266,1.0199999809265137,-9.30500030517578,0.5899999737739563
1621586525801,14.420000076293944,66.75900268554688,-14.598999977111816,1.0199999809265137,-9.260000228881836,0.5580000281333923
1621586525811,17.780000686645508,67.29499816894531,-14.006999969482422,1.0199999809265137,-9.29800033569336,0.5509999990463256
1621586525821,20.299999237060547,67.74500274658203,-14.140999794006348,1.0590000152587893,-9.21399974822998,0.5260000228881835
1621586525831,22.959999084472656,68.33300018310547,-14.25100040435791,1.1380000114440918,-9.14400005340576,0.578000009059906
1621586525841,24.850000381469727,68.33699798583984,-14.675999641418455,1.1770000457763672,-9.21399974822998,0.5260000228881835
1621586525851,26.530000686645508,67.97599792480469,-15.451000213623049,1.215999960899353,-9.220999717712402,0.5649999976158142
1621586525861,28.84000015258789,67.33499908447266,-17.05699920654297,1.2940000295639038,-9.30500030517578,0.5899999737739563
1621586525871,31.43000030517578,67.16799926757812,-18.93400001525879,1.3339999914169312,-9.388999938964846,0.615000009536743
1621586525881,33.31999969482422,67.02200317382812,-20.52400016784668,1.4119999408721924,-9.635000228881836,0.6510000228881835
1621586525891,33.810001373291016,65.78500366210938,-19.959999084472656,1.569000005722046,-9.89400005340576,0.7649999856948853
1621586525901,34.439998626708984,63.803001403808594,-19.599000930786133,1.6480000019073486,-10.074999809265137,0.8920000195503234
1621586525911,34.58000183105469,60.992000579833984,-19.382999420166016,1.687000036239624,-10.133999824523926,1.0010000467300415
1621586525921,34.439998626708984,58.19499969482422,-18.027999877929688,1.72599995136261,-10.102999687194824,1.0470000505447388
1621586525931,34.15999984741211,55.79399871826172,-16.106000900268555,1.687000036239624,-10.006999969482422,1.1829999685287476
1621586525941,34.09000015258789,53.06600189208984,-13.531000137329102,1.72599995136261,-9.571000099182127,1.4190000295639038
1621586525950,34.22999954223633,49.04399871826172,-10.472999572753906,1.72599995136261,-9.461999893188477,1.4780000448226929
1621586525960,35.349998474121094,44.06100082397461,-6.802000045776367,1.72599995136261,-9.496000289916992,1.6710000038146973
1621586525970,36.400001525878906,38.14500045776367,-3.0829999446868896,1.6080000400543213,-9.470999717712402,1.75600004196167
1621586525980,38.36000061035156,32.39099884033203,-1.8940000534057615,1.5299999713897705,-9.315999984741213,1.7829999923706057
1621586525990,39.619998931884766,27.33799934387207,-3.069000005722046,1.491000056266785,-9.23900032043457,1.7960000038146973
1621586526000,39.44499969482422,24.85449981689453,-3.294000148773194,1.4509999752044678,-9.336999893188477,1.89900004863739
1621586526010,39.27000045776367,22.371000289916992,-3.5190000534057617,1.4119999408721924,-9.434000015258787,2.000999927520752
1621586526020,36.959999084472656,17.80500030517578,-3.825999975204468,1.3730000257492063,-9.609000205993652,2.0899999141693115
1621586526030,34.58000183105469,12.850000381469728,-4.34499979019165,1.3730000257492063,-9.661999702453612,2.1600000858306885
1621586526040,32.27000045776367,7.35099983215332,-3.3949999809265137,1.3339999914169312,-9.675000190734863,2.236999988555908
1621586526050,29.75,1.037999987602234,-1.4520000219345093,1.2549999952316284,-9.612000465393066,2.328000068664551
1621586526060,27.3700008392334,-5.631999969482422,-0.7089999914169312,1.1770000457763672,-9.45699977874756,2.3550000190734863
1621586526070,25.200000762939453,-12.461000442504885,-0.277999997138977,1.1770000457763672,-9.470999717712402,2.433000087738037
1621586526080,23.170000076293945,-17.84600067138672,-0.375,1.0590000152587893,-9.562000274658203,2.496000051498413
1621586526090,20.719999313354492,-22.954999923706055,-0.4230000078678131,0.9020000100135804,-9.562000274658203,2.496000051498413
1621586526100,18.899999618530273,-27.655000686645508,-1.1799999475479126,0.7850000262260437,-9.574999809265137,2.5739998817443848
1621586526110,16.940000534057617,-31.555999755859375,-1.2280000448226929,0.5879999995231628,-9.638999938964846,2.4830000400543213
1621586526120,15.329999923706056,-36.21500015258789,-0.202000007033348,0.4309999942779541,-9.70300006866455,2.3919999599456787
1621586526130,14.420000076293944,-40.375,1.6239999532699585,0.2750000059604644,-9.527999877929688,2.302999973297119
1621586526140,14.5600004196167,-44.40999984741211,2.3340001106262207,0.1180000007152557,-9.475000381469728,2.2330000400543213
1621586526150,15.050000190734863,-47.1510009765625,3.7699999809265137,-0.0390000008046627,-9.39099979400635,2.2079999446868896
1621586526160,16.799999237060547,-50.34600067138672,5.764999866485596,-0.1959999948740005,-9.300000190734863,2.1440000534057617
1621586526170,18.969999313354492,-52.71799850463867,7.124000072479248,-0.3529999852180481,-9.33899974822998,2.13700008392334
1621586526180,22.1200008392334,-54.67599868774414,8.555999755859375,-0.5099999904632568,-9.241000175476074,2.0350000858306885
1621586526190,25.479999542236328,-56.367000579833984,9.678999900817873,-0.6280000209808348,-9.104999542236328,1.940000057220459
1621586526200,28.350000381469727,-56.992000579833984,9.994999885559082,-0.7850000262260437,-8.904999732971191,1.934999942779541
1621586526210,29.854999542236328,-57.21849822998047,10.878999710083008,-0.8629999756813049,-8.788999557495117,1.955000042915344
1621586526220,31.36000061035156,-57.44499969482422,11.762999534606934,-0.9020000100135804,-8.88700008392334,2.058000087738037
1621586526230,34.86000061035156,-58.0369987487793,13.506999969482422,-1.0199999809265137,-9.32800006866455,2.299000024795532
1621586526240,37.79999923706055,-58.560001373291016,15.262999534606934,-1.0199999809265137,-9.824999809265137,2.4100000858306885
1621586526250,37.59000015258789,-59.07500076293945,17.375999450683594,-1.0199999809265137,-10.199999809265137,2.503000020980835
1621586526260,35.630001068115234,-59.19200134277344,20.055999755859375,-1.0199999809265137,-10.472999572753906,2.694000005722046
1621586526270,32.619998931884766,-59.33000183105469,22.448999404907227,-1.0590000152587893,-10.447999954223633,2.7780001163482666
1621586526280,28.559999465942383,-60.042999267578125,23.67300033569336,-1.0590000152587893,-10.33899974822998,2.836999893188477
1621586526290,23.59000015258789,-59.8849983215332,23.986000061035156,-1.0199999809265137,-10.121000289916992,2.9549999237060547
1621586526300,18.899999618530273,-59.94200134277344,23.90399932861328,-0.981000006198883,-9.888999938964846,2.996000051498413
1621586526310,15.329999923706056,-59.59299850463867,23.538999557495117,-1.0199999809265137,-9.817999839782717,3.049000024795532
1621586526320,12.31999969482422,-59.03300094604492,23.993000030517575,-0.981000006198883,-9.779999732971191,3.055000066757202
1621586526330,9.3100004196167,-59.220001220703125,25.45299911499023,-0.981000006198883,-9.779999732971191,3.055000066757202
1621586526340,5.739999771118164,-60.21699905395508,26.27300071716309,-0.9409999847412108,-9.88199996948242,2.9579999446868896
1621586526350,1.5399999618530271,-61.275001525878906,26.22800064086914,-0.9409999847412108,-9.822999954223633,2.8489999771118164
1621586526360,-2.799999952316284,-62.09000015258789,27.222000122070312,-0.9020000100135804,-9.732000350952148,2.7850000858306885
1621586526370,-5.670000076293945,-63.180999755859375,28.16699981689453,-0.8240000009536743,-9.564000129699709,2.734999895095825
1621586526380,-7.980000019073486,-65.2490005493164,27.802000045776367,-0.7850000262260437,-9.402999877929688,2.7239999771118164
1621586526390,-9.239999771118164,-66.6719970703125,27.409000396728516,-0.6280000209808348,-9.300000190734863,2.821000099182129
1621586526400,-9.869999885559082,-68.10800170898438,27.084999084472656,-0.5099999904632568,-9.314000129699709,2.8989999294281006
1621586526410,-10.359999656677246,-69.41400146484375,27.63599967956543,-0.3919999897480011,-9.25699996948242,3.0280001163482666
1621586526420,-10.395000457763672,-70.44149780273438,28.02349853515625,-0.2750000059604644,-9.07800006866455,3.138999938964844
1621586526430,-10.43000030517578,-71.46900177001953,28.410999298095703,-0.1959999948740005,-8.83899974822998,3.1419999599456787
1621586526440,-10.359999656677246,-74.10099792480469,29.22699928283691,-0.0780000016093254,-8.737000465393066,3.239000082015991
1621586526450,-10.710000038146973,-77.23500061035156,30.87700080871582,0.0,-8.904999732971191,3.2890000343322754
1621586526460,-10.43000030517578,-81.0260009765625,32.625999450683594,0.0390000008046627,-9.350000381469728,3.3299999237060547
1621586526470,-10.220000267028809,-84.6760025024414,33.97200012207031,0.0780000016093254,-9.725000381469728,3.4230000972747803
1621586526480,-9.9399995803833,-88.15499877929688,35.5620002746582,0.0390000008046627,-9.96399974822998,3.4210000038146973
1621586526490,-9.449999809265137,-91.43499755859376,36.832000732421875,0.0390000008046627,-10.131999969482422,3.4709999561309814
1621586526500,-9.869999885559082,-94.37899780273438,37.805999755859375,0.0,-10.177000045776367,3.503000020980835
1621586526510,-11.130000114440918,-97.01399993896484,39.047000885009766,-0.0390000008046627,-9.932000160217283,3.4670000076293945
1621586526520,-13.579999923706056,-99.54000091552734,40.875999450683594,-0.0390000008046627,-9.5,3.503000020980835
1621586526530,-15.68000030517578,-101.56400299072266,40.6609992980957,-0.1180000007152557,-9.107000350952148,3.5320000648498535
1621586526540,-17.56999969482422,-102.8489990234375,40.292999267578125,-0.0780000016093254,-8.875,3.572999954223633
1621586526550,-19.11000061035156,-103.20600128173828,39.09199905395508,-0.1570000052452087,-8.706999778747559,3.5230000019073486
1621586526560,-19.739999771118164,-102.63099670410156,36.6349983215332,-0.2349999994039535,-8.668000221252441,3.5299999713897705
1621586526570,-19.18000030517578,-101.53199768066406,34.8380012512207,-0.2750000059604644,-8.73900032043457,3.4779999256134033
1621586526580,-18.40999984741211,-100.09300231933594,33.52799987792969,-0.3140000104904174,-8.777999877929688,3.4709999561309814
1621586526590,-17.639999389648438,-98.54000091552734,32.38100051879883,-0.3529999852180481,-8.925000190734863,3.4049999713897705
1621586526600,-17.709999084472656,-96.56099700927734,31.23699951171875,-0.3140000104904174,-9.034000396728516,3.3459999561309814
1621586526610,-18.34000015258789,-94.74500274658205,31.415000915527344,-0.2750000059604644,-9.182000160217283,3.2799999713897705
1621586526620,-18.479999542236328,-93.87100219726562,31.498001098632812,-0.2750000059604644,-9.182000160217283,3.2799999713897705
1621586526630,-18.6200008392334,-92.99700164794922,31.58099937438965,-0.2349999994039535,-9.220999717712402,3.2730000019073486
1621586526640,-19.040000915527344,-91.30599975585936,31.666000366210938,-0.2750000059604644,-9.336999893188477,3.253000020980835
1621586526650,-19.25,-88.94599914550781,30.375999450683594,-0.2750000059604644,-9.512000083923342,3.3420000076293945
1621586526660,-18.690000534057617,-86.93499755859375,29.451000213623047,-0.2349999994039535,-9.58899974822998,3.328000068664551
1621586526670,-18.200000762939453,-84.91999816894531,28.10099983215332,-0.1959999948740005,-9.595999717712402,3.3670001029968266
1621586526680,-17.43000030517578,-82.92500305175781,26.461999893188477,-0.1959999948740005,-9.512000083923342,3.3420000076293945
1621586526690,-16.8700008392334,-81.23799896240233,24.555999755859375,-0.1570000052452087,-9.564000129699709,3.4119999408721924
1621586526700,-16.170000076293945,-79.69000244140625,22.625999450683594,-0.1180000007152557,-9.692999839782717,3.4690001010894775
1621586526710,-15.329999923706056,-77.62200164794922,20.573999404907227,-0.1180000007152557,-9.847999572753906,3.441999912261963
1621586526720,-14.699999809265137,-75.99600219726562,20.22100067138672,-0.0780000016093254,-9.970999717712402,3.4600000381469727
1621586526730,-14.350000381469728,-74.73100280761719,20.302000045776367,-0.0390000008046627,-10.086000442504885,3.438999891281128
1621586526740,-15.050000190734863,-73.69300079345702,20.058000564575195,-0.0390000008046627,-10.189000129699709,3.3420000076293945
1621586526750,-16.309999465942383,-73.01499938964844,20.249000549316406,-0.0390000008046627,-10.220999717712402,3.2960000038146973
1621586526760,-18.479999542236328,-72.07099914550781,20.131000518798828,-0.0390000008046627,-10.07699966430664,3.1619999408721924
1621586526770,-21.280000686645508,-71.27200317382812,19.631999969482425,-0.0780000016093254,-9.947999954223633,3.1050000190734863
1621586526780,-24.010000228881836,-70.37999725341797,19.006999969482425,-0.0780000016093254,-9.850000381469728,3.003000020980835
1621586526790,-26.809999465942383,-69.08200073242188,18.099000930786133,-0.0780000016093254,-9.692999839782717,2.7920000553131104
1621586526800,-29.75,-67.94300079345703,16.878000259399414,-0.1180000007152557,-9.57800006866455,2.812000036239624
1621586526810,-31.709999084472656,-66.47899627685547,15.43000030517578,-0.1570000052452087,-9.517999649047852,2.703000068664551
1621586526820,-33.25,-64.52100372314453,13.99899959564209,-0.1959999948740005,-9.465999603271484,2.6329998970031734
1621586526830,-33.80999755859375,-63.67550277709961,13.437000274658203,-0.1959999948740005,-9.406999588012695,2.5239999294281006
1621586526840,-34.369998931884766,-62.83000183105469,12.875,-0.2349999994039535,-9.263999938964846,2.390000104904175
1621586526850,-35.41999816894531,-60.9119987487793,12.076000213623049,-0.2750000059604644,-9.128000259399414,2.2939999103546143
1621586526860,-36.540000915527344,-58.512001037597656,11.362000465393066,-0.3140000104904174,-8.991000175476074,2.1989998817443848
1621586526870,-37.380001068115234,-56.54499816894531,10.286999702453612,-0.3140000104904174,-8.88700008392334,2.058000087738037
1621586526880,-38.0099983215332,-54.63199996948242,8.706000328063965,-0.3529999852180481,-8.98900032043457,1.9600000381469729
1621586526890,-37.939998626708984,-52.18299865722656,7.7160000801086435,-0.3919999897480011,-9.61400032043457,1.8899999856948853
1621586526900,-37.310001373291016,-49.92399978637695,6.195000171661377,-0.4309999942779541,-10.154999732971191,1.7940000295639038
1621586526910,-35.630001068115234,-47.57699966430664,4.973999977111816,-0.4309999942779541,-9.824999809265137,1.7330000400543213
1621586526920,-33.459999084472656,-45.26100158691406,4.743000030517578,-0.3919999897480011,-9.503000259399414,1.7100000381469729
1621586526930,-31.219999313354492,-43.78499984741211,3.2260000705718994,-0.4309999942779541,-9.39400005340576,1.7690000534057615
1621586526940,-30.030000686645508,-42.82099914550781,0.9789999723434448,-0.5099999904632568,-9.263999938964846,1.712000012397766
1621586526950,-30.520000457763672,-41.26300048828125,3.0309998989105225,-0.5099999904632568,-8.987000465393066,1.7209999561309814
1621586526960,-30.59000015258789,-40.15999984741211,4.434000015258789,-0.5490000247955322,-8.826000213623047,1.7100000381469729
1621586526970,-30.239999771118164,-38.84600067138672,3.0299999713897705,-0.5879999995231628,-8.70300006866455,1.6920000314712524
1621586526980,-30.100000381469727,-37.5369987487793,3.260999917984009,-0.6669999957084655,-8.812000274658203,1.6330000162124634
1621586526990,-29.329999923706055,-36.23500061035156,4.343999862670898,-0.7450000047683715,-9.029999732971191,1.5149999856948853
1621586527000,-27.719999313354492,-35.428001403808594,4.202000141143799,-0.7850000262260437,-9.26900005340576,1.5119999647140503
1621586527010,-25.969999313354492,-34.9010009765625,4.436999797821045,-0.8240000009536743,-9.468999862670898,1.5169999599456787
1621586527020,-25.40999984741211,-34.38199996948242,4.315000057220459,-0.8629999756813049,-9.609999656677246,1.4119999408721924
1621586527030,-25.584999084472656,-34.05550003051758,3.875,-0.9020000100135804,-9.75699996948242,1.3470000028610227
1621586527040,-25.760000228881836,-33.729000091552734,3.434999942779541,-0.9409999847412108,-9.781999588012695,1.2630000114440918
1621586527050,-26.670000076293945,-32.57699966430664,2.1459999084472656,-0.981000006198883,-9.807000160217283,1.1779999732971191
1621586527060,-28.13999938964844,-30.940000534057617,0.5149999856948853,-0.981000006198883,-9.871000289916992,1.0880000591278076
1621586527070,-29.81999969482422,-29.090999603271484,-1.5039999485015867,-0.981000006198883,-10.01200008392334,0.9829999804496764
1621586527080,-30.940000534057617,-27.076000213623047,-2.8550000190734863,-0.981000006198883,-9.972999572753906,0.9900000095367432
1621586527090,-30.65999984741211,-25.63999938964844,-3.739000082015991,-0.981000006198883,-9.928000450134276,0.9580000042915344
1621586527100,-29.61000061035156,-24.31800079345703,-4.785999774932861,-0.9409999847412108,-9.812000274658203,0.977999985218048
1621586527110,-27.93000030517578,-22.902999877929688,-5.958000183105469,-0.9409999847412108,-9.76599979400635,0.9470000267028807
1621586527120,-26.18000030517578,-21.775999069213867,-5.901000022888184,-0.9020000100135804,-9.829999923706056,0.856000006198883
1621586527130,-24.989999771118164,-20.625,-5.98199987411499,-0.8629999756813049,-9.875,0.8880000114440918
1621586527140,-23.100000381469727,-19.22100067138672,-5.876999855041504,-0.8240000009536743,-9.843999862670898,0.9330000281333924
1621586527150,-21.0,-17.85099983215332,-5.991000175476074,-0.7850000262260437,-9.812000274658203,0.977999985218048
1621586527160,-18.760000228881836,-17.06800079345703,-5.994999885559082,-0.7850000262260437,-9.682000160217283,0.921999990940094
1621586527170,-16.799999237060547,-16.204999923706055,-6.056000232696533,-0.7850000262260437,-9.597999572753906,0.8970000147819519
1621586527180,-15.329999923706056,-15.081000328063965,-6.7820000648498535,-0.7450000047683715,-9.527999877929688,0.9490000009536744
1621586527190,-13.789999961853027,-13.57699966430664,-7.65399980545044,-0.7850000262260437,-9.482000350952148,0.9169999957084656
1621586527200,-12.529999732971191,-12.116999626159668,-7.467999935150147,-0.7850000262260437,-9.404999732971191,0.930999994277954
1621586527210,-11.270000457763672,-11.010000228881836,-7.698999881744384,-0.7450000047683715,-9.288999557495115,0.9509999752044676
1621586527220,-10.149999618530272,-10.215999603271484,-8.979999542236328,-0.7450000047683715,-9.128000259399414,0.9399999976158142
1621586527230,-9.975000381469728,-9.660499572753906,-9.308500289916992,-0.7450000047683715,-9.01900005340576,0.9990000128746032
1621586527240,-9.800000190734863,-9.104999542236328,-9.637000083923342,-0.7059999704360961,-9.057000160217283,0.9919999837875366
1621586527250,-9.380000114440918,-8.079000473022461,-11.020000457763672,-0.6280000209808348,-8.979999542236328,1.00600004196167
1621586527260,-9.520000457763674,-6.952000141143799,-12.171999931335447,-0.6280000209808348,-8.871000289916992,1.065000057220459
1621586527270,-9.239999771118164,-5.760000228881836,-12.88599967956543,-0.5490000247955322,-8.86400032043457,1.0260000228881836
1621586527280,-9.029999732971191,-4.150000095367432,-13.953000068664553,-0.5490000247955322,-8.994000434875488,1.0829999446868896
1621586527290,-8.399999618530273,-2.4590001106262207,-13.868000030517578,-0.5099999904632568,-9.038999557495115,1.1150000095367432
1621586527300,-7.349999904632568,-0.8780000209808348,-13.161999702453612,-0.4709999859333038,-9.168999671936035,1.1720000505447388
1621586527310,-6.300000190734863,0.4359999895095825,-12.14900016784668,-0.3919999897480011,-9.329999923706056,1.1829999685287476
1621586527320,-5.25,1.0449999570846558,-10.76200008392334,-0.4309999942779541,-9.413999557495115,1.2079999446868896
1621586527330,-3.9200000762939458,1.4259999990463257,-8.491000175476074,-0.3529999852180481,-9.58199977874756,1.2580000162124634
1621586527340,-2.450000047683716,1.8079999685287476,-6.2210001945495605,-0.3919999897480011,-9.491000175476074,1.194000005722046
1621586527350,-0.209999993443489,1.3209999799728394,-3.4630000591278076,-0.3919999897480011,-9.45300006866455,1.2009999752044678
1621586527360,0.2800000011920929,0.8519999980926513,0.0080000003799796,-0.4309999942779541,-9.460000038146973,1.2400000095367432
1621586527370,0.4199999868869781,-0.1739999949932098,3.8080000877380367,-0.4309999942779541,-9.38199996948242,1.253000020980835
1621586527380,0.2800000011920929,-1.559999942779541,8.041000366210938,-0.5099999904632568,-9.336999893188477,1.2220000028610227
1621586527390,-0.3499999940395355,-2.8450000286102295,11.29800033569336,-0.6280000209808348,-9.201000213623049,1.1260000467300415
1621586527400,-0.6299999952316284,-3.9189999103546143,12.956000328063965,-0.7450000047683715,-9.20699977874756,1.1649999618530271
1621586527410,-1.6799999475479126,-4.544000148773193,13.27299976348877,-0.7850000262260437,-9.277999877929688,1.1119999885559082
1621586527420,-3.0799999237060547,-5.144000053405762,12.243000030517578,-0.9409999847412108,-9.380000114440918,1.0149999856948853
1621586527430,-4.340000152587891,-5.728000164031982,11.927000045776367,-1.0590000152587893,-9.418999671936035,1.0080000162124634
1621586527440,-5.809999942779541,-6.684999942779541,12.11299991607666,-1.1770000457763672,-9.47599983215332,0.8780000209808348
1621586527450,-6.510000228881836,-6.936500072479248,11.322500228881836,-1.215999960899353,-9.57800006866455,0.781000018119812
1621586527460,-7.210000038146973,-7.188000202178955,10.531999588012695,-1.2940000295639038,-9.763999938964846,0.7080000042915344
1621586527470,-9.3100004196167,-7.281000137329101,9.449000358581545,-1.3339999914169312,-9.982000350952148,0.5899999737739563
1621586527480,-11.199999809265137,-7.947000026702882,7.980999946594238,-1.3339999914169312,-10.199999809265137,0.4720000028610229
1621586527490,-11.829999923706056,-7.861999988555909,6.289999961853027,-1.3339999914169312,-10.425000190734863,0.3919999897480011
1621586527500,-12.600000381469728,-7.550000190734864,4.923999786376953,-1.3730000257492063,-10.644000053405762,0.2739999890327453
1621586527510,-13.159999847412108,-7.723999977111816,3.8980000019073486,-1.3730000257492063,-10.829999923706056,0.2010000050067901
1621586527520,-13.020000457763672,-7.793000221252441,2.677000045776367,-1.3730000257492063,-10.71399974822998,0.2220000028610229
1621586527530,-13.300000190734863,-7.708000183105469,2.194999933242798,-1.3730000257492063,-10.506999969482422,0.1790000051259994
1621586527540,-13.369999885559082,-7.922999858856201,1.8020000457763672,-1.4119999408721924,-10.385000228881836,0.1609999984502792
1621586527550,-13.369999885559082,-8.53600025177002,0.8410000205039978,-1.4509999752044678,-10.255000114440918,0.1040000021457672
1621586527560,-13.510000228881836,-8.357000350952148,0.2319999933242797,-1.4509999752044678,-10.11400032043457,0.2080000042915344
1621586527570,-13.159999847412108,-7.842000007629395,-0.6719999909400939,-1.4509999752044678,-9.92099952697754,0.2419999986886978
1621586527580,-11.829999923706056,-7.4089999198913565,-1.5199999809265137,-1.4119999408721924,-9.696000099182127,0.3219999969005584
1621586527590,-10.289999961853027,-6.111000061035156,-2.427999973297119,-1.3730000257492063,-9.45699977874756,0.3240000009536743
1621586527600,-8.1899995803833,-5.210999965667725,-5.11299991607666,-1.3730000257492063,-9.22599983215332,0.3650000095367431
1621586527610,-5.880000114440918,-3.947000026702881,-7.447999954223632,-1.2940000295639038,-9.109999656677246,0.3849999904632568
1621586527619,-4.269999980926514,-2.4260001182556152,-8.8149995803833,-1.215999960899353,-9.031999588012695,0.3989999890327453
1621586527629,-3.009999990463257,-0.6990000009536743,-10.145000457763672,-1.1380000114440918,-9.085000038146973,0.4690000116825103
1621586527639,-1.6799999475479126,0.4690000116825103,-10.720999717712402,-1.0199999809265137,-9.161999702453612,0.4560000002384185
1621586527649,-0.4900000095367431,1.462000012397766,-11.114999771118164,-0.981000006198883,-9.20699977874756,0.4880000054836273
1621586527659,0.9100000262260436,1.888000011444092,-12.319000244140623,-0.8629999756813049,-9.28499984741211,0.4740000069141387
1621586527669,1.1200000047683716,2.5320000648498535,-13.555999755859377,-0.7450000047683715,-9.329999923706056,0.5059999823570251
1621586527679,0.875,2.876999855041504,-14.099499702453612,-0.6669999957084655,-9.446000099182127,0.4850000143051147
1621586527689,0.6299999952316284,3.2219998836517334,-14.642999649047852,-0.5490000247955322,-9.607000350952148,0.4970000088214874
1621586527699,-0.209999993443489,3.4690001010894775,-14.031000137329102,-0.3919999897480011,-9.845999717712402,0.4939999878406524
1621586527709,-0.3499999940395355,3.23799991607666,-12.720999717712402,-0.3140000104904174,-10.085000038146973,0.492000013589859
1621586527719,-0.4199999868869781,1.937000036239624,-11.38700008392334,-0.1570000052452087,-10.053000450134276,0.5379999876022338
1621586527729,-0.4199999868869781,0.0189999993890523,-10.588000297546388,-0.0390000008046627,-10.053000450134276,0.5379999876022338
1621586527739,-0.5600000023841857,-2.864000082015991,-9.958999633789062,0.0390000008046627,-10.13700008392334,0.5630000233650208
1621586527749,-1.2599999904632568,-5.718999862670898,-8.6850004196167,0.0780000016093254,-10.20699977874756,0.5099999904632568
1621586527759,-2.5899999141693115,-9.076000213623049,-7.7839999198913565,0.1180000007152557,-10.284999847412108,0.4970000088214874
1621586527769,-3.7100000381469727,-12.953000068664553,-6.76200008392334,0.1570000052452087,-10.253000259399414,0.5419999957084655
1621586527779,-4.760000228881836,-16.533000946044922,-5.4029998779296875,0.1180000007152557,-10.175000190734863,0.5559999942779541
1621586527789,-5.460000038146973,-19.94300079345703,-5.008999824523926,0.0780000016093254,-10.0600004196167,0.5759999752044677
1621586527799,-5.809999942779541,-22.46500015258789,-4.814000129699707,0.0,-9.944000244140623,0.597000002861023
1621586527809,-6.579999923706055,-24.825000762939453,-4.732999801635742,-0.1180000007152557,-9.878000259399414,0.4490000009536743
1621586527819,-7.280000209808349,-26.750999450683594,-4.290999889373779,-0.1959999948740005,-9.722999572753906,0.4760000109672546
1621586527829,-7.9099998474121085,-28.29599952697754,-3.9939999580383305,-0.2349999994039535,-9.628000259399414,0.6129999756813049
1621586527839,-8.819999694824219,-29.326000213623047,-3.3940000534057617,-0.2750000059604644,-9.543999671936035,0.5879999995231628
1621586527849,-9.449999809265137,-30.525999069213867,-3.0369999408721924,-0.3529999852180481,-9.543999671936035,0.5879999995231628
1621586527859,-10.289999961853027,-31.163000106811523,-2.6519999504089355,-0.4709999859333038,-9.536999702453612,0.5490000247955322
1621586527869,-10.710000038146973,-31.40999984741211,-2.055999994277954,-0.4309999942779541,-9.562000274658203,0.4650000035762786
1621586527879,-11.130000114440918,-31.795000076293945,-1.4839999675750732,-0.5490000247955322,-9.446000099182127,0.4850000143051147
1621586527889,-11.199999809265137,-31.38999938964844,-1.7680000066757202,-0.6669999957084655,-9.484999656677246,0.4790000021457672
1621586527899,-10.850000381469728,-31.106000900268555,-2.571000099182129,-0.7059999704360961,-9.446000099182127,0.4850000143051147
1621586527909,-10.360000610351562,-30.516000747680664,-2.8930001258850098,-0.7059999704360961,-9.45300006866455,0.5239999890327453
1621586527919,-9.869999885559082,-29.926000595092773,-3.2149999141693115,-0.7450000047683715,-9.460000038146973,0.5630000233650208
1621586527929,-8.470000267028809,-28.856000900268555,-4.447999954223633,-0.7059999704360961,-9.45300006866455,0.5239999890327453
1621586527939,-7.139999866485596,-27.60300064086914,-5.506999969482422,-0.7059999704360961,-9.536999702453612,0.5490000247955322
1621586527949,-5.110000133514404,-26.589000701904297,-5.611999988555908,-0.7450000047683715,-9.529999732971191,0.5099999904632568
1621586527959,-3.430000066757202,-25.413000106811523,-5.831999778747559,-0.7450000047683715,-9.543999671936035,0.5879999995231628
1621586527969,-1.3300000429153442,-24.549999237060547,-5.89300012588501,-0.7450000047683715,-9.543999671936035,0.5879999995231628
1621586527979,0.5600000023841857,-23.743000030517575,-6.034999847412109,-0.7450000047683715,-9.58199977874756,0.5809999704360961
1621586527989,2.450000047683716,-23.06599998474121,-5.843999862670898,-0.7450000047683715,-9.58199977874756,0.5809999704360961
1621586527999,4.340000152587891,-22.121000289916992,-5.961999893188477,-0.7450000047683715,-9.58199977874756,0.5809999704360961
1621586528009,5.739999771118164,-21.27300071716309,-5.5279998779296875,-0.7450000047683715,-9.628000259399414,0.6129999756813049
1621586528019,6.929999828338623,-20.527000427246097,-5.324999809265137,-0.7450000047683715,-9.635000228881836,0.6510000228881835
1621586528029,8.119999885559082,-19.395999908447266,-5.695000171661377,-0.7850000262260437,-9.666000366210936,0.606000006198883
1621586528039,8.819999694824219,-18.38599967956543,-6.583000183105469,-0.8240000009536743,-9.68000030517578,0.6830000281333923
1621586528049,9.3100004196167,-17.08099937438965,-7.133999824523926,-0.8240000009536743,-9.718999862670898,0.6759999990463256
1621586528059,9.520000457763674,-15.583999633789064,-7.15500020980835,-0.8240000009536743,-9.75699996948242,0.6690000295639038
1621586528069,9.239999771118164,-14.156999588012695,-7.188000202178955,-0.8240000009536743,-9.75699996948242,0.6690000295639038
1621586528079,8.539999961853027,-12.753999710083008,-7.081999778747559,-0.7850000262260437,-9.803000450134276,0.7009999752044677
1621586528089,7.559999942779541,-11.258000373840332,-7.103000164031982,-0.7850000262260437,-9.8100004196167,0.740000009536743
1621586528099,6.440000057220459,-10.19499969482422,-7.484000205993653,-0.7450000047683715,-9.847999572753906,0.7329999804496765
1621586528109,4.900000095367432,-8.864999771118164,-6.965000152587891,-0.7450000047683715,-9.887000083923342,0.7260000109672546
1621586528119,3.7100000381469727,-7.980999946594238,-6.73799991607666,-0.7450000047683715,-9.932000160217283,0.7580000162124633
1621586528129,3.184999942779541,-7.488499641418457,-6.508999824523926,-0.7059999704360961,-9.96399974822998,0.7129999995231628
1621586528139,2.6600000858306885,-6.995999813079834,-6.28000020980835,-0.7059999704360961,-9.932000160217283,0.7580000162124633
1621586528149,1.6100000143051147,-5.998000144958496,-5.890999794006348,-0.7450000047683715,-9.862000465393066,0.8100000023841857
1621586528159,1.0499999523162842,-4.583000183105469,-5.855000019073486,-0.7059999704360961,-9.78499984741211,0.8240000009536743
1621586528169,0.2800000011920929,-3.986999988555908,-5.60699987411499,-0.7059999704360961,-9.746000289916992,0.8309999704360961
1621586528179,-0.2800000011920929,-3.0420000553131104,-5.724999904632568,-0.7059999704360961,-9.70699977874756,0.8379999995231628
1621586528189,-0.1400000005960464,-2.190000057220459,-5.7170000076293945,-0.6669999957084655,-9.70699977874756,0.8379999995231628
1621586528199,0.4199999868869781,-1.3270000219345093,-5.7779998779296875,-0.6280000209808348,-9.70699977874756,0.8379999995231628
1621586528209,0.3499999940395355,-1.4160000085830688,-6.078000068664551,-0.5879999995231628,-9.70699977874756,0.8379999995231628
1621586528219,0.6299999952316284,-1.2779999971389773,-6.053999900817871,-0.5490000247955322,-9.668999671936035,0.8439999818801879
1621586528229,0.9100000262260436,-1.850000023841858,-6.439000129699707,-0.5490000247955322,-9.668999671936035,0.8439999818801879
1621586528239,1.8899999856948853,-2.515000104904175,-6.697999954223633,-0.5490000247955322,-9.654999732971191,0.7670000195503234
1621586528249,2.309999942779541,-3.503999948501587,-6.730999946594238,-0.5879999995231628,-9.630000114440918,0.8510000109672546
1621586528259,2.7300000190734863,-4.315999984741211,-7.370999813079834,-0.5490000247955322,-9.597999572753906,0.8970000147819519
1621586528269,3.569999933242798,-4.7129998207092285,-7.939000129699707,-0.5490000247955322,-9.590999603271484,0.8579999804496765
1621586528279,3.849999904632568,-4.802000045776367,-8.23900032043457,-0.5490000247955322,-9.5600004196167,0.902999997138977
1621586528289,4.059999942779541,-4.947999954223633,-8.619999885559082,-0.5879999995231628,-9.5600004196167,0.902999997138977
1621586528299,4.550000190734863,-5.038000106811523,-8.920000076293945,-0.5879999995231628,-9.637000083923342,0.8899999856948853
1621586528309,4.829999923706055,-4.943999767303467,-9.04599952697754,-0.5879999995231628,-9.64400005340576,0.9279999732971193
1621586528319,5.320000171661377,-4.449999809265137,-9.029999732971191,-0.5879999995231628,-9.612000465393066,0.9739999771118164
1621586528329,6.090000152587891,-3.747999906539917,-8.97700023651123,-0.6280000209808348,-9.579999923706056,1.0190000534057615
1621586528339,6.159999847412109,-3.0220000743865967,-9.062000274658203,-0.6280000209808348,-9.625,1.0509999990463257
1621586528349,6.230000019073486,-2.3489999771118164,-8.446000099182129,-0.6669999957084655,-9.649999618530272,0.9670000076293944
1621586528359,6.090000152587891,-0.8730000257492065,-7.546000003814697,-0.6280000209808348,-9.656999588012695,1.00600004196167
1621586528369,5.670000076293945,-0.6030000448226928,-6.859000205993652,-0.5879999995231628,-9.656999588012695,1.00600004196167
1621586528379,5.25,-0.3330000042915344,-6.171999931335449,-0.6280000209808348,-9.748000144958496,1.069000005722046
1621586528389,5.039999961853027,-0.2360000014305114,-4.306000232696533,-0.6280000209808348,-9.824999809265137,1.055999994277954
1621586528399,4.480000019073486,-0.0689999982714653,-3.63700008392334,-0.6280000209808348,-9.793999671936035,1.10099995136261
1621586528409,4.480000019073486,0.4370000064373016,-3.690000057220459,-0.6280000209808348,-9.793999671936035,1.10099995136261
1621586528419,3.990000009536743,0.8389999866485595,-3.5480000972747803,-0.5879999995231628,-9.800000190734863,1.1399999856948853
1621586528429,4.199999809265137,1.0499999523162842,-2.7290000915527344,-0.5490000247955322,-9.800000190734863,1.1399999856948853
1621586528439,3.7799999713897705,0.4819999933242797,-2.3320000171661377,-0.5490000247955322,-9.722999572753906,1.1529999971389773
1621586528449,3.849999904632568,-0.2560000121593475,-2.177000045776367,-0.5490000247955322,-9.638999938964846,1.128000020980835
1621586528459,3.5,-1.3259999752044678,-2.1530001163482666,-0.5879999995231628,-9.6850004196167,1.1599999666213987
1621586528469,3.7100000381469727,-2.006999969482422,-1.9179999828338623,-0.5879999995231628,-9.645999908447264,1.1670000553131104
1621586528479,3.849999904632568,-1.9950000047683716,-1.986999988555908,-0.6669999957084655,-9.645999908447264,1.1670000553131104
1621586528489,3.7799999713897705,-2.6600000858306885,-2.246000051498413,-0.7450000047683715,-9.6850004196167,1.1599999666213987
1621586528499,3.359999895095825,-3.200000047683716,-2.4119999408721924,-0.7450000047683715,-9.715999603271484,1.1150000095367432
1621586528509,2.799999952316284,-3.2200000286102295,-2.700000047683716,-0.7850000262260437,-9.762000083923342,1.1469999551773071
1621586528519,2.0299999713897705,-3.378000020980835,-3.01200008392334,-0.7850000262260437,-9.800000190734863,1.1399999856948853
1621586528529,1.4700000286102295,-3.5360000133514404,-3.325000047683716,-0.7850000262260437,-9.762000083923342,1.1469999551773071
1621586528539,0.7699999809265136,-3.2320001125335693,-3.839999914169311,-0.8240000009536743,-9.800000190734863,1.1399999856948853
1621586528549,0.4199999868869781,-2.1700000762939453,-4.2210001945495605,-0.8240000009536743,-9.762000083923342,1.1469999551773071
1621586528559,0.7699999809265136,-1.930999994277954,-5.173999786376953,-0.8629999756813049,-9.6850004196167,1.1599999666213987
1621586528569,0.5600000023841857,-1.8580000400543213,-5.5879998207092285,-0.8629999756813049,-9.6850004196167,1.1599999666213987
1621586528579,0.4900000095367431,-1.2899999618530271,-5.985000133514404,-0.8629999756813049,-9.678000450134276,1.121999979019165
1621586528589,0.4549999833106994,-1.1399999856948853,-6.0295000076293945,-0.8629999756813049,-9.722999572753906,1.1529999971389773
1621586528599,0.4199999868869781,-0.9900000095367432,-6.073999881744385,-0.8240000009536743,-9.678000450134276,1.121999979019165
1621586528609,0.209999993443489,-0.4230000078678131,-6.4720001220703125,-0.8240000009536743,-9.6850004196167,1.1599999666213987
1621586528619,0.3499999940395355,-0.2479999959468841,-6.6539998054504395,-0.7850000262260437,-9.6850004196167,1.1599999666213987
1621586528629,0.3499999940395355,0.8220000267028807,-6.678999900817871,-0.7450000047683715,-9.722999572753906,1.1529999971389773
1621586528639,0.4199999868869781,0.6800000071525573,-6.2769999504089355,-0.7059999704360961,-9.722999572753906,1.1529999971389773
1621586528649,0.209999993443489,0.7129999995231628,-6.058000087738037,-0.6280000209808348,-9.6850004196167,1.1599999666213987
1621586528659,0.6299999952316284,1.0210000276565552,-5.790999889373779,-0.6280000209808348,-9.638999938964846,1.128000020980835
1621586528669,0.8399999737739563,1.1909999847412107,-5.546999931335449,-0.6280000209808348,-9.600000381469728,1.1349999904632568
1621586528679,1.5399999618530271,1.1469999551773071,-5.697000026702881,-0.5879999995231628,-9.607000350952148,1.1740000247955322
