timestamp,gyro_x,gyro_y,gyro_z,acc_x,acc_y,acc_z
1622101948845,0.0,0.0,0.0,0.0,0.0,0.0
1622101949494,-1.399999976158142,3.186000108718872,-5.978000164031982,0.4709999859333038,-9.79800033569336,-0.453000009059906
1622101949504,-1.6799999475479126,3.499000072479248,-6.136000156402588,0.4709999859333038,-9.79800033569336,-0.453000009059906
1622101949514,-1.6799999475479126,3.486000061035156,-6.066999912261963,0.4709999859333038,-9.727999687194824,-0.4009999930858612
1622101949524,-1.75,3.7300000190734863,-6.236999988555908,0.4709999859333038,-9.675999641418455,-0.4709999859333038
1622101949534,-1.6799999475479126,3.8310000896453857,-6.00600004196167,0.4309999942779541,-9.720999717712402,-0.4390000104904174
1622101949544,-1.8899999856948853,4.01800012588501,-6.256999969482422,0.4709999859333038,-9.767000198364256,-0.4079999923706054
1622101949554,-1.75,4.252999782562256,-6.784999847412109,0.4709999859333038,-9.71399974822998,-0.4779999852180481
1622101949564,-2.0299999713897705,4.046000003814697,-6.821000099182129,0.4309999942779541,-9.720999717712402,-0.4390000104904174
1622101949574,-1.8200000524520872,4.241000175476074,-6.716000080108643,0.4309999942779541,-9.760000228881836,-0.4460000097751617
1622101949584,-1.8899999856948853,4.5370001792907715,-6.379000186920166,0.4309999942779541,-9.753000259399414,-0.4850000143051147
1622101949594,-2.0999999046325684,4.3379998207092285,-6.059000015258789,0.4309999942779541,-9.701000213623049,-0.5550000071525573
1622101949604,-2.1700000762939453,4.735000133514404,-6.699999809265137,0.4309999942779541,-9.746000289916992,-0.5239999890327453
1622101949614,-1.9600000381469729,4.848999977111816,-6.5370001792907715,0.4709999859333038,-9.753000259399414,-0.4850000143051147
1622101949624,-1.924999952316284,4.9704999923706055,-6.622500419616699,0.4309999942779541,-9.746000289916992,-0.5239999890327453
1622101949634,-1.8899999856948853,5.0920000076293945,-6.708000183105469,0.4309999942779541,-9.70699977874756,-0.5170000195503234
1622101949644,-1.8899999856948853,4.896999835968018,-6.813000202178955,0.4309999942779541,-9.746000289916992,-0.5239999890327453
1622101949654,-2.309999942779541,4.873000144958496,-6.675000190734863,0.4309999942779541,-9.694000244140623,-0.5939999818801879
1622101949664,-1.6799999475479126,4.630000114440918,-6.505000114440918,0.5099999904632568,-9.73900032043457,-0.5619999766349792
1622101949674,-1.6100000143051147,4.540999889373779,-6.804999828338623,0.5099999904632568,-9.73900032043457,-0.5619999766349792
1622101949684,-1.75,4.633999824523926,-6.931000232696533,0.5099999904632568,-9.73900032043457,-0.5619999766349792
1622101949694,-2.0299999713897705,4.698999881744385,-6.493000030517578,0.5099999904632568,-9.73900032043457,-0.5619999766349792
1622101949704,-1.8899999856948853,4.492000102996826,-6.5289998054504395,0.5099999904632568,-9.694000244140623,-0.5939999818801879
1622101949714,-1.2599999904632568,4.515999794006348,-6.666999816894531,0.4709999859333038,-9.635000228881836,-0.703000009059906
1622101949724,-1.0499999523162842,4.480000019073486,-6.460000038146973,0.4309999942779541,-9.687000274658203,-0.6330000162124633
1622101949734,-1.3300000429153442,4.184000015258789,-6.796999931335449,0.4309999942779541,-9.701000213623049,-0.5550000071525573
1622101949744,-1.2599999904632568,3.9449999332427974,-7.052000045776367,0.4309999942779541,-9.746000289916992,-0.5239999890327453
1622101949754,-0.9800000190734864,4.10699987411499,-7.165999889373779,0.4709999859333038,-9.746000289916992,-0.5239999890327453
1622101949764,-0.8399999737739563,4.091000080108643,-6.671000003814697,0.4709999859333038,-9.73900032043457,-0.5619999766349792
1622101949774,-0.7699999809265136,3.989000082015991,-6.9019999504089355,0.4709999859333038,-9.70699977874756,-0.5170000195503234
1622101949784,-0.4900000095367431,3.7260000705718994,-7.019999980926514,0.4709999859333038,-9.73900032043457,-0.5619999766349792
1622101949794,-0.3499999940395355,3.964999914169311,-6.763999938964844,0.4309999942779541,-9.746000289916992,-0.5239999890327453
1622101949804,-0.2800000011920929,3.996999979019165,-6.545000076293945,0.4309999942779541,-9.746000289916992,-0.5239999890327453
1622101949814,0.0,4.11899995803833,-7.235000133514405,0.4309999942779541,-9.70699977874756,-0.5170000195503234
1622101949824,-0.0700000002980232,3.911999940872192,-7.270999908447266,0.4709999859333038,-9.732000350952148,-0.6010000109672546
1622101949834,-0.209999993443489,3.8190000057220455,-7.144999980926514,0.4309999942779541,-9.770999908447264,-0.6079999804496765
1622101949844,-0.8399999737739563,4.3420000076293945,-7.692999839782715,0.4309999942779541,-9.770999908447264,-0.6079999804496765
1622101949854,-0.5600000023841857,3.940000057220459,-7.835000038146973,0.4309999942779541,-9.732000350952148,-0.6010000109672546
1622101949864,-0.2800000011920929,4.389999866485596,-7.968999862670899,0.4309999942779541,-9.70699977874756,-0.5170000195503234
1622101949874,-0.4199999868869781,4.848999977111816,-7.745999813079834,0.4709999859333038,-9.791999816894531,-0.492000013589859
1622101949884,0.1400000005960464,4.504000186920166,-7.806000232696533,0.4709999859333038,-9.753000259399414,-0.4850000143051147
1622101949894,0.1400000005960464,4.216000080108643,-7.78599977493286,0.5099999904632568,-9.746000289916992,-0.5239999890327453
1622101949904,0.699999988079071,3.7660000324249263,-7.651999950408936,0.5099999904632568,-9.70699977874756,-0.5170000195503234
1622101949914,0.4900000095367431,3.615999937057495,-7.607999801635742,0.4709999859333038,-9.73900032043457,-0.5619999766349792
1622101949924,0.699999988079071,3.6440000534057617,-8.170999526977539,0.5099999904632568,-9.701000213623049,-0.5550000071525573
1622101949934,1.0499999523162842,3.5309998989105225,-8.333000183105469,0.5099999904632568,-9.701000213623049,-0.5550000071525573
1622101949944,1.1200000047683716,3.4739999771118164,-8.414999961853027,0.5099999904632568,-9.746000289916992,-0.5239999890327453
1622101949954,1.0499999523162842,3.2869999408721924,-8.163000106811523,0.4709999859333038,-9.70699977874756,-0.5170000195503234
1622101949964,0.6299999952316284,3.388999938964844,-7.932000160217285,0.5099999904632568,-9.71399974822998,-0.4779999852180481
1622101949974,0.7699999809265136,3.3559999465942383,-8.151000022888184,0.5099999904632568,-9.70699977874756,-0.5170000195503234
1622101949984,0.7699999809265136,3.181999921798706,-7.968999862670899,0.5490000247955322,-9.746000289916992,-0.5239999890327453
1622101949994,0.8399999737739563,3.2829999923706055,-7.736999988555909,0.5490000247955322,-9.746000289916992,-0.5239999890327453
1622101950004,0.9800000190734864,3.502000093460083,-7.769999980926514,0.5879999995231628,-9.746000289916992,-0.5239999890327453
1622101950014,0.9450000524520874,3.180000066757202,-7.755499839782715,0.5490000247955322,-9.79800033569336,-0.453000009059906
1622101950024,0.9100000262260436,2.8580000400543213,-7.741000175476073,0.5879999995231628,-9.829999923706056,-0.4990000128746032
1622101950034,0.7699999809265136,2.7929999828338623,-6.9710001945495605,0.5879999995231628,-9.78499984741211,-0.5299999713897705
1622101950044,0.7699999809265136,2.193000078201294,-6.791999816894531,0.5879999995231628,-9.829999923706056,-0.4990000128746032
1622101950054,0.699999988079071,1.937000036239624,-6.552999973297119,0.6280000209808348,-9.836999893188477,-0.4600000083446502
1622101950064,0.3499999940395355,1.5640000104904177,-6.050000190734863,0.6280000209808348,-9.836999893188477,-0.4600000083446502
1622101950074,0.0700000002980232,1.1510000228881836,-6.123000144958496,0.6280000209808348,-9.80500030517578,-0.414000004529953
1622101950084,-0.3499999940395355,1.381999969482422,-6.224999904632568,0.5879999995231628,-9.836999893188477,-0.4600000083446502
1622101950094,-0.9100000262260436,1.3580000400543213,-6.086999893188477,0.5490000247955322,-9.836999893188477,-0.4600000083446502
1622101950104,-1.3300000429153442,1.7139999866485596,-6.09499979019165,0.5099999904632568,-9.79800033569336,-0.453000009059906
1622101950114,-1.8899999856948853,1.6859999895095823,-5.531000137329102,0.5099999904632568,-9.836999893188477,-0.4600000083446502
1622101950124,-2.0999999046325684,2.25,-5.502999782562256,0.4709999859333038,-9.79800033569336,-0.453000009059906
1622101950134,-2.5199999809265137,2.538000106811523,-5.5229997634887695,0.4309999942779541,-9.791999816894531,-0.492000013589859
1622101950144,-2.799999952316284,3.437999963760376,-5.790999889373779,0.4309999942779541,-9.777999877929688,-0.5690000057220459
1622101950154,-2.799999952316284,3.9609999656677246,-6.339000225067139,0.4309999942779541,-9.770999908447264,-0.6079999804496765
1622101950164,-2.940000057220459,4.76800012588501,-6.480999946594238,0.3919999897480011,-9.73900032043457,-0.5619999766349792
1622101950174,-2.6600000858306885,5.0920000076293945,-6.708000183105469,0.4709999859333038,-9.73900032043457,-0.5619999766349792
1622101950184,-2.0299999713897705,5.550000190734863,-6.485000133514404,0.4309999942779541,-9.701000213623049,-0.5550000071525573
1622101950194,-1.8200000524520872,5.8379998207092285,-6.505000114440918,0.4309999942779541,-9.661999702453612,-0.5490000247955322
1622101950204,-0.9800000190734864,5.749000072479248,-6.804999828338623,0.4709999859333038,-9.661999702453612,-0.5490000247955322
1622101950214,-0.6299999952316284,5.181000232696533,-6.4079999923706055,0.4709999859333038,-9.661999702453612,-0.5490000247955322
1622101950224,-0.4199999868869781,5.416999816894531,-6.934999942779541,0.4709999859333038,-9.616999626159668,-0.5799999833106994
1622101950234,-0.1400000005960464,5.039000034332275,-7.2150001525878915,0.4709999859333038,-9.654999732971191,-0.5870000123977661
1622101950244,0.209999993443489,5.067999839782715,-7.777999877929688,0.4709999859333038,-9.661999702453612,-0.5490000247955322
1622101950254,0.699999988079071,4.90500020980835,-7.664999961853027,0.4709999859333038,-9.623000144958496,-0.5419999957084655
1622101950264,1.0499999523162842,4.6539998054504395,-7.85099983215332,0.5099999904632568,-9.668999671936035,-0.5099999904632568
1622101950274,1.0499999523162842,4.39900016784668,-7.611999988555909,0.4709999859333038,-9.71399974822998,-0.4779999852180481
1622101950284,1.0499999523162842,4.686999797821045,-7.631999969482423,0.4709999859333038,-9.70699977874756,-0.5170000195503234
1622101950294,1.1200000047683716,4.873000144958496,-7.883999824523927,0.4709999859333038,-9.70699977874756,-0.5170000195503234
1622101950304,1.1200000047683716,4.480000019073486,-7.669000148773193,0.4309999942779541,-9.746000289916992,-0.5239999890327453
1622101950314,1.2599999904632568,4.599499702453613,-7.5410003662109375,0.4309999942779541,-9.753000259399414,-0.4850000143051147
1622101950324,1.399999976158142,4.718999862670898,-7.413000106811523,0.4709999859333038,-9.70699977874756,-0.5170000195503234
1622101950333,1.6799999475479126,4.6579999923706055,-7.067999839782715,0.5099999904632568,-9.71399974822998,-0.4779999852180481
1622101950343,1.5399999618530271,4.703000068664551,-6.918000221252441,0.4309999942779541,-9.71399974822998,-0.4779999852180481
1622101950353,1.4700000286102295,4.901000022888184,-7.238999843597413,0.4309999942779541,-9.753000259399414,-0.4850000143051147
1622101950363,1.5399999618530271,4.96999979019165,-7.2270002365112305,0.4709999859333038,-9.760000228881836,-0.4460000097751617
1622101950373,1.6100000143051147,4.914000034332275,-7.308000087738037,0.3919999897480011,-9.79800033569336,-0.453000009059906
1622101950383,1.399999976158142,4.926000118255615,-7.376999855041504,0.4309999942779541,-9.79800033569336,-0.453000009059906
1622101950393,1.1200000047683716,5.0269999504089355,-7.145999908447266,0.4709999859333038,-9.80500030517578,-0.414000004529953
1622101950403,0.699999988079071,4.946000099182129,-7.089000225067139,0.4309999942779541,-9.836999893188477,-0.4600000083446502
1622101950413,0.2800000011920929,4.706999778747559,-7.343999862670899,0.4709999859333038,-9.87600040435791,-0.4670000076293945
1622101950423,-0.0700000002980232,4.811999797821045,-7.539000034332275,0.4709999859333038,-9.836999893188477,-0.4600000083446502
1622101950433,-0.4900000095367431,5.144999980926514,-7.4089999198913565,0.4709999859333038,-9.843999862670898,-0.4210000038146972
1622101950443,-0.9100000262260436,5.4730000495910645,-6.854000091552734,0.5490000247955322,-9.826000213623049,-0.2989999949932098
1622101950453,-1.190000057220459,5.541999816894531,-6.8420000076293945,0.5490000247955322,-9.85099983215332,-0.3829999864101409
1622101950463,-1.3300000429153442,5.039000034332275,-7.2150001525878915,0.5099999904632568,-9.85099983215332,-0.3829999864101409
1622101950473,-1.399999976158142,5.23799991607666,-7.5349998474121085,0.5099999904632568,-9.767000198364256,-0.4079999923706054
1622101950483,-1.8200000524520872,5.22599983215332,-7.4660000801086435,0.4709999859333038,-9.767000198364256,-0.4079999923706054
1622101950493,-2.240000009536743,4.89300012588501,-7.59600019454956,0.5099999904632568,-9.767000198364256,-0.4079999923706054
1622101950503,-2.450000047683716,4.811999797821045,-7.539000034332275,0.5099999904632568,-9.767000198364256,-0.4079999923706054
1622101950513,-2.5199999809265137,4.755000114440918,-7.619999885559082,0.5099999904632568,-9.753000259399414,-0.4850000143051147
1622101950523,-2.5899999141693115,4.811999797821045,-7.539000034332275,0.5490000247955322,-9.753000259399414,-0.4850000143051147
1622101950533,-3.009999990463257,4.800000190734863,-7.469999790191651,0.5099999904632568,-9.78499984741211,-0.5299999713897705
1622101950543,-2.9749999046325684,4.800000190734863,-7.469999790191651,0.5099999904632568,-9.753000259399414,-0.4850000143051147
1622101950553,-2.940000057220459,4.800000190734863,-7.469999790191651,0.5099999904632568,-9.753000259399414,-0.4850000143051147
1622101950563,-2.869999885559082,4.929999828338623,-7.802000045776368,0.5099999904632568,-9.753000259399414,-0.4850000143051147
1622101950573,-2.5899999141693115,4.888999938964844,-7.170000076293945,0.5490000247955322,-9.70699977874756,-0.5170000195503234
1622101950583,-2.5199999809265137,4.706999778747559,-7.343999862670899,0.5490000247955322,-9.675999641418455,-0.4709999859333038
1622101950593,-1.75,4.929999828338623,-7.802000045776368,0.5490000247955322,-9.71399974822998,-0.4779999852180481
1622101950603,-1.399999976158142,4.6620001792907715,-7.493999958038329,0.5490000247955322,-9.668999671936035,-0.5099999904632568
1622101950613,-1.0499999523162842,4.577000141143799,-7.01200008392334,0.5490000247955322,-9.675999641418455,-0.4709999859333038
1622101950623,-1.0499999523162842,4.439000129699707,-7.035999774932861,0.5879999995231628,-9.675999641418455,-0.4709999859333038
1622101950633,-1.190000057220459,4.464000225067139,-7.173999786376953,0.5099999904632568,-9.746000289916992,-0.5239999890327453
1622101950643,-1.2599999904632568,4.326000213623047,-7.197999954223633,0.5099999904632568,-9.746000289916992,-0.5239999890327453
1622101950653,-1.0499999523162842,4.6579999923706055,-7.067999839782715,0.5490000247955322,-9.746000289916992,-0.5239999890327453
1622101950663,-0.9100000262260436,4.4720001220703125,-6.816999912261963,0.5879999995231628,-9.753000259399414,-0.4850000143051147
1622101950673,-1.2599999904632568,4.377999782562256,-6.690999984741211,0.5879999995231628,-9.791999816894531,-0.492000013589859
1622101950683,-1.3300000429153442,4.135000228881836,-6.520999908447266,0.5879999995231628,-9.791999816894531,-0.492000013589859
1622101950693,-1.3300000429153442,3.8550000190734863,-6.144000053405762,0.5099999904632568,-9.760000228881836,-0.4460000097751617
1622101950703,-1.5399999618530271,3.9040000438690186,-6.420000076293945,0.5099999904632568,-9.753000259399414,-0.4850000143051147
1622101950713,-2.309999942779541,4.179999828338623,-6.370999813079834,0.4709999859333038,-9.791999816894531,-0.492000013589859
1622101950723,-2.240000009536743,4.01800012588501,-6.256999969482422,0.5099999904632568,-9.791999816894531,-0.492000013589859
1622101950733,-2.0299999713897705,3.8680000305175786,-6.2129998207092285,0.5099999904632568,-9.78499984741211,-0.5299999713897705
1622101950743,-2.380000114440918,4.111000061035156,-6.382999897003174,0.5099999904632568,-9.71399974822998,-0.4779999852180481
1622101950753,-2.309999942779541,4.053999900817871,-6.4639997482299805,0.4709999859333038,-9.70699977874756,-0.5170000195503234
1622101950763,-2.240000009536743,3.996999979019165,-6.545000076293945,0.5099999904632568,-9.701000213623049,-0.5550000071525573
1622101950773,-2.1700000762939453,4.01800012588501,-6.256999969482422,0.5099999904632568,-9.70699977874756,-0.5170000195503234
1622101950783,-1.8899999856948853,3.9609999656677246,-6.339000225067139,0.5099999904632568,-9.701000213623049,-0.5550000071525573
1622101950793,-1.8899999856948853,4.377999782562256,-6.690999984741211,0.4709999859333038,-9.70699977874756,-0.5170000195503234
1622101950803,-1.8200000524520872,4.560999870300293,-6.517000198364258,0.4709999859333038,-9.701000213623049,-0.5550000071525573
1622101950813,-1.6100000143051147,4.6539998054504395,-6.64300012588501,0.5099999904632568,-9.701000213623049,-0.5550000071525573
1622101950823,-1.5399999618530271,5.116000175476074,-6.8460001945495605,0.5099999904632568,-9.732000350952148,-0.6010000109672546
1622101950833,-1.6100000143051147,5.1529998779296875,-7.052000045776367,0.4709999859333038,-9.777999877929688,-0.5690000057220459
1622101950843,-1.3300000429153442,4.853000164031982,-6.9629998207092285,0.5099999904632568,-9.718999862670898,-0.6779999732971191
1622101950853,-1.0499999523162842,5.129000186920166,-6.914000034332275,0.5099999904632568,-9.72599983215332,-0.6389999985694885
1622101950863,-1.4700000286102295,4.918000221252441,-6.525000095367432,0.5099999904632568,-9.763999938964846,-0.6460000276565551
1622101950873,-1.6100000143051147,4.999000072479248,-6.581999778747559,0.5099999904632568,-9.770999908447264,-0.6079999804496765
1622101950883,-1.6799999475479126,4.974999904632568,-6.443999767303467,0.5490000247955322,-9.763999938964846,-0.6460000276565551
1622101950893,-1.5399999618530271,4.747000217437744,-6.76800012588501,0.5099999904632568,-9.694000244140623,-0.5939999818801879
1622101950903,-1.5399999618530271,4.803999900817871,-6.686999797821045,0.5490000247955322,-9.732000350952148,-0.6010000109672546
1622101950913,-1.2599999904632568,4.642000198364258,-6.573999881744385,0.5490000247955322,-9.694000244140623,-0.5939999818801879
1622101950923,-1.3300000429153442,4.75600004196167,-6.4120001792907715,0.5099999904632568,-9.701000213623049,-0.5550000071525573
1622101950933,-1.2599999904632568,4.4679999351501465,-6.390999794006348,0.5099999904632568,-9.654999732971191,-0.5870000123977661
1622101950943,-0.7699999809265136,4.630000114440918,-6.505000114440918,0.5490000247955322,-9.654999732971191,-0.5870000123977661
1622101950953,-0.8049999475479126,4.772000312805176,-6.302000045776367,0.5099999904632568,-9.701000213623049,-0.5550000071525573
1622101950963,-0.8399999737739563,4.914000034332275,-6.098999977111816,0.5099999904632568,-9.73900032043457,-0.5619999766349792
1622101950973,-0.8399999737739563,4.683000087738037,-5.998000144958496,0.5099999904632568,-9.732000350952148,-0.6010000109672546
1622101950983,-1.1200000047683716,4.763999938964844,-6.054999828338623,0.5099999904632568,-9.770999908447264,-0.6079999804496765
1622101950993,-0.8399999737739563,4.552999973297119,-5.664999961853027,0.5099999904632568,-9.732000350952148,-0.6010000109672546
1622101951003,-0.9800000190734864,4.715000152587891,-5.7789998054504395,0.5099999904632568,-9.732000350952148,-0.6010000109672546
1622101951013,-1.0499999523162842,4.683000087738037,-5.998000144958496,0.5099999904632568,-9.763999938964846,-0.6460000276565551
1622101951023,-1.2599999904632568,4.51200008392334,-6.241000175476074,0.5099999904632568,-9.758000373840332,-0.6850000023841857
1622101951033,-1.190000057220459,4.678999900817871,-6.781000137329102,0.5099999904632568,-9.758000373840332,-0.6850000023841857
1622101951043,-1.399999976158142,4.730999946594238,-6.27400016784668,0.5099999904632568,-9.732000350952148,-0.6010000109672546
1622101951053,-1.0499999523162842,4.715000152587891,-5.7789998054504395,0.5099999904632568,-9.732000350952148,-0.6010000109672546
1622101951063,-0.8399999737739563,4.390999794006348,-5.552000045776367,0.5490000247955322,-9.732000350952148,-0.6010000109672546
1622101951073,-0.6299999952316284,3.973000049591065,-5.198999881744385,0.5099999904632568,-9.732000350952148,-0.6010000109672546
1622101951083,-0.699999988079071,3.677000045776367,-5.535999774932861,0.4309999942779541,-9.701000213623049,-0.5550000071525573
1622101951093,-0.4900000095367431,3.75,-5.948999881744385,0.3919999897480011,-9.661999702453612,-0.5490000247955322
1622101951103,-0.4900000095367431,3.880000114440918,-6.2820000648498535,0.4309999942779541,-9.694000244140623,-0.5939999818801879
1622101951113,-0.5600000023841857,4.005000114440918,-6.188000202178955,0.4709999859333038,-9.78499984741211,-0.5299999713897705
1622101951123,-0.5600000023841857,4.179999828338623,-6.370999813079834,0.4309999942779541,-9.78499984741211,-0.5299999713897705
1622101951133,-0.6649999618530273,4.157500267028809,-6.446000099182129,0.4309999942779541,-9.777999877929688,-0.5690000057220459
1622101951143,-0.7699999809265136,4.135000228881836,-6.520999908447266,0.4309999942779541,-9.770999908447264,-0.6079999804496765
1622101951153,-1.1200000047683716,4.191999912261963,-6.440000057220459,0.4309999942779541,-9.73900032043457,-0.5619999766349792
1622101951163,-1.190000057220459,4.01800012588501,-6.256999969482422,0.4309999942779541,-9.777999877929688,-0.5690000057220459
1622101951173,-1.3300000429153442,4.146999835968018,-6.590000152587891,0.4309999942779541,-9.73900032043457,-0.5619999766349792
1622101951183,-1.75,4.515999794006348,-6.666999816894531,0.4309999942779541,-9.73900032043457,-0.5619999766349792
1622101951193,-1.399999976158142,4.565000057220459,-6.942999839782715,0.4309999942779541,-9.732000350952148,-0.6010000109672546
1622101951203,-1.3300000429153442,4.622000217437744,-6.861999988555908,0.4309999942779541,-9.694000244140623,-0.5939999818801879
1622101951213,-1.190000057220459,4.710999965667725,-6.561999797821045,0.4709999859333038,-9.694000244140623,-0.5939999818801879
1622101951223,-0.7699999809265136,4.678999900817871,-6.781000137329102,0.4709999859333038,-9.694000244140623,-0.5939999818801879
1622101951233,-1.0499999523162842,4.909999847412109,-6.881999969482422,0.4709999859333038,-9.701000213623049,-0.5550000071525573
1622101951243,-0.7699999809265136,4.5279998779296875,-6.736000061035156,0.4709999859333038,-9.687000274658203,-0.6330000162124633
1622101951253,-0.7699999809265136,4.841000080108643,-6.894000053405762,0.4709999859333038,-9.732000350952148,-0.6010000109672546
1622101951263,-1.2599999904632568,4.743000030517578,-6.3429999351501465,0.4709999859333038,-9.763999938964846,-0.6460000276565551
1622101951273,-1.3300000429153442,4.76800012588501,-6.480999946594238,0.4709999859333038,-9.732000350952148,-0.6010000109672546
1622101951283,-1.5399999618530271,4.876999855041504,-5.89300012588501,0.4709999859333038,-9.732000350952148,-0.6010000109672546
1622101951293,-1.399999976158142,4.645999908447266,-5.790999889373779,0.5099999904632568,-9.732000350952148,-0.6010000109672546
1622101951303,-1.434999942779541,4.54449987411499,-6.021999835968018,0.4709999859333038,-9.732000350952148,-0.6010000109672546
1622101951313,-1.4700000286102295,4.442999839782715,-6.252999782562256,0.4709999859333038,-9.732000350952148,-0.6010000109672546
1622101951323,-1.190000057220459,4.293000221252441,-6.209000110626221,0.4709999859333038,-9.72599983215332,-0.6389999985694885
1622101951333,-1.1200000047683716,4.552999973297119,-6.874000072479248,0.4309999942779541,-9.72599983215332,-0.6389999985694885
1622101951343,-1.1200000047683716,4.633999824523926,-6.931000232696533,0.3919999897480011,-9.72599983215332,-0.6389999985694885
1622101951353,-0.9800000190734864,4.735000133514404,-6.699999809265137,0.4309999942779541,-9.72599983215332,-0.6389999985694885
1622101951363,-0.9100000262260436,4.605999946594238,-6.367000102996826,0.4309999942779541,-9.718999862670898,-0.6779999732971191
1622101951373,-0.7699999809265136,4.4679999351501465,-6.390999794006348,0.3919999897480011,-9.694000244140623,-0.5939999818801879
1622101951383,-0.699999988079071,4.442999839782715,-6.252999782562256,0.3919999897480011,-9.68000030517578,-0.6710000038146972
1622101951393,-0.7699999809265136,4.78000020980835,-6.548999786376953,0.4709999859333038,-9.67300033569336,-0.7099999785423278
1622101951403,-0.9800000190734864,5.047999858856201,-6.857999801635742,0.4309999942779541,-9.75100040435791,-0.7239999771118164
1622101951413,-0.8399999737739563,5.059999942779541,-6.927000045776367,0.4709999859333038,-9.758000373840332,-0.6850000023841857
1622101951423,-0.8399999737739563,4.735000133514404,-6.699999809265137,0.4309999942779541,-9.72599983215332,-0.6389999985694885
1622101951433,-1.190000057220459,5.044000148773193,-6.432000160217285,0.4309999942779541,-9.68000030517578,-0.6710000038146972
1622101951443,-0.9800000190734864,5.160999774932861,-6.696000099182129,0.4709999859333038,-9.687000274658203,-0.6330000162124633
1622101951453,-0.7699999809265136,4.966000080108643,-6.801000118255615,0.4309999942779541,-9.718999862670898,-0.6779999732971191
1622101951463,-0.7699999809265136,4.999000072479248,-6.581999778747559,0.4309999942779541,-9.694000244140623,-0.5939999818801879
1622101951473,-0.2800000011920929,4.885000228881836,-6.74399995803833,0.4309999942779541,-9.687000274658203,-0.6330000162124633
1622101951483,-0.2100000083446502,4.828499794006348,-6.824999809265137,0.4309999942779541,-9.694000244140623,-0.5939999818801879
1622101951493,-0.1400000005960464,4.771999835968018,-6.906000137329102,0.4309999942779541,-9.687000274658203,-0.6330000162124633
1622101951503,-0.1400000005960464,4.565000057220459,-6.942999839782715,0.4309999942779541,-9.732000350952148,-0.6010000109672546
1622101951513,-0.2800000011920929,4.568999767303467,-7.368999958038329,0.4709999859333038,-9.73900032043457,-0.5619999766349792
1622101951523,-0.699999988079071,4.96999979019165,-7.2270002365112305,0.4309999942779541,-9.694000244140623,-0.5939999818801879
1622101951533,-0.9800000190734864,5.072000026702881,-6.995999813079834,0.4709999859333038,-9.687000274658203,-0.6330000162124633
1622101951543,-0.8399999737739563,4.876999855041504,-7.10099983215332,0.5099999904632568,-9.732000350952148,-0.6010000109672546
1622101951553,-0.9100000262260436,4.585000038146973,-6.65500020980835,0.5099999904632568,-9.72599983215332,-0.6389999985694885
1622101951563,-0.7699999809265136,4.686999797821045,-6.423999786376953,0.4709999859333038,-9.687000274658203,-0.6330000162124633
1622101951573,-0.699999988079071,4.941999912261963,-6.663000106811523,0.4309999942779541,-9.72599983215332,-0.6389999985694885
1622101951583,-0.699999988079071,4.961999893188477,-6.375,0.4709999859333038,-9.763999938964846,-0.6460000276565551
1622101951593,-0.6299999952316284,4.738999843597412,-5.916999816894531,0.4709999859333038,-9.763999938964846,-0.6460000276565551
1622101951603,-0.7699999809265136,4.577000141143799,-5.802999973297119,0.4709999859333038,-9.72599983215332,-0.6389999985694885
1622101951613,-1.190000057220459,4.439000129699707,-5.828000068664551,0.4709999859333038,-9.763999938964846,-0.6460000276565551
1622101951623,-1.0499999523162842,4.431000232696533,-6.184000015258789,0.4709999859333038,-9.763999938964846,-0.6460000276565551
1622101951633,-0.6299999952316284,4.249000072479248,-6.359000205993652,0.4709999859333038,-9.718999862670898,-0.6779999732971191
1622101951643,-0.9100000262260436,4.326000213623047,-5.989999771118164,0.4709999859333038,-9.718999862670898,-0.6779999732971191
1622101951653,-1.0499999523162842,4.317999839782715,-5.138000011444092,0.4709999859333038,-9.732000350952148,-0.6010000109672546
1622101951663,-0.8049999475479126,4.281499862670898,-4.93149995803833,0.5099999904632568,-9.732000350952148,-0.6010000109672546
1622101951673,-0.5600000023841857,4.244999885559082,-4.724999904632568,0.4709999859333038,-9.694000244140623,-0.5939999818801879
1622101951683,-0.3499999940395355,3.73799991607666,-4.671999931335449,0.4709999859333038,-9.701000213623049,-0.5550000071525573
1622101951693,-0.209999993443489,3.503000020980835,-5.353000164031982,0.4309999942779541,-9.68000030517578,-0.6710000038146972
1622101951703,-0.3499999940395355,3.619999885559082,-5.617000102996826,0.4309999942779541,-9.68000030517578,-0.6710000038146972
1622101951713,-0.3499999940395355,3.3489999771118164,-6.091000080108643,0.3919999897480011,-9.687000274658203,-0.6330000162124633
1622101951723,-0.4900000095367431,2.9709999561309814,-6.370999813079834,0.3919999897480011,-9.72599983215332,-0.6389999985694885
1622101951733,-0.5600000023841857,2.869999885559082,-6.6020002365112305,0.3919999897480011,-9.732000350952148,-0.6010000109672546
1622101951743,-0.5600000023841857,2.687999963760376,-6.776000022888184,0.3529999852180481,-9.732000350952148,-0.6010000109672546
1622101951753,-0.7699999809265136,3.125,-6.841000080108643,0.3140000104904174,-9.770999908447264,-0.6079999804496765
1622101951763,-0.8399999737739563,3.4820001125335693,-6.848999977111816,0.3140000104904174,-9.777999877929688,-0.5690000057220459
1622101951773,-1.190000057220459,3.6689999103546143,-7.10099983215332,0.2750000059604644,-9.770999908447264,-0.6079999804496765
1622101951783,-1.4700000286102295,4.236000061035156,-7.498000144958496,0.3140000104904174,-9.763999938964846,-0.6460000276565551
1622101951793,-1.3300000429153442,4.48799991607666,-7.311999797821045,0.3529999852180481,-9.718999862670898,-0.6779999732971191
1622101951803,-1.399999976158142,4.60099983215332,-7.150000095367432,0.3529999852180481,-9.72599983215332,-0.6389999985694885
1622101951813,-1.4700000286102295,5.372000217437744,-7.085000038146973,0.3919999897480011,-9.687000274658203,-0.6330000162124633
1622101951823,-1.1200000047683716,5.708000183105469,-7.381000041961671,0.4309999942779541,-9.732000350952148,-0.6010000109672546
1622101951833,-1.1200000047683716,5.809999942779541,-7.150000095367432,0.4309999942779541,-9.763999938964846,-0.6460000276565551
1622101951843,-1.2599999904632568,5.826000213623047,-7.040500164031982,0.3919999897480011,-9.732000350952148,-0.6010000109672546
1622101951853,-1.399999976158142,5.8420000076293945,-6.931000232696533,0.4309999942779541,-9.758000373840332,-0.6850000023841857
1622101951863,-1.4700000286102295,5.86299991607666,-6.64300012588501,0.4309999942779541,-9.763999938964846,-0.6460000276565551
1622101951873,-1.6799999475479126,5.794000148773193,-6.65500020980835,0.3919999897480011,-9.758000373840332,-0.6850000023841857
1622101951883,-1.5399999618530271,5.8379998207092285,-6.505000114440918,0.4309999942779541,-9.718999862670898,-0.6779999732971191
1622101951893,-1.6799999475479126,4.938000202178955,-6.236999988555908,0.4309999942779541,-9.718999862670898,-0.6779999732971191
1622101951903,-1.4700000286102295,5.064000129699707,-6.144000053405762,0.3919999897480011,-9.711999893188477,-0.7170000076293945
1622101951913,-1.6799999475479126,4.89300012588501,-6.38700008392334,0.4309999942779541,-9.711999893188477,-0.7170000076293945
1622101951923,-1.8200000524520872,4.861000061035156,-6.605999946594238,0.4309999942779541,-9.697999954223633,-0.7940000295639038
1622101951933,-1.4700000286102295,4.853000164031982,-6.9629998207092285,0.4309999942779541,-9.65999984741211,-0.787000000476837
1622101951943,-1.2599999904632568,4.460000038146973,-6.748000144958496,0.4309999942779541,-9.72599983215332,-0.6389999985694885
1622101951953,-1.2599999904632568,4.354000091552734,-6.552999973297119,0.4309999942779541,-9.68000030517578,-0.6710000038146972
1622101951963,-0.8399999737739563,4.507999897003174,-7.02400016784668,0.3919999897480011,-9.68000030517578,-0.6710000038146972
1622101951973,-0.4199999868869781,4.678999900817871,-6.781000137329102,0.3919999897480011,-9.635000228881836,-0.703000009059906
1622101951983,-0.2800000011920929,4.747000217437744,-6.76800012588501,0.3919999897480011,-9.68000030517578,-0.6710000038146972
1622101951993,0.209999993443489,4.690999984741211,-6.849999904632568,0.3919999897480011,-9.67300033569336,-0.7099999785423278
1622101952003,0.6299999952316284,4.796000003814697,-7.044000148773193,0.3919999897480011,-9.666999816894531,-0.7490000128746032
1622101952012,0.699999988079071,4.625999927520752,-7.2870001792907715,0.3919999897480011,-9.687000274658203,-0.6330000162124633
1622101952022,1.1200000047683716,4.589000225067139,-7.080999851226807,0.3919999897480011,-9.718999862670898,-0.6779999732971191
1622101952032,1.399999976158142,4.888999938964844,-7.170000076293945,0.4309999942779541,-9.72599983215332,-0.6389999985694885
1622101952042,1.3650000095367432,4.9639997482299805,-7.192500114440918,0.3919999897480011,-9.72599983215332,-0.6389999985694885
1622101952052,1.3300000429153442,5.039000034332275,-7.2150001525878915,0.4309999942779541,-9.732000350952148,-0.6010000109672546
1622101952062,0.9800000190734864,5.014999866485596,-7.077000141143799,0.3919999897480011,-9.763999938964846,-0.6460000276565551
1622101952072,1.0499999523162842,5.1570000648498535,-7.478000164031982,0.3919999897480011,-9.763999938964846,-0.6460000276565551
1622101952082,0.6299999952316284,4.961999893188477,-7.584000110626221,0.4309999942779541,-9.829999923706056,-0.4990000128746032
1622101952092,0.4199999868869781,5.056000232696533,-7.709000110626221,0.4309999942779541,-9.822999954223633,-0.537000000476837
1622101952102,0.4199999868869781,4.5929999351501465,-7.506000041961671,0.4309999942779541,-9.777999877929688,-0.5690000057220459
1622101952112,0.1400000005960464,4.743000030517578,-7.551000118255616,0.4309999942779541,-9.732000350952148,-0.6010000109672546
1622101952122,0.2800000011920929,5.056000232696533,-7.709000110626221,0.4709999859333038,-9.72599983215332,-0.6389999985694885
1622101952132,0.3499999940395355,4.86899995803833,-7.458000183105469,0.3919999897480011,-9.694000244140623,-0.5939999818801879
1622101952142,0.4199999868869781,4.88100004196167,-7.526999950408936,0.3919999897480011,-9.72599983215332,-0.6389999985694885
1622101952152,0.0,5.119999885559082,-7.270999908447266,0.4709999859333038,-9.732000350952148,-0.6010000109672546
1622101952162,0.0700000002980232,5.164999961853027,-7.120999813079834,0.4309999942779541,-9.777999877929688,-0.5690000057220459
1622101952172,-0.0700000002980232,5.164999961853027,-7.120999813079834,0.4309999942779541,-9.770999908447264,-0.6079999804496765
1622101952182,-0.209999993443489,5.129000186920166,-6.914000034332275,0.4709999859333038,-9.770999908447264,-0.6079999804496765
1622101952192,-0.0700000002980232,5.355999946594238,-6.590000152587891,0.4309999942779541,-9.803000450134276,-0.652999997138977
1622101952202,-0.3499999940395355,5.120999813079834,-6.063000202178955,0.4709999859333038,-9.763999938964846,-0.6460000276565551
1622101952212,-0.4900000095367431,4.88100004196167,-6.317999839782715,0.4709999859333038,-9.81700038909912,-0.5759999752044677
1622101952222,-0.3499999940395355,5.13700008392334,-6.558000087738037,0.4309999942779541,-9.777999877929688,-0.5690000057220459
1622101952232,-0.7699999809265136,5.2179999351501465,-6.613999843597412,0.4309999942779541,-9.81700038909912,-0.5759999752044677
1622101952242,-0.6649999618530273,5.045499801635742,-6.644499778747559,0.3919999897480011,-9.777999877929688,-0.5690000057220459
1622101952252,-0.5600000023841857,4.873000144958496,-6.675000190734863,0.4309999942779541,-9.777999877929688,-0.5690000057220459
1622101952262,-0.4199999868869781,4.833000183105469,-6.043000221252441,0.4309999942779541,-9.73900032043457,-0.5619999766349792
1622101952272,-0.1400000005960464,4.828999996185303,-5.617000102996826,0.3919999897480011,-9.732000350952148,-0.6010000109672546
1622101952282,0.1400000005960464,4.560999870300293,-5.309000015258789,0.3919999897480011,-9.777999877929688,-0.5690000057220459
1622101952292,0.4199999868869781,4.322000026702881,-5.564000129699707,0.3529999852180481,-9.770999908447264,-0.6079999804496765
1622101952302,0.0,4.557000160217285,-6.091000080108643,0.3529999852180481,-9.770999908447264,-0.6079999804496765
1622101952312,-0.4199999868869781,4.686999797821045,-6.423999786376953,0.3529999852180481,-9.81700038909912,-0.5759999752044677
1622101952322,-0.3499999940395355,4.690999984741211,-6.849999904632568,0.3529999852180481,-9.8100004196167,-0.6140000224113464
1622101952332,-0.6299999952316284,4.5279998779296875,-6.736000061035156,0.3529999852180481,-9.732000350952148,-0.6010000109672546
1622101952342,-0.4199999868869781,4.771999835968018,-6.906000137329102,0.3140000104904174,-9.770999908447264,-0.6079999804496765
1622101952352,0.0,4.5320000648498535,-7.1620001792907715,0.2750000059604644,-9.746000289916992,-0.5239999890327453
1622101952362,0.1400000005960464,4.314000129699707,-7.129000186920166,0.3140000104904174,-9.701000213623049,-0.5550000071525573
1622101952372,0.0,5.076000213623047,-7.421000003814697,0.2349999994039535,-9.654999732971191,-0.5870000123977661
1622101952382,0.3499999940395355,5.257999897003174,-7.247000217437744,0.2349999994039535,-9.654999732971191,-0.5870000123977661
1622101952392,0.8399999737739563,5.513999938964844,-7.486000061035157,0.3140000104904174,-9.654999732971191,-0.5870000123977661
1622101952402,1.2599999904632568,5.867000102996826,-7.068999767303467,0.3529999852180481,-9.654999732971191,-0.5870000123977661
1622101952412,0.9100000262260436,5.980000019073486,-6.906000137329102,0.4309999942779541,-9.73900032043457,-0.5619999766349792
1622101952422,0.9100000262260436,5.88700008392334,-6.781000137329102,0.3919999897480011,-9.73900032043457,-0.5619999766349792
1622101952432,0.9100000262260436,5.7820000648498535,-6.585999965667725,0.3919999897480011,-9.701000213623049,-0.5550000071525573
1622101952442,1.1200000047683716,5.521999835968018,-7.129000186920166,0.3529999852180481,-9.694000244140623,-0.5939999818801879
1622101952452,1.0499999523162842,5.392000198364258,-6.796999931335449,0.3529999852180481,-9.694000244140623,-0.5939999818801879
1622101952462,1.1200000047683716,5.430500030517578,-6.612500190734863,0.3529999852180481,-9.694000244140623,-0.5939999818801879
1622101952472,1.190000057220459,5.468999862670898,-6.427999973297119,0.3529999852180481,-9.732000350952148,-0.6010000109672546
1622101952482,1.2599999904632568,4.710999965667725,-6.561999797821045,0.3919999897480011,-9.687000274658203,-0.6330000162124633
1622101952492,1.3300000429153442,4.410999774932861,-6.4720001220703125,0.3529999852180481,-9.72599983215332,-0.6389999985694885
1622101952502,1.5399999618530271,4.091000080108643,-6.671000003814697,0.3529999852180481,-9.770999908447264,-0.6079999804496765
1622101952512,1.2599999904632568,4.046000003814697,-6.821000099182129,0.3140000104904174,-9.73900032043457,-0.5619999766349792
1622101952522,1.399999976158142,3.888000011444092,-7.132999897003174,0.3140000104904174,-9.73900032043457,-0.5619999766349792
1622101952532,1.3300000429153442,3.6570000648498535,-7.0320000648498535,0.3529999852180481,-9.78499984741211,-0.5299999713897705
1622101952542,1.2599999904632568,3.5999999046325684,-7.11299991607666,0.3140000104904174,-9.753000259399414,-0.4850000143051147
1622101952552,1.190000057220459,3.497999906539917,-7.343999862670899,0.2750000059604644,-9.746000289916992,-0.5239999890327453
1622101952562,1.0499999523162842,3.7739999294281006,-7.295000076293945,0.2750000059604644,-9.753000259399414,-0.4850000143051147
1622101952572,0.9100000262260436,4.017000198364258,-7.4660000801086435,0.3140000104904174,-9.753000259399414,-0.4850000143051147
1622101952582,0.9100000262260436,3.9489998817443848,-7.478000164031982,0.3140000104904174,-9.753000259399414,-0.4850000143051147
1622101952592,0.699999988079071,4.085999965667725,-7.453999996185303,0.3529999852180481,-9.720999717712402,-0.4390000104904174
1622101952602,0.9100000262260436,4.281000137329102,-7.348000049591064,0.3529999852180481,-9.720999717712402,-0.4390000104904174
1622101952612,1.0499999523162842,4.050000190734863,-7.247000217437744,0.2750000059604644,-9.767000198364256,-0.4079999923706054
1622101952622,0.7699999809265136,3.8550000190734863,-7.3520002365112305,0.3140000104904174,-9.767000198364256,-0.4079999923706054
1622101952632,0.699999988079071,4.017000198364258,-7.4660000801086435,0.3529999852180481,-9.760000228881836,-0.4460000097751617
1622101952642,0.5600000023841857,3.79800009727478,-7.433000087738037,0.3140000104904174,-9.760000228881836,-0.4460000097751617
1622101952652,0.7699999809265136,3.3570001125335693,-6.942999839782715,0.3529999852180481,-9.760000228881836,-0.4460000097751617
1622101952662,0.5600000023841857,3.2750000953674316,-6.886000156402588,0.3529999852180481,-9.760000228881836,-0.4460000097751617
1622101952672,0.209999993443489,3.2790000438690186,-7.311999797821045,0.3140000104904174,-9.760000228881836,-0.4460000097751617
1622101952682,-0.1750000119209289,3.382500171661377,-7.293499946594238,0.3529999852180481,-9.79800033569336,-0.453000009059906
1622101952692,-0.5600000023841857,3.486000061035156,-7.275000095367432,0.3919999897480011,-9.79800033569336,-0.453000009059906
1622101952702,-0.6299999952316284,3.4660000801086426,-7.563000202178955,0.3919999897480011,-9.79800033569336,-0.453000009059906
1622101952712,-0.8399999737739563,3.4820001125335693,-8.057999610900879,0.3919999897480011,-9.791999816894531,-0.492000013589859
1622101952722,-1.4700000286102295,3.5309998989105225,-8.333000183105469,0.4309999942779541,-9.79800033569336,-0.453000009059906
1622101952732,-1.6799999475479126,3.4170000553131104,-8.496000289916992,0.4309999942779541,-9.753000259399414,-0.4850000143051147
1622101952742,-1.6100000143051147,3.3480000495910645,-8.508000373840332,0.4309999942779541,-9.753000259399414,-0.4850000143051147
1622101952752,-1.75,3.73799991607666,-8.29699993133545,0.4309999942779541,-9.79800033569336,-0.453000009059906
1622101952762,-1.75,3.5309998989105225,-8.333000183105469,0.4309999942779541,-9.836999893188477,-0.4600000083446502
1622101952772,-1.6799999475479126,3.615999937057495,-8.815999984741211,0.4709999859333038,-9.791999816894531,-0.492000013589859
1622101952782,-2.0299999713897705,3.4049999713897705,-8.427000045776367,0.4709999859333038,-9.777999877929688,-0.5690000057220459
1622101952792,-2.0299999713897705,3.546999931335449,-8.82800006866455,0.4709999859333038,-9.81700038909912,-0.5759999752044677
1622101952802,-2.380000114440918,3.513999938964844,-9.046999931335447,0.5099999904632568,-9.822999954223633,-0.537000000476837
1622101952812,-2.5899999141693115,3.6559998989105225,-9.449000358581545,0.5099999904632568,-9.777999877929688,-0.5690000057220459
1622101952822,-2.5199999809265137,3.424999952316284,-9.347000122070312,0.5490000247955322,-9.777999877929688,-0.5690000057220459
1622101952832,-2.7300000190734863,3.2060000896453857,-9.3149995803833,0.5879999995231628,-9.770999908447264,-0.6079999804496765
1622101952842,-2.5199999809265137,3.4089999198913574,-8.852999687194824,0.5879999995231628,-9.770999908447264,-0.6079999804496765
1622101952852,-2.380000114440918,3.2909998893737793,-8.58899974822998,0.5879999995231628,-9.73900032043457,-0.5619999766349792
1622101952862,-1.9600000381469729,3.0239999294281006,-8.281000137329102,0.5879999995231628,-9.694000244140623,-0.5939999818801879
1622101952872,-1.75,3.0,-8.142999649047852,0.5879999995231628,-9.661999702453612,-0.5490000247955322
1622101952882,-1.5399999618530271,3.0079998970031734,-7.78599977493286,0.5490000247955322,-9.701000213623049,-0.5550000071525573
1622101952892,-1.190000057220459,3.0239999294281006,-8.281000137329102,0.5490000247955322,-9.647999763488768,-0.6259999871253967
1622101952902,-1.1549999713897705,2.936999797821045,-8.189499855041504,0.5099999904632568,-9.687000274658203,-0.6330000162124633
1622101952912,-1.1200000047683716,2.8499999046325684,-8.097999572753906,0.5099999904632568,-9.687000274658203,-0.6330000162124633
1622101952922,-0.8399999737739563,3.13700008392334,-8.119000434875488,0.5099999904632568,-9.687000274658203,-0.6330000162124633
1622101952932,-0.699999988079071,3.4010000228881836,-8.00100040435791,0.5099999904632568,-9.687000274658203,-0.6330000162124633
1622101952942,-0.5600000023841857,4.090000152587891,-7.879000186920166,0.5490000247955322,-9.687000274658203,-0.6330000162124633
1622101952952,-0.699999988079071,4.309000015258789,-7.9120001792907715,0.5490000247955322,-9.687000274658203,-0.6330000162124633
1622101952962,-0.6299999952316284,4.47599983215332,-8.451000213623047,0.5490000247955322,-9.694000244140623,-0.5939999818801879
1622101952972,-0.4900000095367431,4.577000141143799,-8.220000267028809,0.5490000247955322,-9.654999732971191,-0.5870000123977661
1622101952982,-0.2800000011920929,4.544000148773193,-8.439000129699707,0.5490000247955322,-9.661999702453612,-0.5490000247955322
1622101952992,0.2800000011920929,4.381999969482422,-8.326000213623047,0.5490000247955322,-9.623000144958496,-0.5419999957084655
1622101953002,0.4199999868869781,4.589000225067139,-8.288999557495117,0.5490000247955322,-9.661999702453612,-0.5490000247955322
1622101953012,0.7699999809265136,4.093999862670898,-8.305000305175781,0.6280000209808348,-9.68000030517578,-0.6710000038146972
1622101953022,0.8399999737739563,4.293000221252441,-8.62600040435791,0.5879999995231628,-9.72599983215332,-0.6389999985694885
1622101953032,0.9100000262260436,4.451000213623047,-8.312999725341797,0.5490000247955322,-9.763999938964846,-0.6460000276565551
1622101953042,0.5600000023841857,4.374000072479248,-8.682000160217285,0.5490000247955322,-9.72599983215332,-0.6389999985694885
1622101953052,0.4199999868869781,4.3420000076293945,-8.901000022888184,0.5879999995231628,-9.770999908447264,-0.6079999804496765
1622101953062,0.4199999868869781,4.354000091552734,-8.970000267028809,0.5879999995231628,-9.770999908447264,-0.6079999804496765
1622101953072,0.0700000002980232,4.281000137329102,-8.557000160217285,0.5879999995231628,-9.78499984741211,-0.5299999713897705
1622101953082,-0.4900000095367431,4.585000038146973,-7.862999916076661,0.5879999995231628,-9.746000289916992,-0.5239999890327453
1622101953092,-0.6299999952316284,4.548999786376953,-7.656000137329101,0.5879999995231628,-9.73900032043457,-0.5619999766349792
1622101953102,-0.8399999737739563,4.507999897003174,-8.232000350952148,0.5879999995231628,-9.746000289916992,-0.5239999890327453
1622101953112,-0.9100000262260436,5.0960001945495605,-8.342000007629395,0.5879999995231628,-9.746000289916992,-0.5239999890327453
1622101953122,-0.8050000071525573,5.303000450134277,-8.305500030517578,0.5879999995231628,-9.73900032043457,-0.5619999766349792
1622101953132,-0.699999988079071,5.510000228881836,-8.269000053405762,0.5879999995231628,-9.701000213623049,-0.5550000071525573
1622101953142,-0.4199999868869781,5.591000080108643,-8.326000213623047,0.6280000209808348,-9.73900032043457,-0.5619999766349792
1622101953152,-0.4199999868869781,5.7729997634887695,-8.151000022888184,0.5879999995231628,-9.70699977874756,-0.5170000195503234
1622101953162,-0.4900000095367431,6.0329999923706055,-7.607999801635742,0.5879999995231628,-9.661999702453612,-0.5490000247955322
1622101953172,-0.0700000002980232,6.133999824523926,-7.376999855041504,0.5490000247955322,-9.661999702453612,-0.5490000247955322
1622101953182,-0.3499999940395355,6.122000217437744,-7.308000087738037,0.5879999995231628,-9.668999671936035,-0.5099999904632568
1622101953192,-0.3499999940395355,6.328999996185303,-7.270999908447266,0.6280000209808348,-9.753000259399414,-0.4850000143051147
1622101953202,-0.6299999952316284,6.409999847412109,-7.328000068664551,0.6280000209808348,-9.746000289916992,-0.5239999890327453
1622101953212,-0.3499999940395355,6.316999912261963,-7.203000068664551,0.6280000209808348,-9.746000289916992,-0.5239999890327453
1622101953222,-0.7699999809265136,6.260000228881836,-7.2839999198913565,0.6280000209808348,-9.746000289916992,-0.5239999890327453
1622101953232,-1.0499999523162842,6.040999889373779,-7.250999927520752,0.6280000209808348,-9.73900032043457,-0.5619999766349792
1622101953242,-0.8399999737739563,5.834000110626221,-7.288000106811523,0.6280000209808348,-9.73900032043457,-0.5619999766349792
1622101953252,-0.9800000190734864,5.3429999351501465,-7.730000019073486,0.6280000209808348,-9.732000350952148,-0.6010000109672546
1622101953262,-0.8399999737739563,5.13700008392334,-7.765999794006347,0.6280000209808348,-9.73900032043457,-0.5619999766349792
1622101953272,-0.9100000262260436,4.941999912261963,-7.870999813079834,0.5879999995231628,-9.746000289916992,-0.5239999890327453
1622101953282,-1.0499999523162842,5.059000015258789,-8.135000228881836,0.5879999995231628,-9.73900032043457,-0.5619999766349792
1622101953292,-1.399999976158142,4.622000217437744,-8.069999694824219,0.5490000247955322,-9.701000213623049,-0.5550000071525573
1622101953302,-1.8899999856948853,4.519999980926514,-8.300999641418457,0.6280000209808348,-9.732000350952148,-0.6010000109672546
1622101953312,-2.0999999046325684,4.876999855041504,-8.309000015258789,0.5879999995231628,-9.72599983215332,-0.6389999985694885
1622101953322,-1.8200000524520872,4.60099983215332,-8.357999801635742,0.6669999957084655,-9.732000350952148,-0.6010000109672546
1622101953332,-1.8899999856948853,4.873000144958496,-7.883999824523927,0.5879999995231628,-9.701000213623049,-0.5550000071525573
1622101953342,-1.8899999856948853,5.107999801635742,-7.807000160217285,0.5879999995231628,-9.73900032043457,-0.5619999766349792
1622101953352,-1.8899999856948853,5.3429999351501465,-7.730000019073486,0.5879999995231628,-9.73900032043457,-0.5619999766349792
1622101953362,-1.6100000143051147,5.64300012588501,-7.818999767303467,0.5879999995231628,-9.73900032043457,-0.5619999766349792
1622101953372,-1.8200000524520872,5.802000045776367,-7.506999969482423,0.5879999995231628,-9.73900032043457,-0.5619999766349792
1622101953382,-1.9600000381469729,5.9720001220703125,-7.263000011444091,0.5879999995231628,-9.701000213623049,-0.5550000071525573
1622101953392,-2.1700000762939453,6.198999881744385,-6.939000129699707,0.5879999995231628,-9.694000244140623,-0.5939999818801879
1622101953402,-2.240000009536743,6.288000106811523,-6.638999938964844,0.6280000209808348,-9.732000350952148,-0.6010000109672546
1622101953412,-1.75,6.544000148773193,-6.877999782562256,0.6280000209808348,-9.732000350952148,-0.6010000109672546
1622101953422,-1.8899999856948853,6.499000072479248,-7.0279998779296875,0.6669999957084655,-9.73900032043457,-0.5619999766349792
1622101953432,-1.8899999856948853,6.353000164031982,-6.201000213623047,0.6669999957084655,-9.732000350952148,-0.6010000109672546
1622101953442,-1.8899999856948853,6.190999984741211,-6.086999893188477,0.7059999704360961,-9.72599983215332,-0.6389999985694885
1622101953452,-1.4700000286102295,5.327000141143799,-6.026000022888184,0.6669999957084655,-9.718999862670898,-0.6779999732971191
1622101953462,-1.399999976158142,5.202000141143799,-6.119999885559082,0.6669999957084655,-9.770999908447264,-0.6079999804496765
1622101953472,-1.399999976158142,4.783999919891357,-5.767000198364258,0.5879999995231628,-9.73900032043457,-0.5619999766349792
1622101953482,-1.75,4.123000144958496,-5.24399995803833,0.5099999904632568,-9.732000350952148,-0.6010000109672546
1622101953492,-2.309999942779541,4.184000015258789,-5.5879998207092285,0.5490000247955322,-9.72599983215332,-0.6389999985694885
1622101953502,-2.309999942779541,4.216000080108643,-5.36899995803833,0.5099999904632568,-9.770999908447264,-0.6079999804496765
1622101953512,-2.6600000858306885,4.434999942779541,-5.4019999504089355,0.5490000247955322,-9.770999908447264,-0.6079999804496765
1622101953522,-2.309999942779541,4.552999973297119,-5.664999961853027,0.5099999904632568,-9.73900032043457,-0.5619999766349792
1622101953532,-2.5199999809265137,4.519999980926514,-5.883999824523926,0.5099999904632568,-9.732000350952148,-0.6010000109672546
1622101953542,-2.6600000858306885,4.921999931335449,-5.743000030517578,0.4709999859333038,-9.694000244140623,-0.5939999818801879
1622101953552,-2.7300000190734863,5.0269999504089355,-5.936999797821045,0.5099999904632568,-9.687000274658203,-0.6330000162124633
1622101953562,-2.450000047683716,5.538000106811523,-6.415999889373779,0.4709999859333038,-9.687000274658203,-0.6330000162124633
1622101953572,-2.380000114440918,5.724999904632568,-6.666999816894531,0.4709999859333038,-9.666999816894531,-0.7490000128746032
1622101953582,-2.240000009536743,5.796000003814697,-6.868000030517578,0.5099999904632568,-9.68000030517578,-0.6710000038146972
1622101953592,-2.0999999046325684,5.867000102996826,-7.068999767303467,0.5099999904632568,-9.687000274658203,-0.6330000162124633
1622101953602,-2.0299999713897705,5.890999794006348,-7.206999778747559,0.5099999904632568,-9.72599983215332,-0.6389999985694885
1622101953612,-1.6799999475479126,6.060999870300293,-6.9629998207092285,0.5490000247955322,-9.758000373840332,-0.6850000023841857
1622101953622,-1.8899999856948853,5.9679999351501465,-6.8379998207092285,0.5490000247955322,-9.758000373840332,-0.6850000023841857
1622101953632,-1.5399999618530271,5.784999847412109,-7.01200008392334,0.5490000247955322,-9.718999862670898,-0.6779999732971191
1622101953642,-1.3300000429153442,5.383999824523926,-7.1539998054504395,0.5490000247955322,-9.718999862670898,-0.6779999732971191
1622101953651,-1.5399999618530271,5.488999843597412,-7.348000049591064,0.5490000247955322,-9.758000373840332,-0.6850000023841857
1622101953661,-1.5399999618530271,5.315000057220459,-7.165999889373779,0.5490000247955322,-9.763999938964846,-0.6460000276565551
1622101953671,-1.6100000143051147,4.841000080108643,-6.894000053405762,0.5879999995231628,-9.763999938964846,-0.6460000276565551
1622101953681,-1.6799999475479126,4.76800012588501,-6.480999946594238,0.5099999904632568,-9.763999938964846,-0.6460000276565551
1622101953691,-2.0299999713897705,4.5970001220703125,-6.723999977111816,0.4709999859333038,-9.763999938964846,-0.6460000276565551
1622101953701,-2.309999942779541,4.683000087738037,-7.205999851226807,0.4709999859333038,-9.75100040435791,-0.7239999771118164
1622101953711,-2.1700000762939453,5.011000156402588,-7.859000205993653,0.4709999859333038,-9.758000373840332,-0.6850000023841857
1622101953721,-2.450000047683716,4.958000183105469,-8.366000175476074,0.4309999942779541,-9.718999862670898,-0.6779999732971191
1622101953731,-2.380000114440918,4.706999778747559,-8.553000450134277,0.4309999942779541,-9.718999862670898,-0.6779999732971191
1622101953741,-2.380000114440918,4.841000080108643,-8.102999687194824,0.4709999859333038,-9.711999893188477,-0.7170000076293945
1622101953751,-1.8899999856948853,5.1529998779296875,-8.26099967956543,0.4709999859333038,-9.711999893188477,-0.7170000076293945
1622101953761,-1.399999976158142,4.783999919891357,-8.184000015258789,0.5099999904632568,-9.68000030517578,-0.6710000038146972
1622101953771,-1.1200000047683716,4.718999862670898,-8.621999740600586,0.5099999904632568,-9.67300033569336,-0.7099999785423278
1622101953781,-0.9100000262260436,4.4670000076293945,-8.807999610900879,0.5099999904632568,-9.68000030517578,-0.6710000038146972
1622101953791,-0.7699999809265136,4.560999870300293,-8.934000015258789,0.5099999904632568,-9.67300033569336,-0.7099999785423278
1622101953801,-0.9800000190734864,4.926000118255615,-8.585000038146973,0.5099999904632568,-9.704999923706056,-0.7549999952316284
1622101953811,-0.9800000190734864,4.944000244140625,-8.688499450683594,0.5099999904632568,-9.744000434875488,-0.762000024318695
1622101953821,-0.9800000190734864,4.961999893188477,-8.791999816894531,0.5490000247955322,-9.744000434875488,-0.762000024318695
1622101953831,-1.1200000047683716,4.999000072479248,-8.99899959564209,0.5879999995231628,-9.75100040435791,-0.7239999771118164
1622101953841,-1.2599999904632568,4.986000061035156,-8.930000305175781,0.5879999995231628,-9.803000450134276,-0.652999997138977
1622101953851,-1.0499999523162842,4.823999881744385,-8.815999984741211,0.5490000247955322,-9.79599952697754,-0.6919999718666076
1622101953861,-1.3300000429153442,4.702000141143799,-9.335000038146973,0.5879999995231628,-9.758000373840332,-0.6850000023841857
1622101953871,-1.6100000143051147,4.4670000076293945,-10.015999794006348,0.5879999995231628,-9.758000373840332,-0.6850000023841857
1622101953881,-2.240000009536743,4.0329999923706055,-10.376999855041504,0.6280000209808348,-9.697999954223633,-0.7940000295639038
1622101953891,-2.240000009536743,3.7170000076293945,-11.001999855041504,0.5879999995231628,-9.666999816894531,-0.7490000128746032
1622101953901,-1.9600000381469729,3.5510001182556152,-11.67099952697754,0.6280000209808348,-9.621000289916992,-0.7799999713897705
1622101953911,-1.6100000143051147,3.322999954223633,-11.994999885559082,0.5879999995231628,-9.628000259399414,-0.7419999837875366
1622101953921,-1.2599999904632568,3.0399999618530273,-12.401000022888184,0.6280000209808348,-9.628000259399414,-0.7419999837875366
1622101953931,-0.7699999809265136,2.990999937057495,-12.125,0.5879999995231628,-9.635000228881836,-0.703000009059906
1622101953941,-0.6299999952316284,2.7920000553131104,-11.803999900817873,0.6280000209808348,-9.67300033569336,-0.7099999785423278
1622101953951,-0.5600000023841857,3.11299991607666,-11.605999946594238,0.6280000209808348,-9.666999816894531,-0.7490000128746032
1622101953961,0.0,2.8329999446868896,-11.229000091552734,0.6280000209808348,-9.704999923706056,-0.7549999952316284
1622101953971,-0.4199999868869781,2.9549999237060547,-10.710000038146973,0.6669999957084655,-9.697999954223633,-0.7940000295639038
1622101953981,-0.6299999952316284,3.5510001182556152,-10.461999893188477,0.6280000209808348,-9.704999923706056,-0.7549999952316284
1622101953991,-0.5600000023841857,3.9200000762939458,-10.538999557495115,0.6669999957084655,-9.744000434875488,-0.762000024318695
1622101954001,-0.7699999809265136,4.389999866485596,-10.385000228881836,0.7059999704360961,-9.704999923706056,-0.7549999952316284
1622101954011,-1.0499999523162842,4.568999767303467,-9.78499984741211,0.6669999957084655,-9.666999816894531,-0.7490000128746032
1622101954021,-0.4900000095367431,4.815999984741211,-9.17300033569336,0.6280000209808348,-9.67300033569336,-0.7099999785423278
1622101954031,-0.3149999976158142,4.729000091552734,-9.082000732421877,0.7059999704360961,-9.666999816894531,-0.7490000128746032
1622101954041,-0.1400000005960464,4.642000198364258,-8.991000175476074,0.7059999704360961,-9.595999717712402,-0.6959999799728394
1622101954051,0.1400000005960464,4.547999858856201,-8.864999771118164,0.7059999704360961,-9.67300033569336,-0.7099999785423278
1622101954061,0.4199999868869781,4.682000160217285,-8.414999961853027,0.7450000047683715,-9.711999893188477,-0.7170000076293945
1622101954071,0.209999993443489,4.916999816894531,-8.942000389099121,0.7450000047683715,-9.711999893188477,-0.7170000076293945
1622101954081,0.4900000095367431,4.88100004196167,-8.734999656677246,0.7850000262260437,-9.711999893188477,-0.7170000076293945
1622101954091,0.4199999868869781,4.454999923706055,-8.73900032043457,0.7450000047683715,-9.758000373840332,-0.6850000023841857
1622101954101,0.0,4.15500020980835,-8.649999618530273,0.7450000047683715,-9.718999862670898,-0.6779999732971191
1622101954111,-0.699999988079071,4.123000144958496,-8.869000434875488,0.7850000262260437,-9.711999893188477,-0.7170000076293945
1622101954121,-1.399999976158142,3.6400001049041744,-8.954000473022461,0.7850000262260437,-9.737000465393066,-0.8009999990463256
1622101954131,-1.6799999475479126,3.075999975204468,-8.982000350952148,0.8240000009536743,-9.782999992370604,-0.7689999938011169
1622101954141,-2.1700000762939453,2.322000026702881,-9.541999816894531,0.8240000009536743,-9.782999992370604,-0.7689999938011169
1622101954151,-2.7300000190734863,1.340999960899353,-10.425999641418455,0.8240000009536743,-9.744000434875488,-0.762000024318695
1622101954161,-3.1500000953674316,0.3709999918937683,-11.378000259399414,0.8629999756813049,-9.711999893188477,-0.7170000076293945
1622101954171,-3.2899999618530273,-0.4600000083446502,-12.307000160217283,0.8240000009536743,-9.704999923706056,-0.7549999952316284
1622101954181,-3.1500000953674316,-1.3600000143051147,-13.246999740600586,0.7850000262260437,-9.67300033569336,-0.7099999785423278
1622101954191,-3.359999895095825,-2.013000011444092,-13.576000213623049,0.7850000262260437,-9.704999923706056,-0.7549999952316284
1622101954201,-3.569999933242798,-1.7170000076293943,-14.447999954223633,0.7850000262260437,-9.744000434875488,-0.762000024318695
1622101954211,-3.569999933242798,-1.819000005722046,-14.678999900817873,0.7450000047683715,-9.704999923706056,-0.7549999952316284
1622101954221,-3.430000066757202,-1.5190000534057615,-14.767999649047852,0.7059999704360961,-9.704999923706056,-0.7549999952316284
1622101954231,-3.2899999618530273,-0.9670000076293944,-14.67099952697754,0.7450000047683715,-9.697999954223633,-0.7940000295639038
1622101954241,-3.2899999618530273,-0.5820000171661377,-14.034000396728516,0.7059999704360961,-9.65999984741211,-0.787000000476837
1622101954251,-3.184999942779541,-0.2455000132322311,-13.72599983215332,0.6669999957084655,-9.6850004196167,-0.8709999918937683
1622101954261,-3.0799999237060547,0.090999998152256,-13.41800022125244,0.7059999704360961,-9.6850004196167,-0.8709999918937683
1622101954271,-2.6600000858306885,1.3200000524520874,-11.921999931335447,0.7059999704360961,-9.6850004196167,-0.8709999918937683
1622101954281,-2.5899999141693115,2.253000020980835,-10.76200008392334,0.7450000047683715,-9.6850004196167,-0.8709999918937683
1622101954291,-2.309999942779541,3.1700000762939453,-10.315999984741213,0.7059999704360961,-9.69200038909912,-0.8330000042915344
1622101954301,-2.1700000762939453,4.6579999923706055,-9.484999656677246,0.7059999704360961,-9.697999954223633,-0.7940000295639038
1622101954311,-1.6799999475479126,6.145999908447266,-8.654000282287598,0.7059999704360961,-9.69200038909912,-0.8330000042915344
1622101954321,-1.5399999618530271,7.703000068664551,-7.810999870300293,0.7450000047683715,-9.69200038909912,-0.8330000042915344
1622101954331,-1.6799999475479126,8.555000305175781,-6.59499979019165,0.7850000262260437,-9.6850004196167,-0.8709999918937683
1622101954341,-1.4700000286102295,9.520000457763674,-5.216000080108643,0.8240000009536743,-9.6850004196167,-0.8709999918937683
1622101954351,-1.4700000286102295,10.100000381469728,-4.473999977111816,0.8629999756813049,-9.69200038909912,-0.8330000042915344
1622101954361,-1.4700000286102295,10.043999671936035,-3.3469998836517334,0.9020000100135804,-9.607999801635742,-0.8579999804496765
1622101954371,-1.3300000429153442,10.140999794006348,-2.690000057220459,0.9409999847412108,-9.576000213623049,-0.8119999766349792
1622101954381,-1.1200000047683716,10.31999969482422,-2.0899999141693115,1.0199999809265137,-9.621000289916992,-0.7799999713897705
1622101954391,-0.5600000023841857,10.303999900817873,-1.5950000286102295,0.981000006198883,-9.65999984741211,-0.787000000476837
1622101954401,-0.0700000002980232,9.824999809265137,-2.1059999465942383,0.981000006198883,-9.69200038909912,-0.8330000042915344
1622101954411,0.0,9.58199977874756,-1.9359999895095823,0.9409999847412108,-9.645999908447264,-0.8640000224113464
1622101954421,0.209999993443489,8.70199966430664,-1.3799999952316284,0.9409999847412108,-9.652999877929688,-0.8259999752044677
1622101954431,0.0700000002980232,8.194999694824219,-1.3270000219345093,0.9020000100135804,-9.652999877929688,-0.8259999752044677
1622101954441,0.5600000023841857,7.684000015258789,-2.056999921798706,0.8629999756813049,-9.61400032043457,-0.8190000057220459
1622101954451,1.0499999523162842,7.116000175476074,-2.868000030517578,0.8629999756813049,-9.652999877929688,-0.8259999752044677
1622101954461,1.1200000047683716,7.187000274658203,-3.06850004196167,0.9020000100135804,-9.65999984741211,-0.787000000476837
1622101954471,1.190000057220459,7.257999897003175,-3.2690000534057617,0.8629999756813049,-9.666999816894531,-0.7490000128746032
1622101954481,1.2599999904632568,6.933000087738037,-4.250999927520752,0.7850000262260437,-9.704999923706056,-0.7549999952316284
1622101954491,0.9800000190734864,6.507999897003174,-4.255000114440918,0.8240000009536743,-9.697999954223633,-0.7940000295639038
1622101954501,0.9100000262260436,6.070000171661377,-4.190000057220459,0.8240000009536743,-9.744000434875488,-0.762000024318695
1622101954511,0.7699999809265136,5.627999782562256,-4.9070000648498535,0.8240000009536743,-9.704999923706056,-0.7549999952316284
1622101954521,-0.0700000002980232,5.789999961853027,-5.020999908447266,0.8240000009536743,-9.718999862670898,-0.6779999732971191
1622101954531,-0.3499999940395355,5.0960001945495605,-5.925000190734863,0.8240000009536743,-9.758000373840332,-0.6850000023841857
1622101954541,-0.5600000023841857,4.861000061035156,-6.605999946594238,0.7850000262260437,-9.75100040435791,-0.7239999771118164
1622101954551,-0.7699999809265136,4.199999809265137,-7.290999889373779,0.7850000262260437,-9.704999923706056,-0.7549999952316284
1622101954561,-0.9100000262260436,3.811000108718872,-7.501999855041504,0.7850000262260437,-9.67300033569336,-0.7099999785423278
1622101954571,-1.1200000047683716,3.811000108718872,-7.501999855041504,0.8240000009536743,-9.718999862670898,-0.6779999732971191
1622101954581,-1.2599999904632568,3.7090001106262207,-6.525000095367432,0.7850000262260437,-9.68000030517578,-0.6710000038146972
1622101954591,-1.4700000286102295,3.3239998817443848,-5.953000068664551,0.7850000262260437,-9.666999816894531,-0.7490000128746032
1622101954601,-1.4700000286102295,3.1579999923706055,-6.622000217437744,0.7850000262260437,-9.704999923706056,-0.7549999952316284
1622101954611,-1.75,3.052000045776367,-7.636000156402587,0.7850000262260437,-9.744000434875488,-0.762000024318695
1622101954621,-1.75,3.0280001163482666,-7.498000144958496,0.7850000262260437,-9.744000434875488,-0.762000024318695
1622101954631,-1.9600000381469729,3.628000020980835,-7.677000045776368,0.7850000262260437,-9.788999557495115,-0.7300000190734863
1622101954641,-2.240000009536743,3.911999940872192,-8.479999542236328,0.7850000262260437,-9.79599952697754,-0.6919999718666076
1622101954651,-2.380000114440918,4.304999828338623,-8.694999694824219,0.8240000009536743,-9.847999572753906,-0.6209999918937683
1622101954661,-2.59000015258789,4.315500259399414,-8.550999641418457,0.7850000262260437,-9.79599952697754,-0.6919999718666076
1622101954671,-2.799999952316284,4.326000213623047,-8.406999588012695,0.7450000047683715,-9.79599952697754,-0.6919999718666076
1622101954681,-3.430000066757202,4.921999931335449,-8.159000396728516,0.7850000262260437,-9.803000450134276,-0.652999997138977
1622101954691,-3.849999904632568,4.929999828338623,-7.802000045776368,0.7450000047683715,-9.788999557495115,-0.7300000190734863
1622101954701,-4.130000114440918,5.099999904632568,-7.559000015258789,0.7850000262260437,-9.82800006866455,-0.7369999885559082
1622101954711,-4.199999809265137,5.890999794006348,-7.206999778747559,0.7850000262260437,-9.737000465393066,-0.8009999990463256
1622101954721,-4.550000190734863,6.142000198364258,-7.019999980926514,0.7850000262260437,-9.729999542236328,-0.8389999866485595
1622101954731,-4.550000190734863,6.198999881744385,-6.939000129699707,0.8240000009536743,-9.729999542236328,-0.8389999866485595
1622101954741,-4.619999885559082,6.644999980926514,-6.646999835968018,0.8240000009536743,-9.69200038909912,-0.8330000042915344
1622101954751,-4.760000228881836,6.978000164031982,-6.517000198364258,0.8240000009536743,-9.76900005340576,-0.8460000157356262
1622101954761,-5.110000133514404,6.860000133514404,-6.254000186920166,0.8629999756813049,-9.737000465393066,-0.8009999990463256
1622101954771,-4.900000095367432,6.98199987411499,-5.735000133514404,0.9020000100135804,-9.69200038909912,-0.8330000042915344
1622101954781,-4.760000228881836,7.387000083923339,-6.019000053405762,0.8629999756813049,-9.722999572753906,-0.8780000209808348
1622101954791,-4.760000228881836,7.249000072479248,-6.043000221252441,0.7850000262260437,-9.69200038909912,-0.8330000042915344
1622101954801,-4.550000190734863,7.646999835968018,-5.474999904632568,0.7850000262260437,-9.6850004196167,-0.8709999918937683
1622101954811,-4.409999847412109,7.420000076293945,-4.591000080108643,0.8240000009536743,-9.678000450134276,-0.9100000262260436
1622101954821,-3.990000009536743,7.508999824523927,-4.290999889373779,0.8240000009536743,-9.67099952697754,-0.9480000138282776
1622101954831,-4.269999980926514,7.64300012588501,-3.8410000801086426,0.8240000009536743,-9.663999557495115,-0.9869999885559082
1622101954841,-4.130000114440918,7.22599983215332,-3.48799991607666,0.8240000009536743,-9.663999557495115,-0.9869999885559082
1622101954851,-4.269999980926514,7.269999980926514,-3.3380000591278076,0.8240000009536743,-9.62600040435791,-0.9800000190734864
1622101954861,-4.025000095367432,7.213500022888184,-3.419000148773194,0.7450000047683715,-9.62600040435791,-0.9800000190734864
1622101954871,-3.7799999713897705,7.1570000648498535,-3.5,0.7450000047683715,-9.62600040435791,-0.9800000190734864
1622101954881,-3.7799999713897705,7.230000019073486,-3.9140000343322754,0.7850000262260437,-9.62600040435791,-0.9800000190734864
1622101954891,-3.430000066757202,6.873000144958496,-3.9059998989105225,0.7850000262260437,-9.62600040435791,-0.9800000190734864
1622101954901,-3.430000066757202,6.8520002365112305,-4.193999767303467,0.7450000047683715,-9.619000434875488,-1.0190000534057615
1622101954911,-3.0799999237060547,6.4670000076293945,-4.829999923706055,0.7059999704360961,-9.62600040435791,-0.9800000190734864
1622101954921,-2.6600000858306885,6.447000026702881,-5.118000030517578,0.7059999704360961,-9.593999862670898,-0.9350000023841856
1622101954931,-2.240000009536743,6.564000129699707,-5.381999969482422,0.7059999704360961,-9.633000373840332,-0.9419999718666076
1622101954941,-2.380000114440918,6.735000133514404,-5.138999938964844,0.6669999957084655,-9.67099952697754,-0.9480000138282776
1622101954951,-2.240000009536743,6.439000129699707,-5.474999904632568,0.7450000047683715,-9.633000373840332,-0.9419999718666076
1622101954961,-2.0999999046325684,6.60099983215332,-5.589000225067139,0.7450000047683715,-9.67099952697754,-0.9480000138282776
1622101954971,-1.8200000524520872,6.710000038146973,-6.209000110626221,0.7450000047683715,-9.633000373840332,-0.9419999718666076
1622101954981,-1.6100000143051147,6.860000133514404,-6.254000186920166,0.7450000047683715,-9.619000434875488,-1.0190000534057615
1622101954991,-1.2599999904632568,6.559999942779541,-6.164999961853027,0.7450000047683715,-9.67099952697754,-0.9480000138282776
1622101955001,-0.7699999809265136,6.421999931335449,-6.189000129699707,0.7850000262260437,-9.633000373840332,-0.9419999718666076
1622101955011,-0.4900000095367431,6.296999931335449,-6.2820000648498535,0.7850000262260437,-9.593999862670898,-0.9350000023841856
1622101955021,-0.2800000011920929,6.145999908447266,-6.236999988555908,0.7850000262260437,-9.586999893188477,-0.9729999899864196
1622101955031,0.0700000002980232,5.859000205993652,-6.2170000076293945,0.7450000047683715,-9.62600040435791,-0.9800000190734864
1622101955041,-0.0700000002980232,5.468999862670898,-6.427999973297119,0.7450000047683715,-9.663999557495115,-0.9869999885559082
1622101955051,0.2800000011920929,5.14900016784668,-6.626999855041504,0.7850000262260437,-9.67099952697754,-0.9480000138282776
1622101955061,0.3849999904632568,4.861000061035156,-6.606499671936035,0.7850000262260437,-9.710000038146973,-0.9549999833106994
1622101955071,0.4900000095367431,4.572999954223633,-6.585999965667725,0.7450000047683715,-9.67099952697754,-0.9480000138282776
1622101955081,0.9100000262260436,4.642000198364258,-6.573999881744385,0.6669999957084655,-9.67099952697754,-0.9480000138282776
1622101955091,0.699999988079071,4.3460001945495605,-6.909999847412109,0.7059999704360961,-9.696000099182127,-1.0329999923706057
1622101955101,0.209999993443489,4.464000225067139,-7.173999786376953,0.7450000047683715,-9.70300006866455,-0.9940000176429749
1622101955111,0.0700000002980232,4.6620001792907715,-7.493999958038329,0.7450000047683715,-9.710000038146973,-0.9549999833106994
1622101955121,0.4199999868869781,4.638000011444092,-7.355999946594238,0.7850000262260437,-9.67099952697754,-0.9480000138282776
1622101955131,0.2800000011920929,4.966000080108643,-6.801000118255615,0.8240000009536743,-9.710000038146973,-0.9549999833106994
1622101955141,0.4199999868869781,4.7270002365112305,-5.8480000495910645,0.8240000009536743,-9.710000038146973,-0.9549999833106994
1622101955151,0.3499999940395355,4.184000015258789,-5.5879998207092285,0.8240000009536743,-9.663999557495115,-0.9869999885559082
1622101955161,0.1400000005960464,3.802999973297119,-5.441999912261963,0.7850000262260437,-9.710000038146973,-0.9549999833106994
1622101955171,-0.209999993443489,3.5840001106262207,-5.409999847412109,0.7450000047683715,-9.70300006866455,-0.9940000176429749
1622101955181,-0.5600000023841857,3.5510001182556152,-5.629000186920166,0.7450000047683715,-9.748000144958496,-0.962000012397766
1622101955191,-0.7699999809265136,3.2799999713897705,-6.103000164031982,0.7450000047683715,-9.710000038146973,-0.9549999833106994
1622101955201,-0.9800000190734864,3.1540000438690186,-6.196000099182129,0.7059999704360961,-9.710000038146973,-0.9549999833106994
1622101955211,-0.9800000190734864,2.9019999504089355,-6.382999897003174,0.6669999957084655,-9.748000144958496,-0.962000012397766
1622101955221,-1.2599999904632568,2.7730000019073486,-6.050000190734863,0.6280000209808348,-9.70300006866455,-0.9940000176429749
1622101955231,-0.9800000190734864,2.747999906539917,-5.913000106811523,0.5879999995231628,-9.67099952697754,-0.9480000138282776
1622101955241,-0.7699999809265136,2.809000015258789,-6.256999969482422,0.6280000209808348,-9.64400005340576,-1.1030000448226929
1622101955251,-0.4899999797344207,2.8899998664855957,-6.314000129699707,0.6280000209808348,-9.62600040435791,-0.9800000190734864
1622101955261,-0.209999993443489,2.9709999561309814,-6.370999813079834,0.6280000209808348,-9.62600040435791,-0.9800000190734864
1622101955271,0.4199999868869781,3.572000026702881,-6.548999786376953,0.6280000209808348,-9.62600040435791,-0.9800000190734864
1622101955281,0.7699999809265136,3.815000057220459,-6.71999979019165,0.6280000209808348,-9.62600040435791,-0.9800000190734864
1622101955291,1.399999976158142,4.683000087738037,-7.205999851226807,0.6280000209808348,-9.67099952697754,-0.9480000138282776
1622101955301,1.75,5.192999839782715,-7.684999942779541,0.6669999957084655,-9.70300006866455,-0.9940000176429749
1622101955311,1.9600000381469729,5.708000183105469,-7.381000041961671,0.7059999704360961,-9.748000144958496,-0.962000012397766
1622101955320,2.0999999046325684,5.732999801635742,-7.519000053405762,0.7059999704360961,-9.741999626159668,-1.0010000467300415
1622101955330,2.0999999046325684,6.020999908447266,-7.539000034332275,0.7059999704360961,-9.741999626159668,-1.0010000467300415
1622101955340,1.6799999475479126,6.617000102996826,-7.291999816894531,0.7450000047683715,-9.710000038146973,-0.9549999833106994
1622101955350,1.399999976158142,6.364999771118164,-6.269999980926514,0.7450000047683715,-9.710000038146973,-0.9549999833106994
1622101955360,1.3300000429153442,6.60099983215332,-5.589000225067139,0.7850000262260437,-9.67099952697754,-0.9480000138282776
1622101955370,1.190000057220459,6.348999977111816,-5.775000095367432,0.7850000262260437,-9.748000144958496,-0.962000012397766
1622101955380,1.3300000429153442,6.060999870300293,-5.755000114440918,0.7850000262260437,-9.710000038146973,-0.9549999833106994
1622101955390,1.399999976158142,5.659999847412109,-5.896999835968018,0.7450000047683715,-9.678000450134276,-0.9100000262260436
1622101955400,1.3300000429153442,5.1570000648498535,-6.269999980926514,0.7450000047683715,-9.67099952697754,-0.9480000138282776
1622101955410,1.4700000286102295,4.191999912261963,-6.440000057220459,0.7450000047683715,-9.67099952697754,-0.9480000138282776
1622101955420,1.399999976158142,3.871999979019165,-6.638999938964844,0.7450000047683715,-9.717000007629396,-0.9169999957084656
1622101955430,1.1200000047683716,3.11299991607666,-6.771999835968018,0.7059999704360961,-9.6850004196167,-0.8709999918937683
1622101955440,1.1549999713897705,2.683499813079834,-6.954500198364258,0.6669999957084655,-9.6850004196167,-0.8709999918937683
1622101955450,1.190000057220459,2.253999948501587,-7.13700008392334,0.6669999957084655,-9.722999572753906,-0.8780000209808348
1622101955460,1.6799999475479126,2.140000104904175,-7.298999786376954,0.5879999995231628,-9.762000083923342,-0.8849999904632568
1622101955470,1.5399999618530271,1.718000054359436,-7.729000091552734,0.5490000247955322,-9.69200038909912,-0.8330000042915344
1622101955480,1.8899999856948853,1.312999963760376,-8.654000282287598,0.4709999859333038,-9.697999954223633,-0.7940000295639038
1622101955490,2.380000114440918,1.5399999618530271,-9.538000106811523,0.4709999859333038,-9.744000434875488,-0.762000024318695
1622101955500,2.6600000858306885,1.7669999599456787,-10.421999931335447,0.4309999942779541,-9.635000228881836,-0.703000009059906
1622101955510,2.799999952316284,2.4760000705718994,-11.220999717712402,0.4709999859333038,-9.628000259399414,-0.7419999837875366
1622101955520,2.6600000858306885,3.322999954223633,-11.994999885559082,0.5099999904632568,-9.67300033569336,-0.7099999785423278
1622101955530,3.0799999237060547,3.8710000514984126,-12.68000030517578,0.5879999995231628,-9.642000198364256,-0.6639999747276306
1622101955540,3.430000066757202,4.775000095367432,-13.37399959564209,0.5879999995231628,-9.647999763488768,-0.6259999871253967
1622101955550,3.9200000762939458,5.309999942779541,-13.989999771118164,0.6280000209808348,-9.609999656677246,-0.6190000176429749
1622101955560,4.059999942779541,6.210000038146973,-14.258000373840332,0.7450000047683715,-9.571000099182127,-0.6119999885559082
1622101955570,4.480000019073486,6.664000034332275,-14.817999839782717,0.7450000047683715,-9.585000038146973,-0.5350000262260437
1622101955580,5.039999961853027,6.308000087738037,-14.8100004196167,0.7850000262260437,-9.585000038146973,-0.5350000262260437
1622101955590,5.739999771118164,6.059999942779541,-14.21399974822998,0.8240000009536743,-9.623000144958496,-0.5419999957084655
1622101955600,6.369999885559082,6.072000026702881,-14.282999992370604,0.8240000009536743,-9.668999671936035,-0.5099999904632568
1622101955610,6.860000133514404,6.0970001220703125,-14.420000076293944,0.9409999847412108,-9.701000213623049,-0.5550000071525573
1622101955620,6.789999961853027,5.853000164031982,-14.25,0.9020000100135804,-9.78499984741211,-0.5299999713897705
1622101955630,6.684999942779541,5.940500259399414,-14.34149932861328,0.8629999756813049,-9.829999923706056,-0.4990000128746032
1622101955640,6.579999923706055,6.0279998779296875,-14.43299961090088,0.9020000100135804,-9.862000465393066,-0.5440000295639038
1622101955650,5.949999809265137,6.109000205993652,-14.48900032043457,0.9409999847412108,-9.887000083923342,-0.6280000209808348
1622101955660,5.179999828338623,6.401000022888184,-14.9350004196167,0.9409999847412108,-9.89400005340576,-0.5889999866485595
1622101955670,4.480000019073486,6.59499979019165,-14.829999923706056,1.0199999809265137,-9.932000160217283,-0.5960000157356262
1622101955680,3.0799999237060547,6.754000186920166,-14.517999649047852,1.0590000152587893,-9.89400005340576,-0.5889999866485595
1622101955690,1.75,7.073999881744385,-14.319000244140623,1.0199999809265137,-9.854999542236328,-0.5830000042915344
1622101955700,0.7699999809265136,7.033999919891357,-13.687000274658203,0.981000006198883,-9.777999877929688,-0.5690000057220459
1622101955710,0.4199999868869781,7.269000053405762,-13.005000114440918,1.0199999809265137,-9.732000350952148,-0.6010000109672546
1622101955720,0.0,6.920000076293945,-11.432000160217283,1.0590000152587893,-9.746000289916992,-0.5239999890327453
1622101955730,-0.4900000095367431,6.494999885559082,-10.227999687194824,1.0980000495910645,-9.777999877929688,-0.5690000057220459
1622101955740,-0.9100000262260436,5.992000102996826,-9.392000198364256,1.0980000495910645,-9.777999877929688,-0.5690000057220459
1622101955750,-1.2599999904632568,5.98799991607666,-8.965999603271484,1.0980000495910645,-9.694000244140623,-0.5939999818801879
1622101955760,-1.5399999618530271,6.040999889373779,-8.460000038146973,1.0199999809265137,-9.661999702453612,-0.5490000247955322
1622101955770,-1.4700000286102295,5.919000148773193,-7.769999980926514,1.0590000152587893,-9.694000244140623,-0.5939999818801879
1622101955780,-1.399999976158142,5.922999858856201,-6.98799991607666,1.0980000495910645,-9.642000198364256,-0.6639999747276306
1622101955790,-0.699999988079071,5.952000141143799,-6.3429999351501465,1.0590000152587893,-9.616999626159668,-0.5799999833106994
1622101955800,-0.6299999952316284,5.340000152587891,-6.09499979019165,1.0980000495910645,-9.623000144958496,-0.5419999957084655
1622101955810,-0.1400000005960464,4.577000141143799,-5.802999973297119,1.0590000152587893,-9.661999702453612,-0.5490000247955322
1622101955820,0.0700000002980232,4.323500156402588,-5.7769999504089355,1.0980000495910645,-9.732000350952148,-0.6010000109672546
1622101955830,0.2800000011920929,4.070000171661377,-5.750999927520752,1.0980000495910645,-9.8100004196167,-0.6140000224113464
1622101955840,-0.1400000005960464,3.2070000171661377,-5.690000057220459,1.0980000495910645,-9.842000007629396,-0.6600000262260437
1622101955850,-0.6299999952316284,2.700000047683716,-5.63700008392334,1.0980000495910645,-9.803000450134276,-0.652999997138977
1622101955860,-1.0499999523162842,2.0230000019073486,-5.827000141143799,1.0590000152587893,-9.763999938964846,-0.6460000276565551
1622101955870,-1.6799999475479126,1.5360000133514404,-5.486999988555908,1.0199999809265137,-9.770999908447264,-0.6079999804496765
1622101955880,-2.1700000762939453,1.25600004196167,-5.109000205993652,1.0199999809265137,-9.72599983215332,-0.6389999985694885
1622101955890,-2.7300000190734863,0.3440000116825103,-4.7729997634887695,0.9409999847412108,-9.68000030517578,-0.6710000038146972
1622101955900,-2.869999885559082,0.2549999952316284,-5.072999954223633,0.9020000100135804,-9.718999862670898,-0.6779999732971191
1622101955910,-3.0799999237060547,-0.2849999964237213,-5.238999843597412,0.9020000100135804,-9.763999938964846,-0.6460000276565551
1622101955920,-3.2899999618530273,-0.135000005364418,-5.283999919891357,0.9020000100135804,-9.718999862670898,-0.6779999732971191
1622101955930,-3.6400001049041744,-0.2360000014305114,-5.514999866485596,0.8240000009536743,-9.701000213623049,-0.5550000071525573
1622101955940,-3.6400001049041744,-0.2199999988079071,-6.008999824523926,0.8240000009536743,-9.718999862670898,-0.6779999732971191
1622101955950,-3.7799999713897705,0.2339999973773956,-6.568999767303467,0.8240000009536743,-9.711999893188477,-0.7170000076293945
1622101955960,-3.7799999713897705,0.7689999938011169,-7.185999870300293,0.8240000009536743,-9.704999923706056,-0.7549999952316284
1622101955970,-3.7100000381469727,1.4789999723434448,-7.984000205993653,0.8629999756813049,-9.744000434875488,-0.762000024318695
1622101955980,-3.849999904632568,2.249000072479248,-9.128000259399414,0.9020000100135804,-9.704999923706056,-0.7549999952316284
1622101955990,-3.990000009536743,2.7760000228881836,-10.10099983215332,0.9020000100135804,-9.69200038909912,-0.8330000042915344
1622101956000,-4.550000190734863,3.50600004196167,-10.612000465393066,0.9409999847412108,-9.69200038909912,-0.8330000042915344
1622101956010,-4.829999923706055,3.76200008392334,-10.85200023651123,0.981000006198883,-9.729999542236328,-0.8389999866485595
1622101956020,-4.970000267028809,4.053500175476074,-10.693500518798828,0.981000006198883,-9.6850004196167,-0.8709999918937683
1622101956030,-5.110000133514404,4.34499979019165,-10.534999847412108,1.0199999809265137,-9.652999877929688,-0.8259999752044677
1622101956040,-5.039999961853027,4.474999904632568,-9.65999984741211,1.0590000152587893,-9.645999908447264,-0.8640000224113464
1622101956050,-5.039999961853027,4.803999900817871,-9.104000091552734,1.0980000495910645,-9.678000450134276,-0.9100000262260436
1622101956060,-4.900000095367432,4.633999824523926,-8.138999938964844,1.0980000495910645,-9.678000450134276,-0.9100000262260436
1622101956070,-4.760000228881836,4.718999862670898,-7.413000106811523,1.1380000114440918,-9.638999938964846,-0.902999997138977
1622101956080,-4.409999847412109,4.966000080108643,-6.801000118255615,1.1380000114440918,-9.60099983215332,-0.8960000276565551
1622101956090,-3.9200000762939458,4.861000061035156,-6.605999946594238,1.1380000114440918,-9.562000274658203,-0.8889999985694885
1622101956100,-3.569999933242798,4.557000160217285,-6.091000080108643,1.1380000114440918,-9.517000198364256,-0.9210000038146972
1622101956110,-2.940000057220459,4.410999774932861,-6.4720001220703125,1.0980000495910645,-9.484999656677246,-0.8759999871253967
1622101956120,-2.1700000762939453,4.249000072479248,-6.359000205993652,1.0980000495910645,-9.484999656677246,-0.8759999871253967
1622101956130,-1.3300000429153442,4.309999942779541,-6.703999996185303,1.0980000495910645,-9.446000099182127,-0.8690000176429749
1622101956140,-0.3499999940395355,4.460000038146973,-6.748000144958496,1.0590000152587893,-9.484999656677246,-0.8759999871253967
1622101956150,0.4199999868869781,4.228000164031982,-6.646999835968018,1.0590000152587893,-9.491999626159668,-0.8370000123977661
1622101956160,1.2599999904632568,4.081999778747559,-7.0279998779296875,1.0590000152587893,-9.569000244140623,-0.8510000109672546
1622101956170,2.1700000762939453,4.199999809265137,-7.290999889373779,1.0590000152587893,-9.652999877929688,-0.8259999752044677
1622101956180,2.5199999809265137,4.439000129699707,-7.035999774932861,1.0590000152587893,-9.652999877929688,-0.8259999752044677
1622101956190,2.5899999141693115,4.560999870300293,-6.517000198364258,1.0199999809265137,-9.6850004196167,-0.8709999918937683
1622101956200,2.240000009536743,4.710999965667725,-6.561999797821045,1.0199999809265137,-9.69200038909912,-0.8330000042915344
1622101956210,1.8899999856948853,4.85699987411499,-6.179999828338623,1.0590000152587893,-9.704999923706056,-0.7549999952316284
1622101956220,1.6799999475479126,5.0269999504089355,-5.936999797821045,1.0199999809265137,-9.704999923706056,-0.7549999952316284
1622101956230,1.5399999618530271,4.841000080108643,-5.685999870300293,0.981000006198883,-9.744000434875488,-0.762000024318695
1622101956240,1.399999976158142,4.891499996185303,-5.570499897003174,0.981000006198883,-9.711999893188477,-0.7170000076293945
1622101956250,1.2599999904632568,4.941999912261963,-5.454999923706055,0.981000006198883,-9.711999893188477,-0.7170000076293945
1622101956260,1.399999976158142,5.072000026702881,-5.7870001792907715,0.981000006198883,-9.711999893188477,-0.7170000076293945
1622101956270,1.4700000286102295,4.864999771118164,-5.823999881744385,0.981000006198883,-9.75100040435791,-0.7239999771118164
1622101956280,1.3300000429153442,5.144999980926514,-6.201000213623047,0.981000006198883,-9.744000434875488,-0.762000024318695
1622101956290,0.6299999952316284,5.067999839782715,-6.570000171661377,0.9409999847412108,-9.75100040435791,-0.7239999771118164
1622101956300,0.1400000005960464,5.752999782562256,-7.230999946594238,0.981000006198883,-9.744000434875488,-0.762000024318695
1622101956310,-0.1400000005960464,5.764999866485596,-7.300000190734864,1.0199999809265137,-9.79599952697754,-0.6919999718666076
1622101956320,-0.5600000023841857,6.020999908447266,-6.330999851226807,1.0199999809265137,-9.758000373840332,-0.6850000023841857
1622101956330,-0.4199999868869781,6.361000061035156,-5.843999862670898,0.981000006198883,-9.67300033569336,-0.7099999785423278
1622101956340,-0.4900000095367431,6.507999897003174,-5.4629998207092285,0.9409999847412108,-9.68000030517578,-0.6710000038146972
1622101956350,-0.8399999737739563,6.24399995803833,-5.580999851226807,0.981000006198883,-9.67300033569336,-0.7099999785423278
1622101956360,-1.0499999523162842,6.276000022888184,-5.361999988555908,1.0199999809265137,-9.704999923706056,-0.7549999952316284
1622101956370,-1.3300000429153442,6.589000225067139,-5.519999980926514,1.0199999809265137,-9.744000434875488,-0.762000024318695
1622101956380,-1.5399999618530271,6.750999927520752,-5.632999897003174,0.981000006198883,-9.666999816894531,-0.7490000128746032
1622101956390,-1.5399999618530271,6.576000213623047,-5.451000213623047,1.0199999809265137,-9.697999954223633,-0.7940000295639038
1622101956400,-1.1200000047683716,5.997000217437744,-4.984000205993652,0.981000006198883,-9.697999954223633,-0.7940000295639038
1622101956410,-1.8200000524520872,5.486000061035156,-4.50600004196167,0.981000006198883,-9.65999984741211,-0.787000000476837
1622101956420,-1.8200000524520872,5.173999786376953,-4.3480000495910645,1.0199999809265137,-9.652999877929688,-0.8259999752044677
1622101956430,-1.6100000143051147,4.877999782562256,-4.684000015258789,0.981000006198883,-9.652999877929688,-0.8259999752044677
1622101956440,-1.2599999904632568,4.7270002365112305,-4.639999866485596,0.9409999847412108,-9.65999984741211,-0.787000000476837
1622101956450,-1.0499999523162842,4.75600004196167,-5.203000068664551,0.9409999847412108,-9.666999816894531,-0.7490000128746032
1622101956460,-0.8399999737739563,4.480000019073486,-5.251999855041504,0.9409999847412108,-9.704999923706056,-0.7549999952316284
1622101956470,-0.8049999475479126,4.326000213623047,-5.385499954223633,0.9020000100135804,-9.628000259399414,-0.7419999837875366
1622101956480,-0.7699999809265136,4.171999931335449,-5.519000053405762,0.9409999847412108,-9.67300033569336,-0.7099999785423278
1622101956490,-0.4199999868869781,3.82699990272522,-5.579999923706055,0.9409999847412108,-9.65999984741211,-0.787000000476837
1622101956500,-0.3499999940395355,3.6689999103546143,-5.892000198364258,0.8629999756813049,-9.69200038909912,-0.8330000042915344
1622101956510,-0.3499999940395355,3.76200008392334,-6.01800012588501,0.8629999756813049,-9.697999954223633,-0.7940000295639038
1622101956520,-0.3499999940395355,3.5799999237060547,-6.191999912261963,0.8629999756813049,-9.776000022888184,-0.8080000281333923
1622101956530,-0.6299999952316284,3.5269999504089355,-6.698999881744385,0.9020000100135804,-9.782999992370604,-0.7689999938011169
1622101956540,-1.2599999904632568,3.8510000705718994,-6.926000118255615,0.9020000100135804,-9.788999557495115,-0.7300000190734863
1622101956550,-1.8200000524520872,3.7660000324249263,-6.443999767303467,0.9020000100135804,-9.788999557495115,-0.7300000190734863
1622101956560,-2.309999942779541,3.503000020980835,-6.560999870300293,0.9020000100135804,-9.782999992370604,-0.7689999938011169
1622101956570,-2.5199999809265137,2.947000026702881,-6.232999801635742,0.9020000100135804,-9.744000434875488,-0.762000024318695
1622101956580,-3.1500000953674316,3.2709999084472656,-6.460000038146973,0.9020000100135804,-9.744000434875488,-0.762000024318695
1622101956590,-3.2899999618530273,3.49399995803833,-6.918000221252441,0.8629999756813049,-9.744000434875488,-0.762000024318695
1622101956600,-3.6400001049041744,3.884000062942505,-6.706999778747559,0.8629999756813049,-9.744000434875488,-0.762000024318695
1622101956610,-3.569999933242798,3.546999931335449,-6.410999774932861,0.8240000009536743,-9.737000465393066,-0.8009999990463256
1622101956620,-3.5,3.8469998836517334,-6.500999927520752,0.8240000009536743,-9.737000465393066,-0.8009999990463256
1622101956630,-3.7100000381469727,4.111000061035156,-6.382999897003174,0.8629999756813049,-9.722999572753906,-0.8780000209808348
1622101956640,-3.7100000381469727,4.374000072479248,-6.265999794006348,0.8629999756813049,-9.6850004196167,-0.8709999918937683
1622101956650,-3.7100000381469727,4.48799991607666,-6.103000164031982,0.8629999756813049,-9.645999908447264,-0.8640000224113464
1622101956660,-3.430000066757202,4.698999881744385,-6.493000030517578,0.8240000009536743,-9.638999938964846,-0.902999997138977
1622101956670,-3.2200000286102295,4.918000221252441,-6.525000095367432,0.7850000262260437,-9.593999862670898,-0.9350000023841856
1622101956680,-3.1500000953674316,5.172999858856201,-6.763999938964844,0.8240000009536743,-9.593999862670898,-0.9350000023841856
1622101956690,-2.7300000190734863,5.498000144958496,-6.992000102996826,0.8240000009536743,-9.593999862670898,-0.9350000023841856
1622101956700,-2.309999942779541,5.729000091552734,-7.0929999351501465,0.8629999756813049,-9.593999862670898,-0.9350000023841856
1622101956710,-1.8899999856948853,6.105999946594238,-6.813000202178955,0.8240000009536743,-9.593999862670898,-0.9350000023841856
1622101956720,-1.5049999952316284,6.140500068664551,-6.807000160217285,0.8240000009536743,-9.55500030517578,-0.9279999732971193
1622101956730,-1.1200000047683716,6.175000190734863,-6.801000118255615,0.8629999756813049,-9.593999862670898,-0.9350000023841856
1622101956740,-0.4900000095367431,6.215000152587891,-7.434000015258789,0.8629999756813049,-9.593999862670898,-0.9350000023841856
1622101956750,0.4900000095367431,5.910999774932861,-8.126999855041504,0.8240000009536743,-9.579999923706056,-1.0119999647140503
1622101956760,0.9800000190734864,5.656000137329102,-7.888000011444091,0.8240000009536743,-9.607999801635742,-0.8579999804496765
1622101956770,1.3300000429153442,5.427999973297119,-8.211999893188477,0.8240000009536743,-9.583000183105469,-0.7739999890327453
1622101956780,1.6100000143051147,5.302999973297119,-8.305000305175781,0.8629999756813049,-9.652999877929688,-0.8259999752044677
1622101956790,1.8899999856948853,4.98199987411499,-8.503999710083008,0.9020000100135804,-9.722999572753906,-0.8780000209808348
1622101956800,1.8899999856948853,4.86899995803833,-8.666000366210938,0.9020000100135804,-9.717000007629396,-0.9169999957084656
1622101956810,1.4700000286102295,5.184999942779541,-9.25,0.8629999756813049,-9.717000007629396,-0.9169999957084656
1622101956820,1.190000057220459,4.848999977111816,-8.954000473022461,0.981000006198883,-9.6850004196167,-0.8709999918937683
1622101956830,0.9800000190734864,4.6539998054504395,-9.059000015258787,0.981000006198883,-9.645999908447264,-0.8640000224113464
1622101956840,1.1200000047683716,4.685999870300293,-8.840999603271484,0.981000006198883,-9.6850004196167,-0.8709999918937683
1622101956850,1.2599999904632568,4.673999786376953,-8.772000312805176,0.981000006198883,-9.652999877929688,-0.8259999752044677
1622101956860,1.0499999523162842,4.313000202178955,-8.338000297546387,0.981000006198883,-9.69200038909912,-0.8330000042915344
1622101956870,1.2599999904632568,3.9690001010894775,-8.39799976348877,0.981000006198883,-9.652999877929688,-0.8259999752044677
1622101956880,1.3300000429153442,4.050000190734863,-8.454999923706055,0.9409999847412108,-9.666999816894531,-0.7490000128746032
1622101956890,1.190000057220459,3.82699990272522,-7.997000217437744,0.9409999847412108,-9.729999542236328,-0.8389999866485595
1622101956900,0.9800000190734864,3.7820000648498535,-8.147000312805176,0.981000006198883,-9.76900005340576,-0.8460000157356262
1622101956910,0.4900000095367431,3.7820000648498535,-8.147000312805176,1.0199999809265137,-9.814000129699709,-0.8140000104904174
1622101956920,0.6299999952316284,3.619999885559082,-8.032999992370605,0.981000006198883,-9.776000022888184,-0.8080000281333923
1622101956930,0.3499999940395355,3.7699999809265137,-8.07800006866455,1.0199999809265137,-9.697999954223633,-0.7940000295639038
1622101956940,0.1400000005960464,4.211999893188477,-7.360000133514405,0.981000006198883,-9.69200038909912,-0.8330000042915344
1622101956950,0.4199999868869781,4.000999927520752,-6.9710001945495605,0.981000006198883,-9.65999984741211,-0.787000000476837
1622101956959,0.2800000011920929,4.013000011444092,-7.039999961853027,0.9409999847412108,-9.65999984741211,-0.787000000476837
1622101956969,0.4900000095367431,4.073999881744385,-7.385000228881835,0.981000006198883,-9.652999877929688,-0.8259999752044677
1622101956979,0.524999976158142,4.079999923706055,-7.419500350952148,0.9409999847412108,-9.621000289916992,-0.7799999713897705
1622101956989,0.5600000023841857,4.085999965667725,-7.453999996185303,0.9409999847412108,-9.69200038909912,-0.8330000042915344
1622101956999,0.3499999940395355,4.354000091552734,-7.762000083923339,0.981000006198883,-9.69200038909912,-0.8330000042915344
1622101957009,0.0700000002980232,4.698999881744385,-7.701000213623046,0.9409999847412108,-9.697999954223633,-0.7940000295639038
1622101957019,0.3499999940395355,4.90500020980835,-7.664999961853027,0.981000006198883,-9.758000373840332,-0.6850000023841857
1622101957029,0.2800000011920929,4.938000202178955,-7.44600009918213,0.9409999847412108,-9.68000030517578,-0.6710000038146972
1622101957039,0.1400000005960464,4.519999980926514,-7.0929999351501465,0.981000006198883,-9.666999816894531,-0.7490000128746032
1622101957049,0.2800000011920929,4.269000053405762,-7.27899980545044,1.0199999809265137,-9.704999923706056,-0.7549999952316284
1622101957059,0.4900000095367431,4.244999885559082,-7.140999794006348,1.0199999809265137,-9.697999954223633,-0.7940000295639038
1622101957069,0.4900000095367431,3.9449999332427974,-7.052000045776367,0.981000006198883,-9.666999816894531,-0.7490000128746032
1622101957079,0.4199999868869781,4.033999919891357,-6.751999855041504,1.0199999809265137,-9.704999923706056,-0.7549999952316284
1622101957089,0.0,3.8589999675750737,-6.570000171661377,0.981000006198883,-9.744000434875488,-0.762000024318695
1622101957099,0.0700000002980232,3.3970000743865967,-6.367000102996826,0.981000006198883,-9.744000434875488,-0.762000024318695
1622101957109,0.0700000002980232,3.4700000286102295,-6.78000020980835,0.9409999847412108,-9.711999893188477,-0.7170000076293945
1622101957119,-0.2800000011920929,3.5269999504089355,-6.698999881744385,0.9409999847412108,-9.711999893188477,-0.7170000076293945
1622101957129,-0.1400000005960464,3.7699999809265137,-6.869999885559082,0.9409999847412108,-9.75100040435791,-0.7239999771118164
1622101957139,-0.4199999868869781,3.7460000514984126,-6.73199987411499,0.9409999847412108,-9.75100040435791,-0.7239999771118164
1622101957149,-0.4199999868869781,3.83899998664856,-6.857999801635742,0.9020000100135804,-9.704999923706056,-0.7549999952316284
1622101957159,-0.6299999952316284,4.4029998779296875,-6.828999996185303,0.9409999847412108,-9.711999893188477,-0.7170000076293945
1622101957169,-0.9800000190734864,4.605999946594238,-6.367000102996826,0.8629999756813049,-9.711999893188477,-0.7170000076293945
1622101957179,-1.3300000429153442,4.51200008392334,-6.241000175476074,0.8629999756813049,-9.666999816894531,-0.7490000128746032
1622101957189,-1.1200000047683716,4.86899995803833,-6.249000072479248,0.8629999756813049,-9.67300033569336,-0.7099999785423278
1622101957199,-1.4700000286102295,4.730999946594238,-6.27400016784668,0.9020000100135804,-9.711999893188477,-0.7170000076293945
1622101957209,-1.4700000286102295,5.132999897003174,-6.131999969482422,0.9020000100135804,-9.75100040435791,-0.7239999771118164
1622101957219,-1.6799999475479126,5.067999839782715,-6.570000171661377,0.9409999847412108,-9.75100040435791,-0.7239999771118164
1622101957229,-1.6100000143051147,5.072000026702881,-6.995999813079834,0.9409999847412108,-9.744000434875488,-0.762000024318695
1622101957239,-1.6449999809265137,5.301000118255615,-6.884499549865723,0.9409999847412108,-9.744000434875488,-0.762000024318695
1622101957249,-1.6799999475479126,5.53000020980835,-6.7729997634887695,0.9409999847412108,-9.744000434875488,-0.762000024318695
1622101957259,-2.0999999046325684,5.392000198364258,-6.796999931335449,0.981000006198883,-9.75100040435791,-0.7239999771118164
1622101957269,-2.5899999141693115,5.26200008392334,-6.464000225067139,0.981000006198883,-9.744000434875488,-0.762000024318695
1622101957279,-2.309999942779541,5.574999809265137,-6.623000144958496,0.981000006198883,-9.697999954223633,-0.7940000295639038
1622101957289,-2.5199999809265137,5.395999908447266,-6.013999938964844,0.9409999847412108,-9.697999954223633,-0.7940000295639038
1622101957299,-2.6600000858306885,4.994999885559082,-6.156000137329102,0.9409999847412108,-9.6850004196167,-0.8709999918937683
1622101957309,-2.5199999809265137,5.0879998207092285,-6.2820000648498535,0.981000006198883,-9.69200038909912,-0.8330000042915344
1622101957319,-2.7300000190734863,5.056000232696533,-6.500999927520752,0.981000006198883,-9.75100040435791,-0.7239999771118164
1622101957329,-2.5199999809265137,5.400000095367432,-6.440000057220459,0.981000006198883,-9.697999954223633,-0.7940000295639038
1622101957339,-2.380000114440918,5.343999862670898,-6.520999908447266,0.9409999847412108,-9.697999954223633,-0.7940000295639038
1622101957349,-2.5899999141693115,4.974999904632568,-6.443999767303467,0.9409999847412108,-9.697999954223633,-0.7940000295639038
1622101957359,-2.450000047683716,5.099999904632568,-6.35099983215332,0.9409999847412108,-9.697999954223633,-0.7940000295639038
1622101957369,-2.5199999809265137,5.295000076293945,-6.244999885559082,0.9409999847412108,-9.69200038909912,-0.8330000042915344
1622101957379,-2.240000009536743,5.107999801635742,-5.99399995803833,0.9409999847412108,-9.652999877929688,-0.8259999752044677
1622101957389,-1.9600000381469729,4.86899995803833,-6.249000072479248,0.9409999847412108,-9.69200038909912,-0.8330000042915344
1622101957399,-2.0999999046325684,4.836999893188477,-6.4679999351501465,0.9020000100135804,-9.737000465393066,-0.8009999990463256
1622101957409,-2.380000114440918,4.803999900817871,-6.686999797821045,0.9409999847412108,-9.69200038909912,-0.8330000042915344
1622101957419,-2.5199999809265137,4.815999984741211,-6.75600004196167,0.9409999847412108,-9.6850004196167,-0.8709999918937683
1622101957429,-2.6600000858306885,4.961999893188477,-6.375,0.9409999847412108,-9.69200038909912,-0.8330000042915344
1622101957439,-2.5199999809265137,4.974999904632568,-6.443999767303467,0.9409999847412108,-9.678000450134276,-0.9100000262260436
1622101957449,-2.380000114440918,5.067999839782715,-6.570000171661377,1.0199999809265137,-9.6850004196167,-0.8709999918937683
1622101957459,-2.240000009536743,4.953999996185303,-6.73199987411499,0.9409999847412108,-9.65999984741211,-0.787000000476837
1622101957469,-1.6100000143051147,4.873000144958496,-6.675000190734863,0.981000006198883,-9.65999984741211,-0.787000000476837
1622101957479,-1.5750000476837158,4.802000045776367,-6.4745001792907715,0.9409999847412108,-9.61400032043457,-0.8190000057220459
1622101957489,-1.5399999618530271,4.730999946594238,-6.27400016784668,0.9409999847412108,-9.652999877929688,-0.8259999752044677
1622101957499,-1.5399999618530271,4.548999786376953,-6.447999954223633,0.9409999847412108,-9.638999938964846,-0.902999997138977
1622101957509,-1.75,4.642000198364258,-6.573999881744385,0.9020000100135804,-9.722999572753906,-0.8780000209808348
1622101957519,-1.399999976158142,4.864999771118164,-7.0320000648498535,0.9020000100135804,-9.722999572753906,-0.8780000209808348
1622101957529,-1.0499999523162842,5.245999813079834,-7.177999973297119,0.9409999847412108,-9.722999572753906,-0.8780000209808348
1622101957539,-1.399999976158142,5.659999847412109,-7.105000019073486,0.9409999847412108,-9.722999572753906,-0.8780000209808348
1622101957549,-0.9800000190734864,5.894999980926514,-6.423999786376953,0.9020000100135804,-9.6850004196167,-0.8709999918937683
1622101957559,-0.9100000262260436,5.486000061035156,-5.714000225067139,0.9409999847412108,-9.6850004196167,-0.8709999918937683
1622101957569,-0.9800000190734864,5.578999996185303,-5.840000152587891,0.981000006198883,-9.666999816894531,-0.7490000128746032
1622101957579,-1.190000057220459,5.611000061035156,-5.620999813079834,0.9409999847412108,-9.65999984741211,-0.787000000476837
1622101957589,-1.2599999904632568,5.521999835968018,-5.921000003814697,0.9020000100135804,-9.65999984741211,-0.787000000476837
1622101957599,-0.9800000190734864,5.550000190734863,-6.485000133514404,0.9020000100135804,-9.652999877929688,-0.8259999752044677
1622101957609,-0.9800000190734864,5.380000114440918,-6.728000164031982,0.9020000100135804,-9.69200038909912,-0.8330000042915344
1622101957619,-0.9100000262260436,4.909999847412109,-6.881999969482422,0.9020000100135804,-9.722999572753906,-0.8780000209808348
1622101957629,-1.1200000047683716,4.921999931335449,-6.951000213623047,0.9020000100135804,-9.6850004196167,-0.8709999918937683
1622101957639,-1.190000057220459,4.738999843597412,-7.125,0.9409999847412108,-9.6850004196167,-0.8709999918937683
1622101957649,-1.190000057220459,4.622000217437744,-6.861999988555908,0.9409999847412108,-9.722999572753906,-0.8780000209808348
1622101957659,-1.4700000286102295,4.828999996185303,-6.824999809265137,0.9020000100135804,-9.729999542236328,-0.8389999866485595
1622101957669,-1.6100000143051147,4.885000228881836,-6.74399995803833,0.9409999847412108,-9.762000083923342,-0.8849999904632568
1622101957679,-1.6799999475479126,4.896999835968018,-6.813000202178955,0.9020000100135804,-9.722999572753906,-0.8780000209808348
1622101957689,-1.5399999618530271,5.069499969482422,-6.782500267028809,0.9409999847412108,-9.6850004196167,-0.8709999918937683
1622101957699,-1.399999976158142,5.242000102996826,-6.751999855041504,0.9409999847412108,-9.638999938964846,-0.902999997138977
1622101957709,-1.399999976158142,5.160999774932861,-6.696000099182129,0.9409999847412108,-9.645999908447264,-0.8640000224113464
1622101957719,-1.2599999904632568,5.2870001792907715,-6.6020002365112305,0.9020000100135804,-9.607999801635742,-0.8579999804496765
1622101957729,-0.9800000190734864,5.395999908447266,-7.223000049591064,0.981000006198883,-9.638999938964846,-0.902999997138977
1622101957739,-0.8399999737739563,5.448999881744385,-6.716000080108643,0.981000006198883,-9.652999877929688,-0.8259999752044677
1622101957749,-0.8399999737739563,5.205999851226807,-6.545000076293945,0.981000006198883,-9.722999572753906,-0.8780000209808348
1622101957759,-0.9100000262260436,5.26200008392334,-6.464000225067139,0.981000006198883,-9.717000007629396,-0.9169999957084656
1622101957769,-0.6299999952316284,4.999000072479248,-6.581999778747559,0.981000006198883,-9.710000038146973,-0.9549999833106994
1622101957779,-0.8399999737739563,4.84499979019165,-6.111999988555908,0.981000006198883,-9.67099952697754,-0.9480000138282776
1622101957789,-0.6299999952316284,5.0229997634887695,-5.511000156402588,0.9409999847412108,-9.638999938964846,-0.902999997138977
1622101957799,-0.6299999952316284,4.610000133514404,-5.584000110626221,0.9020000100135804,-9.645999908447264,-0.8640000224113464
1622101957809,-0.2800000011920929,4.070000171661377,-5.750999927520752,0.9020000100135804,-9.678000450134276,-0.9100000262260436
1622101957819,-0.4900000095367431,3.9690001010894775,-5.98199987411499,0.8629999756813049,-9.6850004196167,-0.8709999918937683
1622101957829,-0.5600000023841857,3.8550000190734863,-6.144000053405762,0.9409999847412108,-9.6850004196167,-0.8709999918937683
1622101957839,-0.6299999952316284,3.937000036239624,-6.201000213623047,0.9020000100135804,-9.722999572753906,-0.8780000209808348
1622101957849,-1.0499999523162842,4.026000022888184,-5.901000022888184,0.8629999756813049,-9.678000450134276,-0.9100000262260436
1622101957859,-1.190000057220459,4.164000034332275,-5.875999927520752,0.8240000009536743,-9.678000450134276,-0.9100000262260436
1622101957869,-1.399999976158142,4.083000183105469,-5.818999767303467,0.8629999756813049,-9.722999572753906,-0.8780000209808348
1622101957879,-1.3300000429153442,4.6020002365112305,-5.940999984741211,0.8629999756813049,-9.717000007629396,-0.9169999957084656
1622101957889,-1.3300000429153442,4.689000129699707,-6.032500267028809,0.8240000009536743,-9.717000007629396,-0.9169999957084656
1622101957899,-1.3300000429153442,4.776000022888184,-6.124000072479248,0.8629999756813049,-9.67099952697754,-0.9480000138282776
1622101957909,-1.3300000429153442,4.808000087738037,-5.90500020980835,0.8629999756813049,-9.678000450134276,-0.9100000262260436
1622101957919,-1.190000057220459,4.876999855041504,-5.89300012588501,0.9020000100135804,-9.678000450134276,-0.9100000262260436
1622101957929,-0.699999988079071,5.067999839782715,-6.570000171661377,0.9020000100135804,-9.6850004196167,-0.8709999918937683
1622101957939,-0.5600000023841857,4.938000202178955,-6.236999988555908,0.9020000100135804,-9.717000007629396,-0.9169999957084656
1622101957949,-0.5600000023841857,4.938000202178955,-6.236999988555908,0.9020000100135804,-9.678000450134276,-0.9100000262260436
1622101957959,-0.4900000095367431,5.193999767303467,-6.4770002365112305,0.9409999847412108,-9.638999938964846,-0.902999997138977
1622101957969,-0.3499999940395355,4.941999912261963,-6.663000106811523,0.9020000100135804,-9.717000007629396,-0.9169999957084656
1622101957979,-0.6299999952316284,4.791999816894531,-6.618000030517578,0.8240000009536743,-9.717000007629396,-0.9169999957084656
1622101957989,-0.5600000023841857,4.3420000076293945,-6.485000133514404,0.9409999847412108,-9.722999572753906,-0.8780000209808348
1622101957999,-0.6299999952316284,4.419000148773193,-6.116000175476074,0.981000006198883,-9.678000450134276,-0.9100000262260436
1622101958009,-0.699999988079071,4.504000186920166,-6.5980000495910645,0.9020000100135804,-9.678000450134276,-0.9100000262260436
1622101958019,-0.5600000023841857,4.329999923706055,-6.415999889373779,0.9409999847412108,-9.67099952697754,-0.9480000138282776
1622101958029,-0.9800000190734864,3.973000049591065,-6.4070000648498535,0.9409999847412108,-9.633000373840332,-0.9419999718666076
1622101958039,-0.8399999737739563,3.8919999599456783,-6.35099983215332,0.9020000100135804,-9.678000450134276,-0.9100000262260436
1622101958049,-0.5600000023841857,3.924000024795532,-6.131999969482422,0.9409999847412108,-9.678000450134276,-0.9100000262260436
1622101958059,-0.1400000005960464,3.7539999485015874,-6.375,0.9409999847412108,-9.717000007629396,-0.9169999957084656
1622101958069,-0.2100000083446502,3.677000045776367,-6.140000343322754,0.9409999847412108,-9.678000450134276,-0.9100000262260436
1622101958079,-0.2800000011920929,3.5999999046325684,-5.90500020980835,0.8629999756813049,-9.6850004196167,-0.8709999918937683
1622101958089,-0.4199999868869781,3.6449999809265137,-5.755000114440918,0.9020000100135804,-9.678000450134276,-0.9100000262260436
1622101958099,-0.699999988079071,3.5190000534057617,-5.8480000495910645,0.9020000100135804,-9.638999938964846,-0.902999997138977
1622101958109,-0.5600000023841857,3.555000066757202,-6.054999828338623,0.8629999756813049,-9.678000450134276,-0.9100000262260436
1622101958119,-0.7699999809265136,3.684999942779541,-6.38700008392334,0.8629999756813049,-9.717000007629396,-0.9169999957084656
1622101958129,-0.9100000262260436,3.7660000324249263,-6.443999767303467,0.9020000100135804,-9.6850004196167,-0.8709999918937683
1622101958139,-0.9800000190734864,3.7909998893737793,-6.581999778747559,0.8240000009536743,-9.678000450134276,-0.9100000262260436
1622101958149,-0.9800000190734864,4.203999996185303,-6.508999824523926,0.8629999756813049,-9.678000450134276,-0.9100000262260436
1622101958159,-0.6299999952316284,4.061999797821045,-6.10699987411499,0.8629999756813049,-9.607999801635742,-0.8579999804496765
1622101958169,-0.3499999940395355,3.9330000877380367,-5.775000095367432,0.8629999756813049,-9.61400032043457,-0.8190000057220459
1622101958179,-0.2800000011920929,3.71399998664856,-5.742000102996826,0.8629999756813049,-9.652999877929688,-0.8259999752044677
1622101958189,-0.0700000002980232,3.461999893188477,-5.928999900817871,0.8629999756813049,-9.652999877929688,-0.8259999752044677
1622101958199,-0.2800000011920929,3.243000030517578,-5.895999908447266,0.8629999756813049,-9.652999877929688,-0.8259999752044677
1622101958209,-0.4199999868869781,3.361000061035156,-6.159999847412109,0.8629999756813049,-9.645999908447264,-0.8640000224113464
1622101958219,-0.4199999868869781,3.239000082015991,-6.678999900817871,0.8240000009536743,-9.69200038909912,-0.8330000042915344
1622101958229,-0.4199999868869781,3.2750000953674316,-6.886000156402588,0.8629999756813049,-9.69200038909912,-0.8330000042915344
1622101958239,-0.3499999940395355,3.6319999694824214,-6.894000053405762,0.8240000009536743,-9.729999542236328,-0.8389999866485595
1622101958249,-0.6299999952316284,3.7260000705718994,-7.019999980926514,0.8240000009536743,-9.729999542236328,-0.8389999866485595
1622101958259,-0.9449999928474426,3.908500194549561,-6.8454999923706055,0.8240000009536743,-9.729999542236328,-0.8389999866485595
1622101958269,-1.2599999904632568,4.091000080108643,-6.671000003814697,0.8240000009536743,-9.729999542236328,-0.8389999866485595
1622101958279,-1.75,4.5279998779296875,-6.736000061035156,0.7450000047683715,-9.722999572753906,-0.8780000209808348
1622101958289,-1.9600000381469729,4.953999996185303,-6.73199987411499,0.8240000009536743,-9.729999542236328,-0.8389999866485595
1622101958299,-1.8200000524520872,5.380000114440918,-6.728000164031982,0.8240000009536743,-9.722999572753906,-0.8780000209808348
1622101958309,-1.8899999856948853,5.436999797821045,-6.646999835968018,0.7850000262260437,-9.722999572753906,-0.8780000209808348
1622101958319,-1.75,5.943999767303467,-6.699999809265137,0.7850000262260437,-9.6850004196167,-0.8709999918937683
1622101958329,-1.6799999475479126,5.919000148773193,-6.561999797821045,0.8629999756813049,-9.645999908447264,-0.8640000224113464
1622101958339,-1.6100000143051147,6.0,-6.61899995803833,0.8629999756813049,-9.678000450134276,-0.9100000262260436
1622101958349,-1.2599999904632568,6.008999824523926,-6.26200008392334,0.9020000100135804,-9.717000007629396,-0.9169999957084656
1622101958359,-1.2599999904632568,6.215000152587891,-6.224999904632568,0.8629999756813049,-9.748000144958496,-0.962000012397766
1622101958369,-1.6799999475479126,5.882999897003174,-6.355000019073486,0.9020000100135804,-9.710000038146973,-0.9549999833106994
1622101958379,-2.0999999046325684,5.60699987411499,-6.4039998054504395,0.8629999756813049,-9.748000144958496,-0.962000012397766
1622101958389,-2.5199999809265137,5.639999866485596,-6.184999942779541,0.9020000100135804,-9.710000038146973,-0.9549999833106994
1622101958399,-2.7300000190734863,5.428999900817871,-5.795000076293945,0.8629999756813049,-9.663999557495115,-0.9869999885559082
1622101958409,-2.7300000190734863,4.979000091552734,-5.660999774932861,0.9020000100135804,-9.633000373840332,-0.9419999718666076
1622101958419,-2.799999952316284,4.690999984741211,-5.640999794006348,0.8629999756813049,-9.678000450134276,-0.9100000262260436
1622101958429,-2.5199999809265137,4.876999855041504,-5.89300012588501,0.8240000009536743,-9.67099952697754,-0.9480000138282776
1622101958439,-2.5199999809265137,4.980500221252441,-5.874500274658203,0.8629999756813049,-9.663999557495115,-0.9869999885559082
1622101958449,-2.5199999809265137,5.084000110626221,-5.855999946594238,0.8629999756813049,-9.67099952697754,-0.9480000138282776
1622101958459,-2.309999942779541,5.052000045776367,-6.074999809265137,0.8240000009536743,-9.67099952697754,-0.9480000138282776
1622101958469,-2.450000047683716,5.107999801635742,-5.99399995803833,0.8240000009536743,-9.70300006866455,-0.9940000176429749
1622101958479,-2.380000114440918,5.440999984741211,-5.863999843597412,0.8240000009536743,-9.696000099182127,-1.0329999923706057
1622101958489,-2.0299999713897705,5.327000141143799,-6.026000022888184,0.8629999756813049,-9.663999557495115,-0.9869999885559082
1622101958499,-1.8899999856948853,5.2829999923706055,-6.176000118255615,0.8240000009536743,-9.70300006866455,-0.9940000176429749
1622101958509,-1.6100000143051147,5.741000175476074,-5.953999996185303,0.8240000009536743,-9.696000099182127,-1.0329999923706057
1622101958519,-1.6100000143051147,5.355999946594238,-5.381999969482422,0.8240000009536743,-9.651000022888184,-1.0640000104904177
1622101958529,-1.399999976158142,5.574999809265137,-5.414000034332275,0.7850000262260437,-9.696000099182127,-1.0329999923706057
1622101958539,-0.9800000190734864,5.468999862670898,-5.21999979019165,0.7850000262260437,-9.657999992370604,-1.0260000228881836
1622101958549,-0.7699999809265136,5.2829999923706055,-4.9679999351501465,0.8240000009536743,-9.62600040435791,-0.9800000190734864
1622101958559,-0.699999988079071,5.193999767303467,-5.26800012588501,0.8629999756813049,-9.67099952697754,-0.9480000138282776
1622101958569,-0.5600000023841857,5.067999839782715,-5.361000061035156,0.8629999756813049,-9.67099952697754,-0.9480000138282776
1622101958579,-0.699999988079071,4.678999900817871,-5.572000026702881,0.7850000262260437,-9.657999992370604,-1.0260000228881836
1622101958589,-0.5600000023841857,4.464000225067139,-5.966000080108643,0.7850000262260437,-9.657999992370604,-1.0260000228881836
1622101958599,-0.6299999952316284,4.52400016784668,-6.309999942779541,0.8240000009536743,-9.62600040435791,-0.9800000190734864
1622101958609,-0.4900000095367431,4.306000232696533,-6.2779998779296875,0.8240000009536743,-9.62600040435791,-0.9800000190734864
1622101958619,-0.1400000005960464,4.058000087738037,-6.889999866485596,0.7850000262260437,-9.62600040435791,-0.9800000190734864
1622101958628,-0.1400000005960464,3.437999963760376,-6.999000072479248,0.7850000262260437,-9.62600040435791,-0.9800000190734864
1622101958638,0.1049999967217445,3.3910000324249268,-6.936500072479248,0.7850000262260437,-9.62600040435791,-0.9800000190734864
1622101958648,0.3499999940395355,3.3440001010894775,-6.874000072479248,0.7850000262260437,-9.663999557495115,-0.9869999885559082
1622101958658,0.4199999868869781,3.3359999656677246,-7.230999946594238,0.7850000262260437,-9.67099952697754,-0.9480000138282776
1622101958668,0.1400000005960464,3.6930000782012935,-7.238999843597413,0.7850000262260437,-9.70300006866455,-0.9940000176429749
1622101958678,0.2800000011920929,3.624000072479248,-7.250999927520752,0.7850000262260437,-9.710000038146973,-0.9549999833106994
1622101958688,0.209999993443489,3.8510000705718994,-6.926000118255615,0.7850000262260437,-9.70300006866455,-0.9940000176429749
1622101958698,0.8399999737739563,3.989000082015991,-6.9019999504089355,0.7850000262260437,-9.710000038146973,-0.9549999833106994
1622101958708,0.5600000023841857,4.103000164031982,-6.739999771118164,0.7850000262260437,-9.70300006866455,-0.9940000176429749
1622101958718,0.2800000011920929,4.422999858856201,-6.540999889373779,0.7850000262260437,-9.748000144958496,-0.962000012397766
1622101958728,0.209999993443489,4.642000198364258,-6.573999881744385,0.7850000262260437,-9.70300006866455,-0.9940000176429749
1622101958738,0.0700000002980232,4.934000015258789,-7.019999980926514,0.7850000262260437,-9.717000007629396,-0.9169999957084656
1622101958748,0.3499999940395355,5.107999801635742,-7.202000141143799,0.7850000262260437,-9.6850004196167,-0.8709999918937683
1622101958758,0.699999988079071,5.084000110626221,-7.065000057220459,0.7850000262260437,-9.6850004196167,-0.8709999918937683
1622101958768,0.699999988079071,5.184999942779541,-6.833000183105469,0.8240000009536743,-9.69200038909912,-0.8330000042915344
1622101958778,0.8399999737739563,4.7230000495910645,-6.63100004196167,0.8629999756813049,-9.645999908447264,-0.8640000224113464
1622101958788,1.3300000429153442,4.2769999504089355,-6.921999931335449,0.8240000009536743,-9.717000007629396,-0.9169999957084656
1622101958798,1.2599999904632568,4.10699987411499,-7.165999889373779,0.8240000009536743,-9.717000007629396,-0.9169999957084656
1622101958808,1.1200000047683716,4.078000068664551,-7.809999942779541,0.7850000262260437,-9.762000083923342,-0.8849999904632568
1622101958818,0.9800000190734864,4.377999782562256,-7.900000095367432,0.8240000009536743,-9.776000022888184,-0.8080000281333923
1622101958828,0.7699999809265136,4.058000087738037,-8.097999572753906,0.8240000009536743,-9.76900005340576,-0.8460000157356262
1622101958838,0.6649999618530273,4.265000343322754,-8.06149959564209,0.8629999756813049,-9.821000099182127,-0.7760000228881835
1622101958848,0.5600000023841857,4.4720001220703125,-8.024999618530273,0.8240000009536743,-9.80799961090088,-0.8529999852180481
1622101958858,-0.209999993443489,4.4070000648498535,-7.255000114440918,0.8240000009536743,-9.762000083923342,-0.8849999904632568
1622101958868,-1.0499999523162842,4.613999843597412,-7.218999862670899,0.7850000262260437,-9.717000007629396,-0.9169999957084656
