timestamp,gyro_x,gyro_y,gyro_z,acc_x,acc_y,acc_z
1621841985713,0.0,0.0,0.0,0.0,0.0,0.0
1621841985722,2.450000047683716,-4.550000190734863,-5.636000156402588,0.8629999756813049,-9.89400005340576,0.0879999995231628
1621841985732,1.6100000143051147,-5.000999927520752,-5.501999855041504,0.8240000009536743,-9.770999908447264,0.0700000002980232
1621841985742,0.9800000190734864,-5.336999893188477,-5.205999851226807,0.7850000262260437,-9.732000350952148,0.0759999975562095
1621841985752,0.699999988079071,-5.589000225067139,-5.392000198364258,0.7450000047683715,-9.668999671936035,0.1669999957084655
1621841985762,0.9800000190734864,-5.961999893188477,-4.888999938964844,0.7450000047683715,-9.668999671936035,0.1669999957084655
1621841985772,1.75,-5.883999824523926,-4.519999980926514,0.7059999704360961,-9.637000083923342,0.2129999995231628
1621841985782,2.450000047683716,-5.734000205993652,-4.565000057220459,0.7059999704360961,-9.682000160217283,0.2440000027418136
1621841985792,2.4850001335144043,-5.385499954223633,-4.326000213623047,0.6669999957084655,-9.720999717712402,0.2380000054836273
1621841985802,2.5199999809265137,-5.0370001792907715,-4.086999893188477,0.6669999957084655,-9.753000259399414,0.19200000166893
1621841985812,2.5899999141693115,-5.283999919891357,-3.490999937057495,0.6669999957084655,-9.79800033569336,0.2240000069141387
1621841985822,2.240000009536743,-5.311999797821045,-2.927000045776367,0.7059999704360961,-9.829999923706056,0.1790000051259994
1621841985832,1.6100000143051147,-5.429999828338623,-2.663000106811523,0.6669999957084655,-9.869000434875488,0.1720000058412551
1621841985842,0.6299999952316284,-5.697999954223633,-2.3550000190734863,0.6669999957084655,-9.829999923706056,0.1790000051259994
1621841985852,-0.4199999868869781,-5.616000175476074,-2.4119999408721924,0.6280000209808348,-9.836999893188477,0.2169999927282333
1621841985862,-1.0499999523162842,-6.236999988555908,-2.5209999084472656,0.6280000209808348,-9.753000259399414,0.19200000166893
1621841985872,-1.75,-6.552999973297119,-3.1459999084472656,0.6280000209808348,-9.746000289916992,0.1539999991655349
1621841985882,-2.240000009536743,-6.869999885559082,-3.7699999809265137,0.6280000209808348,-9.734999656677246,0.3149999976158142
1621841985892,-2.240000009536743,-6.9670000076293945,-4.427000045776367,0.5490000247955322,-9.753000259399414,0.19200000166893
1621841985902,-2.380000114440918,-7.275000095367432,-4.695000171661377,0.6280000209808348,-9.727999687194824,0.2759999930858612
1621841985912,-2.0299999713897705,-7.551000118255616,-4.743000030517578,0.6280000209808348,-9.727999687194824,0.2759999930858612
1621841985922,-2.0299999713897705,-7.6479997634887695,-4.191999912261963,0.5879999995231628,-9.734999656677246,0.3149999976158142
1621841985932,-2.240000009536743,-7.469999790191651,-3.5920000076293945,0.5879999995231628,-9.76599979400635,0.2689999938011169
1621841985942,-2.450000047683716,-7.368000030517577,-3.361000061035156,0.5490000247955322,-9.76599979400635,0.2689999938011169
1621841985952,-2.869999885559082,-7.348000049591064,-3.072999954223633,0.5490000247955322,-9.80500030517578,0.2630000114440918
1621841985962,-3.009999990463257,-7.256999969482423,-2.985499858856201,0.5879999995231628,-9.80500030517578,0.2630000114440918
1621841985972,-3.1500000953674316,-7.165999889373779,-2.8980000019073486,0.5879999995231628,-9.80500030517578,0.2630000114440918
1621841985982,-3.6400001049041744,-7.0970001220703125,-2.885999917984009,0.5879999995231628,-9.79800033569336,0.2240000069141387
1621841985992,-3.6400001049041744,-6.877999782562256,-2.9189999103546143,0.5879999995231628,-9.760000228881836,0.231000006198883
1621841986002,-3.6400001049041744,-6.918000221252441,-3.49399995803833,0.6280000209808348,-9.753000259399414,0.19200000166893
1621841986012,-3.7100000381469727,-7.348000049591064,-3.072999954223633,0.6669999957084655,-9.78499984741211,0.1469999998807907
1621841986022,-3.9200000762939458,-7.566999912261963,-3.0399999618530273,0.6280000209808348,-9.753000259399414,0.19200000166893
1621841986032,-4.409999847412109,-7.947999954223632,-2.8940000534057617,0.5879999995231628,-9.753000259399414,0.19200000166893
1621841986042,-4.829999923706055,-8.333000183105469,-2.322000026702881,0.5490000247955322,-9.777999877929688,0.1080000028014183
1621841986052,-4.96999979019165,-8.345000267028809,-2.253000020980835,0.4709999859333038,-9.73900032043457,0.1150000020861625
1621841986062,-4.900000095367432,-8.312999725341797,-2.0339999198913574,0.4309999942779541,-9.68000030517578,0.006000000052154
1621841986072,-4.690000057220459,-8.27299976348877,-2.6670000553131104,0.4309999942779541,-9.73900032043457,0.1150000020861625
1621841986082,-4.690000057220459,-7.701000213623046,-3.490000009536743,0.3919999897480011,-9.746000289916992,0.1539999991655349
1621841986092,-4.690000057220459,-6.947000026702881,-4.138999938964844,0.3919999897480011,-9.791000366210936,0.1850000023841857
1621841986102,-4.760000228881836,-6.480000019073486,-3.559000015258789,0.3919999897480011,-9.829999923706056,0.1790000051259994
1621841986112,-4.690000057220459,-5.75,-2.861999988555908,0.3919999897480011,-9.836999893188477,0.2169999927282333
1621841986122,-4.690000057220459,-4.88700008392334,-2.9230000972747803,0.3919999897480011,-9.79800033569336,0.2240000069141387
1621841986132,-4.619999885559082,-4.773499965667725,-2.761000156402588,0.3919999897480011,-9.760000228881836,0.231000006198883
1621841986142,-4.550000190734863,-4.659999847412109,-2.5989999771118164,0.4309999942779541,-9.760000228881836,0.231000006198883
1621841986152,-4.480000019073486,-4.383999824523926,-2.549999952316284,0.4709999859333038,-9.720999717712402,0.2380000054836273
1621841986162,-4.130000114440918,-4.2220001220703125,-2.6640000343322754,0.5490000247955322,-9.675999641418455,0.2060000002384185
1621841986172,-3.5,-4.372000217437744,-2.61899995803833,0.5490000247955322,-9.661999702453612,0.1289999932050705
1621841986182,-2.869999885559082,-5.178999900817871,-2.4769999980926514,0.5879999995231628,-9.668999671936035,0.1669999957084655
1621841986192,-2.5899999141693115,-6.01800012588501,-2.553999900817871,0.5879999995231628,-9.675999641418455,0.2060000002384185
1621841986202,-2.309999942779541,-7.295000076293945,-2.565999984741211,0.6280000209808348,-9.720999717712402,0.2380000054836273
1621841986212,-1.9600000381469729,-8.904999732971191,-2.7070000171661377,0.5879999995231628,-9.720999717712402,0.2380000054836273
1621841986222,-1.190000057220459,-10.263999938964844,-2.663000106811523,0.5490000247955322,-9.720999717712402,0.2380000054836273
1621841986232,-0.699999988079071,-11.152000427246094,-2.4639999866485596,0.4709999859333038,-9.753000259399414,0.19200000166893
1621841986242,-0.8399999737739563,-11.288999557495115,-2.48799991607666,0.3919999897480011,-9.79800033569336,0.2240000069141387
1621841986252,-1.2599999904632568,-11.022000312805176,-2.7960000038146973,0.3529999852180481,-9.836999893188477,0.2169999927282333
1621841986262,-1.6799999475479126,-10.348999977111816,-3.388999938964844,0.3140000104904174,-9.888999938964846,0.2879999876022338
1621841986272,-2.5899999141693115,-9.21399974822998,-4.183000087738037,0.2750000059604644,-9.960000038146973,0.2349999994039535
1621841986282,-3.569999933242798,-8.496000289916992,-4.625999927520752,0.2349999994039535,-9.998000144958496,0.2290000021457672
1621841986292,-5.320000171661377,-7.308000087738037,-4.914000034332275,0.1959999948740005,-10.036999702453612,0.2220000028610229
1621841986302,-6.650000095367432,-5.89300012588501,-4.876999855041504,0.2349999994039535,-10.069000244140623,0.1759999990463256
1621841986312,-7.420000076293945,-5.655500411987305,-5.013000011444092,0.1959999948740005,-10.015999794006348,0.1059999987483024
1621841986322,-8.1899995803833,-5.418000221252441,-5.14900016784668,0.3140000104904174,-10.02299976348877,0.1449999958276748
1621841986332,-9.59000015258789,-4.656000137329102,-5.440999984741211,0.2750000059604644,-9.906999588012695,0.1650000065565109
1621841986342,-10.56999969482422,-3.2690000534057617,-6.050000190734863,0.2750000059604644,-9.89400005340576,0.0879999995231628
1621841986352,-11.130000114440918,-2.7869999408721924,-5.965000152587891,0.3140000104904174,-9.847999572753906,0.0560000017285346
1621841986362,-11.409999847412108,-2.7869999408721924,-5.965000152587891,0.3529999852180481,-9.72599983215332,0.0379999987781047
1621841986372,-11.409999847412108,-2.4179999828338623,-6.041999816894531,0.3529999852180481,-9.75699996948242,-0.0080000003799796
1621841986382,-11.0600004196167,-2.628000020980835,-5.6519999504089355,0.3529999852180481,-9.711999893188477,-0.0399999991059303
1621841986392,-10.989999771118164,-2.859999895095825,-5.551000118255615,0.3919999897480011,-9.666999816894531,-0.0710000023245811
1621841986402,-10.5,-2.546999931335449,-5.709000110626221,0.3529999852180481,-9.65999984741211,-0.1099999994039535
1621841986412,-10.010000228881836,-2.4660000801086426,-5.765999794006348,0.3529999852180481,-9.6850004196167,-0.1940000057220459
1621841986422,-9.59000015258789,-2.4089999198913574,-5.684999942779541,0.3919999897480011,-9.717000007629396,-0.2399999946355819
1621841986432,-9.239999771118164,-2.677000045776367,-5.376999855041504,0.3919999897480011,-9.717000007629396,-0.2399999946355819
1621841986442,-9.100000381469728,-2.4539999961853027,-5.835000038146973,0.3919999897480011,-9.689000129699709,-0.3939999938011169
1621841986452,-8.819999694824219,-2.499000072479248,-5.985000133514404,0.3140000104904174,-9.741999626159668,-0.3240000009536743
1621841986462,-9.170000076293944,-2.2720000743865967,-5.659999847412109,0.2750000059604644,-9.748000144958496,-0.2849999964237213
1621841986472,-8.960000038146973,-1.825000047683716,-5.36899995803833,0.1959999948740005,-9.748000144958496,-0.2849999964237213
1621841986482,-8.819999694824219,-0.9459999799728392,-5.923999786376953,0.1180000007152557,-9.779999732971191,-0.3300000131130218
1621841986492,-8.75,0.2590000033378601,-6.706999778747559,0.0780000016093254,-9.779999732971191,-0.3300000131130218
1621841986502,-8.680000305175781,1.1039999723434448,-7.268499851226807,0.0390000008046627,-9.772999763488768,-0.3689999878406524
1621841986512,-8.609999656677246,1.9490000009536743,-7.829999923706055,0.0,-9.812000274658203,-0.3759999871253967
1621841986522,-8.329999923706055,3.911999940872192,-8.479999542236328,0.0,-9.80500030517578,-0.414000004529953
1621841986532,-8.260000228881836,5.801000118255615,-8.71500015258789,0.0,-9.836999893188477,-0.4600000083446502
1621841986542,-8.470000267028809,7.171999931335449,-8.829000473022461,0.0390000008046627,-9.791999816894531,-0.492000013589859
1621841986552,-8.539999961853027,9.121999740600586,-9.409000396728516,0.0780000016093254,-9.777999877929688,-0.5690000057220459
1621841986562,-8.609999656677246,10.87399959564209,-9.668999671936035,0.1180000007152557,-9.73900032043457,-0.5619999766349792
1621841986572,-8.050000190734863,11.97700023651123,-9.473999977111816,0.1570000052452087,-9.701000213623049,-0.5550000071525573
1621841986582,-7.280000209808349,12.69499969482422,-8.708000183105469,0.2349999994039535,-9.668999671936035,-0.5099999904632568
1621841986592,-6.71999979019165,12.666999816894531,-8.144000053405762,0.2349999994039535,-9.623000144958496,-0.5419999957084655
1621841986602,-5.809999942779541,13.359999656677246,-8.447999954223633,0.2750000059604644,-9.54599952697754,-0.527999997138977
1621841986612,-4.409999847412109,13.295000076293944,-8.88599967956543,0.2349999994039535,-9.54599952697754,-0.527999997138977
1621841986622,-3.0799999237060547,13.611000061035156,-9.470000267028809,0.2750000059604644,-9.468999862670898,-0.5149999856948853
1621841986632,-1.9600000381469729,13.871000289916992,-10.135000228881836,0.3140000104904174,-9.461999893188477,-0.5529999732971191
1621841986642,-0.6299999952316284,13.972000122070312,-11.11299991607666,0.3529999852180481,-9.50100040435791,-0.5600000023841857
1621841986652,0.5600000023841857,14.425999641418455,-11.671999931335447,0.3919999897480011,-9.54599952697754,-0.527999997138977
1621841986662,1.190000057220459,14.475000381469728,-11.947999954223633,0.4309999942779541,-9.585000038146973,-0.5350000262260437
1621841986672,1.399999976158142,14.385000228881836,-12.248000144958496,0.5099999904632568,-9.623000144958496,-0.5419999957084655
1621841986682,1.75,14.385000228881836,-12.248000144958496,0.5099999904632568,-9.661999702453612,-0.5490000247955322
1621841986692,1.9600000381469729,14.105999946594238,-11.871000289916992,0.5099999904632568,-9.675999641418455,-0.4709999859333038
1621841986702,2.0999999046325684,14.300000190734863,-11.765999794006348,0.4709999859333038,-9.668999671936035,-0.5099999904632568
1621841986712,2.1700000762939453,14.340499877929688,-11.793999671936035,0.5099999904632568,-9.70699977874756,-0.5170000195503234
1621841986722,2.240000009536743,14.380999565124512,-11.821999549865724,0.5490000247955322,-9.668999671936035,-0.5099999904632568
1621841986732,2.6600000858306885,14.75,-11.89900016784668,0.5879999995231628,-9.727999687194824,-0.4009999930858612
1621841986742,3.0799999237060547,15.013999938964844,-11.781999588012695,0.5879999995231628,-9.682000160217283,-0.4329999983310699
1621841986752,3.2899999618530273,15.241000175476074,-11.45699977874756,0.6669999957084655,-9.746000289916992,-0.5239999890327453
1621841986762,3.1500000953674316,15.4399995803833,-10.569000244140623,0.7059999704360961,-9.720999717712402,-0.4390000104904174
1621841986772,3.1500000953674316,15.736000061035156,-10.232999801635742,0.6669999957084655,-9.720999717712402,-0.4390000104904174
1621841986782,3.1500000953674316,15.833000183105469,-9.576000213623049,0.7059999704360961,-9.80500030517578,-0.414000004529953
1621841986792,2.799999952316284,16.02400016784668,-9.045000076293944,0.7450000047683715,-9.767000198364256,-0.4079999923706054
1621841986802,2.799999952316284,15.927000045776367,-8.493000030517578,0.7850000262260437,-9.772999763488768,-0.3689999878406524
1621841986812,2.799999952316284,15.420000076293944,-8.440999984741211,0.8240000009536743,-9.772999763488768,-0.3689999878406524
1621841986822,2.5899999141693115,14.53600025177002,-7.459000110626221,0.8629999756813049,-9.772999763488768,-0.3689999878406524
1621841986832,2.5199999809265137,14.050000190734863,-7.118000030517578,0.8629999756813049,-9.819000244140623,-0.3370000123977661
1621841986842,2.380000114440918,13.125,-6.7129998207092285,0.8629999756813049,-9.772999763488768,-0.3689999878406524
1621841986852,1.8899999856948853,12.232999801635742,-6.0879998207092285,0.8629999756813049,-9.819000244140623,-0.3370000123977661
1621841986862,1.5399999618530271,11.527999877929688,-5.715000152587891,0.8240000009536743,-9.80500030517578,-0.414000004529953
1621841986872,1.2599999904632568,11.041000366210936,-5.374000072479248,0.8240000009536743,-9.767000198364256,-0.4079999923706054
1621841986882,1.190000057220459,10.152999877929688,-5.176000118255615,0.7850000262260437,-9.786999702453612,-0.2919999957084655
1621841986892,1.0499999523162842,9.223999977111816,-5.552999973297119,0.7850000262260437,-9.779999732971191,-0.3300000131130218
1621841986902,0.9800000190734864,8.616000175476074,-5.730999946594238,0.8240000009536743,-9.741999626159668,-0.3240000009536743
1621841986912,1.0499999523162842,7.942999839782715,-6.3470001220703125,0.8629999756813049,-9.696000099182127,-0.3549999892711639
1621841986922,0.9100000262260436,7.054999828338623,-6.1479997634887695,0.8629999756813049,-9.696000099182127,-0.3549999892711639
1621841986932,1.1200000047683716,6.052999973297119,-6.111999988555908,0.8240000009536743,-9.696000099182127,-0.3549999892711639
1621841986942,1.2599999904632568,5.275000095367432,-6.5329999923706055,0.8240000009536743,-9.696000099182127,-0.3549999892711639
1621841986952,1.399999976158142,4.123000144958496,-6.452000141143799,0.7850000262260437,-9.741999626159668,-0.3240000009536743
1621841986962,1.4700000286102295,3.9325001239776607,-6.982999801635742,0.7450000047683715,-9.779999732971191,-0.3300000131130218
1621841986972,1.5399999618530271,3.7420001029968266,-7.513999938964843,0.6669999957084655,-9.779999732971191,-0.3300000131130218
1621841986982,1.5399999618530271,3.697000026702881,-7.664000034332275,0.6280000209808348,-9.826000213623049,-0.2989999949932098
1621841986992,1.5399999618530271,4.041999816894531,-7.604000091552734,0.6669999957084655,-9.857000350952148,-0.3440000116825103
1621841987002,1.5399999618530271,4.39900016784668,-7.611999988555909,0.6280000209808348,-9.826000213623049,-0.2989999949932098
1621841987012,0.3499999940395355,4.986999988555908,-7.72100019454956,0.7059999704360961,-9.819000244140623,-0.3370000123977661
1621841987022,-0.1400000005960464,5.510000228881836,-8.269000053405762,0.6669999957084655,-9.767000198364256,-0.4079999923706054
1621841987032,0.0700000002980232,6.26800012588501,-8.135000228881836,0.6280000209808348,-9.767000198364256,-0.4079999923706054
1621841987042,-0.209999993443489,6.978000164031982,-7.72599983215332,0.6669999957084655,-9.734999656677246,-0.3619999885559082
1621841987052,-0.0700000002980232,7.164000034332275,-6.769000053405762,0.7059999704360961,-9.696000099182127,-0.3549999892711639
1621841987062,0.2800000011920929,6.863999843597412,-5.4710001945495605,0.7059999704360961,-9.62600040435791,-0.3030000030994415
1621841987072,0.5600000023841857,6.885000228881836,-5.183000087738037,0.7059999704360961,-9.63199996948242,-0.2649999856948852
1621841987082,0.8399999737739563,6.860000133514404,-5.045000076293945,0.6669999957084655,-9.638999938964846,-0.2259999960660934
1621841987092,1.5399999618530271,7.078999996185303,-5.078000068664551,0.6669999957084655,-9.62600040435791,-0.3030000030994415
1621841987102,1.6799999475479126,6.99399995803833,-5.803999900817871,0.7059999704360961,-9.678000450134276,-0.2329999953508377
1621841987112,2.240000009536743,6.961999893188477,-6.0229997634887695,0.7059999704360961,-9.63199996948242,-0.2649999856948852
1621841987122,2.380000114440918,6.940999984741211,-6.310999870300293,0.7059999704360961,-9.710000038146973,-0.277999997138977
1621841987132,2.240000009536743,6.705999851226807,-5.7829999923706055,0.7059999704360961,-9.755000114440918,-0.2460000067949295
1621841987142,2.0299999713897705,6.556000232696533,-5.738999843597412,0.7059999704360961,-9.755000114440918,-0.2460000067949295
1621841987152,2.0999999046325684,6.515999794006348,-5.105999946594238,0.7059999704360961,-9.793999671936035,-0.2529999911785125
1621841987162,1.8899999856948853,6.369999885559082,-4.2789998054504395,0.7059999704360961,-9.859999656677246,-0.1049999967217445
1621841987172,1.8200000524520872,6.178999900817871,-3.6019999980926514,0.7450000047683715,-9.845999717712402,-0.1829999983310699
1621841987182,1.399999976158142,6.070000171661377,-2.9809999465942383,0.7059999704360961,-9.845999717712402,-0.1829999983310699
1621841987192,1.3300000429153442,6.3460001945495605,-2.933000087738037,0.7059999704360961,-9.807000160217283,-0.1759999990463256
1621841987202,1.399999976158142,6.673999786376953,-2.377000093460083,0.7059999704360961,-9.814000129699709,-0.1369999945163726
1621841987212,1.0499999523162842,6.5,-2.194999933242798,0.7059999704360961,-9.776000022888184,-0.1299999952316284
1621841987222,1.0850000381469729,6.398499965667725,-1.8220000267028809,0.7059999704360961,-9.807000160217283,-0.1759999990463256
1621841987232,1.1200000047683716,6.296999931335449,-1.4490000009536743,0.7059999704360961,-9.845999717712402,-0.1829999983310699
1621841987242,0.6299999952316284,5.980999946594238,-0.865000009536743,0.7059999704360961,-9.76900005340576,-0.1689999997615814
1621841987252,0.4199999868869781,5.182000160217285,-0.3659999966621398,0.7059999704360961,-9.737000465393066,-0.123999997973442
1621841987262,0.209999993443489,4.651000022888184,-0.1749999970197677,0.6669999957084655,-9.737000465393066,-0.123999997973442
1621841987272,-0.2800000011920929,4.189000129699707,0.0280000008642673,0.6280000209808348,-9.697999954223633,-0.1169999986886978
1621841987281,-0.1400000005960464,3.4179999828338623,-0.0370000004768371,0.6669999957084655,-9.722999572753906,-0.2010000050067901
1621841987291,-0.4900000095367431,3.2079999446868896,0.3519999980926513,0.5879999995231628,-9.722999572753906,-0.2010000050067901
1621841987301,-0.209999993443489,2.4609999656677246,0.1500000059604644,0.5879999995231628,-9.737000465393066,-0.123999997973442
1621841987312,0.0,2.177000045776367,-0.2560000121593475,0.5490000247955322,-9.76900005340576,-0.1689999997615814
1621841987321,-0.0700000002980232,1.9019999504089355,-0.3039999902248382,0.5099999904632568,-9.814000129699709,-0.1369999945163726
1621841987331,-0.1400000005960464,1.6059999465942385,-0.6409999728202819,0.4309999942779541,-9.852999687194824,-0.1439999938011169
1621841987341,-0.7699999809265136,1.7070000171661377,-0.4099999964237213,0.3919999897480011,-9.852999687194824,-0.1439999938011169
1621841987351,-0.9100000262260436,2.1570000648498535,-0.5440000295639038,0.3919999897480011,-9.885000228881836,-0.1889999955892562
1621841987361,-1.4700000286102295,2.2139999866485596,-0.4629999995231628,0.3529999852180481,-9.878000259399414,-0.2280000001192092
1621841987371,-2.309999942779541,2.2750000953674316,-0.8069999814033508,0.3140000104904174,-9.83899974822998,-0.221000000834465
1621841987381,-2.799999952316284,2.7690000534057617,-0.7910000085830688,0.2750000059604644,-9.807000160217283,-0.1759999990463256
1621841987391,-2.7300000190734863,3.187000036239624,-1.1440000534057615,0.3140000104904174,-9.76900005340576,-0.1689999997615814
1621841987401,-3.009999990463257,3.2200000286102295,-0.9250000119209288,0.2750000059604644,-9.807000160217283,-0.1759999990463256
1621841987411,-3.009999990463257,3.575999975204468,-0.9330000281333924,0.3529999852180481,-9.800999641418455,-0.2150000035762786
1621841987421,-3.2200000286102295,3.563999891281128,-0.8640000224113464,0.3529999852180481,-9.772999763488768,-0.3689999878406524
1621841987431,-3.359999895095825,3.3329999446868896,-0.7630000114440918,0.3140000104904174,-9.779999732971191,-0.3300000131130218
1621841987441,-3.7100000381469727,2.931999921798706,-0.9049999713897704,0.3529999852180481,-9.819000244140623,-0.3370000123977661
1621841987451,-3.7799999713897705,2.822000026702881,-1.493000030517578,0.3529999852180481,-9.843999862670898,-0.4210000038146972
1621841987461,-4.199999809265137,2.2100000381469727,-1.2450000047683716,0.3529999852180481,-9.812000274658203,-0.3759999871253967
1621841987471,-4.96999979019165,1.7999999523162842,-1.74399995803833,0.3140000104904174,-9.812000274658203,-0.3759999871253967
1621841987481,-4.96999979019165,2.0510001182556152,-2.7660000324249268,0.3140000104904174,-9.772999763488768,-0.3689999878406524
1621841987491,-4.96999979019165,2.069499969482422,-2.869500160217285,0.3140000104904174,-9.767000198364256,-0.4079999923706054
1621841987501,-4.96999979019165,2.0880000591278076,-2.9730000495910645,0.3140000104904174,-9.696000099182127,-0.3549999892711639
1621841987511,-4.690000057220459,1.9140000343322752,-2.7899999618530273,0.2750000059604644,-9.651000022888184,-0.3869999945163726
1621841987521,-4.130000114440918,1.52400004863739,-1.7929999828338623,0.2349999994039535,-9.651000022888184,-0.3869999945163726
1621841987531,-3.5,1.1679999828338623,-1.784000039100647,0.2349999994039535,-9.651000022888184,-0.3869999945163726
1621841987541,-2.940000057220459,0.8270000219345092,-2.2709999084472656,0.2349999994039535,-9.579999923706056,-0.3350000083446502
1621841987551,-2.1700000762939453,0.531000018119812,-2.6070001125335693,0.2349999994039535,-9.520999908447264,-0.4440000057220459
1621841987561,-1.3300000429153442,0.5230000019073486,-2.9639999866485596,0.1959999948740005,-9.579999923706056,-0.3350000083446502
1621841987571,-0.7699999809265136,0.3199999928474426,-3.427000045776367,0.1959999948740005,-9.663999557495115,-0.3100000023841857
1621841987581,-0.6299999952316284,0.1539999991655349,-4.0960001945495605,0.1570000052452087,-9.67099952697754,-0.2709999978542327
1621841987591,-0.699999988079071,-0.3129999935626983,-4.675000190734863,0.1570000052452087,-9.710000038146973,-0.277999997138977
1621841987601,-0.4199999868869781,-0.4180000126361846,-4.480999946594238,0.1570000052452087,-9.748000144958496,-0.2849999964237213
1621841987611,-0.5600000023841857,-0.731000006198883,-4.322999954223633,0.1180000007152557,-9.755000114440918,-0.2460000067949295
1621841987621,-0.209999993443489,-1.00600004196167,-4.370999813079834,0.1180000007152557,-9.722999572753906,-0.2010000050067901
1621841987631,0.209999993443489,-1.343000054359436,-4.074999809265137,0.1180000007152557,-9.6850004196167,-0.1940000057220459
1621841987641,0.699999988079071,-1.4040000438690186,-3.7300000190734863,0.1180000007152557,-9.6850004196167,-0.1940000057220459
1621841987651,1.399999976158142,-1.6909999847412107,-3.7100000381469727,0.0780000016093254,-9.729999542236328,-0.1620000004768371
1621841987661,1.6100000143051147,-2.0769999027252197,-4.3470001220703125,0.0780000016093254,-9.729999542236328,-0.1620000004768371
1621841987671,1.8200000524520872,-2.259000062942505,-4.520999908447266,0.1180000007152557,-9.76900005340576,-0.1689999997615814
1621841987681,1.8200000524520872,-3.163000106811523,-3.82699990272522,0.1570000052452087,-9.779999732971191,-0.3300000131130218
1621841987691,1.6100000143051147,-4.0269999504089355,-3.7669999599456783,0.1180000007152557,-9.755000114440918,-0.2460000067949295
1621841987701,1.399999976158142,-4.736999988555908,-4.176000118255615,0.1180000007152557,-9.800999641418455,-0.2150000035762786
1621841987711,1.190000057220459,-4.97599983215332,-4.431000232696533,0.1180000007152557,-9.845999717712402,-0.1829999983310699
1621841987721,0.7699999809265136,-5.374000072479248,-4.999000072479248,0.1180000007152557,-9.852999687194824,-0.1439999938011169
1621841987731,0.0700000002980232,-5.572000026702881,-4.678999900817871,0.0390000008046627,-9.852999687194824,-0.1439999938011169
1621841987741,-0.699999988079071,-5.309000015258789,-4.560999870300293,0.0390000008046627,-9.859999656677246,-0.1049999967217445
1621841987751,-1.3300000429153442,-5.459000110626221,-4.515999794006348,0.0,-9.897999763488768,-0.1120000034570694
1621841987761,-1.9600000381469729,-5.288000106811523,-4.2729997634887695,0.0,-9.89099979400635,-0.1509999930858612
1621841987771,-2.4850001335144043,-5.35099983215332,-4.319499969482422,0.0,-9.885000228881836,-0.1889999955892562
1621841987781,-3.009999990463257,-5.414000034332275,-4.366000175476074,0.0,-9.92300033569336,-0.1959999948740005
1621841987791,-4.130000114440918,-5.449999809265137,-4.159999847412109,0.0,-9.92300033569336,-0.1959999948740005
1621841987801,-4.96999979019165,-5.381999969482422,-4.1479997634887695,0.0,-9.92300033569336,-0.1959999948740005
1621841987811,-6.300000190734863,-5.324999809265137,-4.065999984741211,-0.0390000008046627,-9.90999984741211,-0.2739999890327453
1621841987821,-7.630000114440918,-6.2210001945495605,-4.223999977111816,-0.0390000008046627,-9.916999816894531,-0.2349999994039535
1621841987831,-8.609999656677246,-6.3470001220703125,-4.317999839782715,-0.0780000016093254,-9.843999862670898,-0.4210000038146972
1621841987841,-9.380000114440918,-5.770999908447266,-4.357999801635742,-0.1180000007152557,-9.812000274658203,-0.3759999871253967
1621841987851,-10.079999923706056,-5.446000099182129,-4.585000038146973,-0.1180000007152557,-9.696000099182127,-0.3549999892711639
1621841987861,-10.359999656677246,-4.789999961853027,-4.683000087738037,-0.1570000052452087,-9.682000160217283,-0.4329999983310699
1621841987871,-10.079999923706056,-4.578999996185303,-5.072000026702881,-0.1570000052452087,-9.675999641418455,-0.4709999859333038
1621841987881,-10.220000267028809,-4.51800012588501,-5.416999816894531,-0.1570000052452087,-9.70699977874756,-0.5170000195503234
1621841987891,-10.289999961853027,-4.360000133514404,-6.313000202178955,-0.1570000052452087,-9.694000244140623,-0.5939999818801879
1621841987901,-10.640000343322754,-4.117000102996826,-6.482999801635742,-0.1180000007152557,-9.770999908447264,-0.6079999804496765
1621841987911,-10.779999732971191,-4.298999786376953,-6.6579999923706055,-0.1570000052452087,-9.803000450134276,-0.652999997138977
1621841987921,-11.130000114440918,-5.005000114440918,-6.284999847412109,-0.1570000052452087,-9.873000144958496,-0.7049999833106994
1621841987931,-12.600000381469728,-5.665999889373779,-6.96999979019165,-0.1570000052452087,-9.897999763488768,-0.7889999747276306
1621841987941,-14.979999542236328,-5.908999919891357,-8.008000373840332,-0.1570000052452087,-10.109999656677246,-0.9459999799728392
1621841987951,-18.549999237060547,-5.706999778747559,-8.753999710083008,-0.2750000059604644,-10.321000099182127,-1.1030000448226929
1621841987961,-25.1299991607666,-5.823999881744385,-9.699000358581545,-0.2349999994039535,-10.402999877929688,-1.3170000314712524
1621841987971,-34.790000915527344,-5.4670000076293945,-9.70699977874756,-0.2750000059604644,-10.470999717712402,-1.6069999933242798
1621841987981,-46.970001220703125,-4.373000144958496,-9.869000434875488,-0.2349999994039535,-10.708000183105469,-1.8480000495910645
1621841987991,-60.900001525878906,-3.938999891281128,-9.508000373840332,-0.1180000007152557,-10.937000274658203,-2.128000020980835
1621841988001,-74.9000015258789,-4.072000026702881,-8.75,-0.0780000016093254,-10.909999847412108,-2.2820000648498535
1621841988011,-85.19000244140625,-4.814000129699707,-8.170000076293945,-0.0390000008046627,-10.67099952697754,-2.2799999713897705
1621841988021,-89.73999786376953,-5.451000213623047,-7.7849998474121085,0.0,-10.354999542236328,-2.263999938964844
1621841988031,-90.125,-5.722499847412109,-8.259500503540039,-0.0390000008046627,-10.04599952697754,-2.2100000381469727
1621841988041,-90.51000213623048,-5.99399995803833,-8.734000205993652,-0.1180000007152557,-9.8149995803833,-2.1689999103546143
1621841988051,-89.18000030517578,-5.670000076293945,-10.168999671936035,-0.2349999994039535,-9.729999542236328,-2.194000005722046
1621841988061,-86.7300033569336,-4.130000114440918,-11.248000144958496,-0.3529999852180481,-9.52400016784668,-2.236999988555908
1621841988071,-85.33000183105469,-2.109999895095825,-11.815999984741213,-0.4309999942779541,-9.336999893188477,-2.1640000343322754
1621841988081,-83.44000244140625,0.1360000073909759,-12.0600004196167,-0.5099999904632568,-9.157999992370604,-2.052999973297119
1621841988091,-80.98999786376953,3.0880000591278076,-12.675999641418455,-0.5490000247955322,-8.996000289916992,-2.063999891281128
1621841988101,-77.69999694824219,6.193999767303467,-13.763999938964844,-0.5490000247955322,-8.982999801635742,-2.1419999599456787
1621841988111,-72.02999877929688,9.791000366210936,-14.409000396728516,-0.6669999957084655,-8.944000244140625,-2.134999990463257
1621841988121,-63.97999954223633,13.456000328063965,-16.25,-0.7850000262260437,-8.89900016784668,-2.1670000553131104
1621841988131,-55.439998626708984,18.812000274658203,-19.21500015258789,-1.0590000152587893,-8.666999816894531,-2.125999927520752
1621841988141,-47.11000061035156,26.152000427246097,-22.541000366210938,-1.215999960899353,-8.519000053405762,-2.059999942779541
1621841988151,-39.689998626708984,34.61399841308594,-25.385000228881836,-1.2549999952316284,-8.319000244140625,-2.063999891281128
1621841988161,-33.66999816894531,42.91400146484375,-26.906999588012695,-1.1770000457763672,-8.333000183105469,-1.986999988555908
1621841988171,-28.90999984741211,49.4630012512207,-26.959999084472656,-0.981000006198883,-8.35099983215332,-2.109999895095825
1621841988181,-25.760000228881836,53.380001068115234,-26.198999404907227,-0.6669999957084655,-8.338000297546387,-2.187000036239624
1621841988191,-22.68000030517578,55.597999572753906,-25.878999710083008,-0.3919999897480011,-8.36299991607666,-2.2709999084472656
1621841988201,-19.38999938964844,56.084999084472656,-26.218999862670895,-0.0780000016093254,-8.407999992370605,-2.239000082015991
1621841988211,-15.890000343322754,55.67499923706055,-26.718000411987305,0.3529999852180481,-8.42199993133545,-2.1619999408721924
1621841988221,-12.390000343322754,54.625,-27.61400032043457,0.4309999942779541,-8.446999549865723,-2.246000051498413
1621841988231,-8.609999656677246,53.89099884033203,-29.093999862670895,0.4309999942779541,-8.619000434875488,-2.3959999084472656
1621841988241,-5.110000133514404,54.31999969482422,-30.724000930786133,0.5099999904632568,-8.812000274658203,-2.430000066757202
1621841988251,-2.7300000190734863,55.40299987792969,-32.0260009765625,0.5099999904632568,-9.012000083923342,-2.4260001182556152
1621841988261,-1.680000066757202,56.06999969482422,-32.583499908447266,0.5879999995231628,-9.206000328063965,-2.4600000381469727
1621841988271,-0.6299999952316284,56.73699951171875,-33.14099884033203,0.6280000209808348,-9.282999992370604,-2.4730000495910645
1621841988281,1.2599999904632568,58.33000183105469,-33.7130012512207,0.7059999704360961,-9.3149995803833,-2.5190000534057617
1621841988291,2.799999952316284,59.939998626708984,-33.571998596191406,0.8240000009536743,-9.276000022888184,-2.51200008392334
1621841988301,4.130000114440918,61.60300064086914,-32.92300033569336,0.9409999847412108,-9.206000328063965,-2.4600000381469727
1621841988311,5.599999904632568,62.93299865722656,-31.195999145507812,1.0199999809265137,-9.173999786376951,-2.4140000343322754
1621841988321,7.8400001525878915,64.33200073242188,-29.45599937438965,1.0199999809265137,-9.102999687194824,-2.361999988555908
1621841988331,10.850000381469728,65.7760009765625,-27.566999435424805,1.0590000152587893,-8.961999893188477,-2.256999969482422
1621841988341,13.649999618530272,67.74299621582031,-26.225000381469727,1.0980000495910645,-8.852999687194824,-2.197999954223633
1621841988351,15.890000343322754,70.88999938964844,-25.527999877929688,1.1380000114440918,-8.789999961853027,-2.1080000400543213
1621841988361,17.780000686645508,74.53600311279298,-24.031999588012695,1.215999960899353,-8.821999549865723,-2.1530001163482666
1621841988371,19.25,77.62999725341797,-21.424999237060547,1.3339999914169312,-9.015000343322754,-2.187000036239624
1621841988381,19.459999084472656,80.00199890136719,-19.159000396728516,1.6480000019073486,-9.28499984741211,-2.234999895095825
1621841988391,17.850000381469727,81.3489990234375,-16.718000411987305,1.9609999656677248,-9.586999893188477,-2.328000068664551
1621841988401,15.050000190734863,80.86699676513672,-14.38599967956543,2.1570000648498535,-9.633000373840332,-2.2960000038146973
1621841988411,11.550000190734863,78.23100280761719,-13.145000457763672,2.313999891281128,-9.586999893188477,-2.328000068664551
1621841988421,8.960000038146973,74.87000274658203,-13.027000427246094,2.4709999561309814,-9.55500030517578,-2.2820000648498535
1621841988431,7.070000171661377,71.01699829101562,-13.35099983215332,2.5889999866485596,-9.52400016784668,-2.236999988555908
1621841988441,6.579999923706055,66.73100280761719,-14.03600025177002,2.6670000553131104,-9.460000038146973,-2.1459999084472656
1621841988451,6.929999828338623,63.32899856567382,-14.493000030517578,2.628000020980835,-9.512000083923342,-2.075999975204468
1621841988461,7.349999904632568,61.71699905395508,-14.421999931335447,2.6670000553131104,-9.51900005340576,-2.0369999408721924
1621841988471,7.769999980926514,60.10499954223633,-14.35099983215332,2.7070000171661377,-9.479999542236328,-2.0299999713897705
1621841988481,8.539999961853027,57.09199905395508,-13.388999938964844,2.746000051498413,-9.44200038909912,-2.0230000019073486
1621841988491,8.75,54.275001525878906,-11.11400032043457,2.7850000858306885,-9.449000358581545,-1.9850000143051147
1621841988501,8.329999923706055,51.59000015258789,-9.597000122070312,2.8239998817443848,-9.44200038909912,-2.0230000019073486
1621841988511,7.349999904632568,48.64300155639648,-8.197999954223633,2.864000082015991,-9.479999542236328,-2.0299999713897705
1621841988521,6.230000019073486,45.86100006103515,-7.3379998207092285,2.864000082015991,-9.595999717712402,-2.0510001182556152
1621841988531,5.179999828338623,43.439998626708984,-6.9120001792907715,2.9030001163482666,-9.595999717712402,-2.0510001182556152
1621841988541,4.059999942779541,40.922000885009766,-7.142000198364258,2.9809999465942383,-9.51900005340576,-2.0369999408721924
1621841988551,3.2200000286102295,37.993999481201165,-6.664000034332275,2.9809999465942383,-9.4350004196167,-2.062000036239624
1621841988561,2.309999942779541,35.13600158691406,-6.172999858856201,2.9809999465942383,-9.35099983215332,-2.086999893188477
1621841988571,1.190000057220459,32.03799819946289,-5.936999797821045,2.941999912261963,-9.267000198364256,-2.111999988555908
1621841988581,-0.4199999868869781,29.871999740600582,-5.75,2.9030001163482666,-9.208000183105469,-2.2209999561309814
1621841988591,-2.1700000762939453,27.945999145507812,-5.308000087738037,2.9030001163482666,-9.168999671936035,-2.2139999866485596
1621841988601,-4.619999885559082,26.08099937438965,-5.210000038146973,2.864000082015991,-9.116999626159668,-2.2850000858306885
1621841988611,-6.860000133514404,24.219999313354492,-5.538000106811523,2.8239998817443848,-9.102999687194824,-2.361999988555908
1621841988621,-8.960000038146973,21.96500015258789,-5.6519999504089355,2.8239998817443848,-9.121999740600586,-2.484999895095825
1621841988631,-11.130000114440918,20.444000244140625,-5.493000030517578,2.7850000858306885,-9.107999801635742,-2.562000036239624
1621841988641,-12.390000343322754,19.415000915527344,-4.89300012588501,2.7850000858306885,-9.1850004196167,-2.575999975204468
1621841988651,-12.495000839233398,19.013500213623047,-4.430500030517578,2.7850000858306885,-9.255999565124512,-2.628000020980835
1621841988661,-12.600000381469728,18.61199951171875,-3.9679999351501465,2.7850000858306885,-9.293999671936035,-2.634999990463257
1621841988671,-11.479999542236328,17.816999435424805,-2.687000036239624,2.7850000858306885,-9.241999626159668,-2.7049999237060547
1621841988681,-9.520000457763674,17.1200008392334,-0.7490000128746032,2.8239998817443848,-9.140000343322754,-2.6070001125335693
1621841988691,-6.510000228881836,16.569000244140625,1.5709999799728394,2.8239998817443848,-9.133000373840332,-2.6459999084472656
1621841988701,-3.990000009536743,14.480999946594238,4.544000148773193,2.864000082015991,-9.048999786376951,-2.6710000038146973
1621841988711,-1.190000057220459,12.222999572753906,7.2729997634887695,2.864000082015991,-9.196999549865724,-2.736999988555908
1621841988721,0.9800000190734864,9.312000274658203,9.673999786376951,2.864000082015991,-9.305999755859377,-2.7960000038146973
1621841988731,2.5899999141693115,6.059999942779541,12.796999931335447,2.8239998817443848,-9.326000213623049,-2.680000066757202
1621841988741,2.940000057220459,2.062000036239624,14.508000373840332,2.8239998817443848,-9.20300006866455,-2.697999954223633
1621841988751,2.7300000190734863,-2.5199999809265137,15.904000282287598,2.7850000858306885,-9.196999549865724,-2.736999988555908
1621841988761,2.380000114440918,-7.486999988555909,16.663000106811523,2.7850000858306885,-9.119000434875488,-2.7230000495910645
1621841988771,2.0999999046325684,-13.399999618530272,15.123000144958496,2.8239998817443848,-8.972000122070312,-2.6570000648498535
1621841988781,1.3300000429153442,-19.42099952697754,14.203000068664553,2.7850000858306885,-8.722000122070312,-2.49399995803833
1621841988791,0.209999993443489,-25.410999298095703,14.711000442504885,2.7070000171661377,-8.62600040435791,-2.3570001125335693
1621841988801,0.0,-30.87700080871582,15.880000114440918,2.628000020980835,-8.531000137329102,-2.2209999561309814
1621841988811,0.1400000005960464,-35.79899978637695,16.788999557495117,2.510999917984009,-8.635000228881836,-2.0799999237060547
1621841988821,1.4700000286102295,-39.858001708984375,17.636999130249023,2.2750000953674316,-8.694000244140625,-1.9709999561309817
1621841988831,4.059999942779541,-42.56700134277344,19.291000366210938,2.000999927520752,-8.720999717712402,-1.8170000314712524
1621841988841,6.229999542236328,-43.62900161743164,20.276500701904297,1.7649999856948853,-8.864999771118164,-1.6829999685287476
1621841988851,8.399999618530273,-44.69100189208984,21.261999130249023,1.4509999752044678,-9.116999626159668,-1.6080000400543213
1621841988861,13.090000152587892,-45.89899826049805,22.47100067138672,1.2549999952316284,-9.413999557495115,-1.5010000467300415
1621841988871,17.5,-46.016998291015625,22.73500061035156,1.0199999809265137,-9.737000465393066,-1.4780000448226929
1621841988880,21.6299991607666,-45.875,22.33300018310547,0.9409999847412108,-9.97599983215332,-1.4800000190734863
1621841988890,24.780000686645508,-45.58700180053711,22.312999725341797,0.981000006198883,-10.144000053405762,-1.4299999475479126
1621841988900,25.969999313354492,-46.540000915527344,22.073999404907227,1.0590000152587893,-10.041999816894531,-1.3320000171661377
1621841988911,26.31999969482422,-49.15599822998047,22.393999099731445,1.3730000257492063,-10.062000274658203,-1.2170000076293943
1621841988920,25.479999542236328,-53.189998626708984,23.104999542236328,1.8040000200271609,-10.307000160217283,-1.1799999475479126
1621841988930,23.520000457763672,-60.334999084472656,24.118999481201172,2.197000026702881,-10.345999717712402,-1.187000036239624
1621841988940,21.209999084472656,-70.89399719238281,23.53700065612793,2.7070000171661377,-10.152999877929688,-1.1529999971389773
1621841988950,18.6200008392334,-85.75199890136719,22.339000701904297,3.138000011444092,-9.826000213623049,-0.9760000109672546
1621841988960,15.81999969482422,-103.22899627685548,19.469999313354492,3.6089999675750737,-9.607999801635742,-0.8579999804496765
1621841988970,12.8100004196167,-122.73799896240234,16.030000686645508,4.236000061035156,-9.479999542236328,-0.6759999990463256
1621841988980,8.539999961853027,-145.97799682617188,13.994000434875488,4.629000186920166,-9.50100040435791,-0.5600000023841857
1621841988990,3.2899999618530273,-171.26499938964844,11.880999565124512,4.824999809265137,-9.746000289916992,-0.5239999890327453
1621841989000,-2.380000114440918,-194.06300354003903,8.145000457763672,4.745999813079834,-10.190999984741213,-0.4830000102519989
1621841989010,-8.819999694824219,-215.2949981689453,5.610000133514404,4.4720001220703125,-10.359999656677246,-0.4329999983310699
1621841989020,-12.004999160766602,-224.29100036621097,5.232000350952148,4.000999927520752,-10.232000350952148,-0.2509999871253967
1621841989030,-15.1899995803833,-233.28700256347656,4.854000091552734,3.490999937057495,-10.182000160217283,-0.0829999968409538
1621841989040,-19.25,-248.25399780273435,5.484000205993652,2.941999912261963,-9.96399974822998,0.0350000001490116
1621841989050,-22.329999923706055,-258.760009765625,5.408999919891357,2.3929998874664307,-9.829999923706056,0.1790000051259994
1621841989060,-24.709999084472656,-265.06201171875,6.074999809265137,1.72599995136261,-9.70699977874756,0.1599999964237213
1621841989070,-26.670000076293945,-268.3009948730469,7.920000076293945,0.9020000100135804,-9.770999908447264,0.0700000002980232
1621841989080,-28.0,-267.08099365234375,9.0600004196167,0.1570000052452087,-9.647999763488768,0.0509999990463256
1621841989090,-29.049999237060547,-261.2409973144531,9.80500030517578,-0.6669999957084655,-9.505000114440918,-0.0829999968409538
1621841989100,-29.049999237060547,-251.80099487304688,10.687999725341797,-1.2549999952316284,-9.291999816894531,-0.1650000065565109
1621841989110,-27.86000061035156,-239.9040069580078,12.145999908447266,-1.843999981880188,-8.949000358581543,-0.3030000030994415
1621841989120,-24.850000381469727,-224.9969940185547,13.067999839782717,-2.431999921798706,-8.678000450134277,-0.2560000121593475
1621841989130,-19.8799991607666,-208.08399963378903,12.282999992370604,-3.0199999809265137,-8.63700008392334,-0.4869999885559082
1621841989140,-14.0,-188.18699645996097,11.100000381469728,-3.4519999027252197,-8.718999862670898,-0.7009999752044677
1621841989150,-8.75,-167.74899291992188,11.291999816894531,-3.8050000667572026,-8.6850004196167,-0.8939999938011169
1621841989160,-4.409999847412109,-147.5070037841797,12.586999893188477,-4.000999927520752,-8.741999626159668,-1.02400004863739
1621841989170,-2.450000047683716,-127.59600067138672,14.960000038146973,-4.11899995803833,-8.753000259399414,-1.184999942779541
1621841989180,-2.0299999713897705,-108.87799835205078,18.04800033569336,-4.11899995803833,-8.770999908447266,-1.3079999685287476
1621841989190,-2.1700000762939453,-100.34999847412108,19.87150001525879,-4.039999961853027,-8.711999893188477,-1.4170000553131104
1621841989200,-2.309999942779541,-91.8219985961914,21.69499969482422,-3.961999893188477,-8.652999877929688,-1.5260000228881836
1621841989210,-2.5899999141693115,-75.73999786376953,24.815000534057617,-3.92300009727478,-8.633000373840332,-1.6419999599456787
1621841989220,-2.309999942779541,-61.5629997253418,27.457000732421875,-3.7660000324249263,-8.696000099182129,-1.7330000400543213
1621841989230,-2.5899999141693115,-48.83000183105469,29.417999267578125,-3.569999933242798,-8.946000099182129,-1.8960000276565552
1621841989240,-3.2200000286102295,-37.54100036621094,29.48900032043457,-3.490999937057495,-9.12600040435791,-2.006999969482422
1621841989250,-4.550000190734863,-27.208999633789062,28.538999557495117,-3.4519999027252197,-9.35099983215332,-2.086999893188477
1621841989260,-6.579999923706055,-18.709999084472656,27.905000686645508,-3.3340001106262207,-9.614999771118164,-2.1730000972747803
1621841989270,-9.100000381469728,-12.437000274658203,27.80299949645996,-3.25600004196167,-9.84000015258789,-2.253000020980835
1621841989280,-11.619999885559082,-7.546999931335449,26.674999237060547,-3.2170000076293945,-9.979999542236328,-2.3570001125335693
1621841989290,-14.350000381469728,-3.901999950408935,24.545000076293945,-3.2170000076293945,-9.94200038909912,-2.3499999046325684
1621841989300,-15.470000267028809,-0.6460000276565551,20.996999740600582,-3.25600004196167,-9.90999984741211,-2.305000066757202
1621841989310,-15.75,2.6700000762939453,15.895000457763672,-3.3340001106262207,-9.833000183105469,-2.2909998893737793
1621841989320,-14.770000457763672,6.436999797821045,10.659999847412108,-3.413000106811523,-9.786999702453612,-2.322999954223633
1621841989330,-13.4399995803833,9.98799991607666,6.238999843597412,-3.413000106811523,-9.62600040435791,-2.3350000381469727
1621841989340,-11.479999542236328,13.722999572753906,3.2019999027252197,-3.3340001106262207,-9.489999771118164,-2.430000066757202
1621841989350,-9.380000114440918,16.2810001373291,1.590999960899353,-3.2170000076293945,-9.37399959564209,-2.4100000858306885
1621841989360,-6.440000057220459,18.576000213623047,-0.1360000073909759,-3.138000011444092,-9.218999862670898,-2.381999969482422
1621841989370,-4.724999904632568,19.642499923706055,-0.94350004196167,-3.0989999771118164,-8.987000465393066,-2.3420000076293945
1621841989380,-3.009999990463257,20.708999633789062,-1.7510000467300415,-3.2170000076293945,-8.807999610900879,-2.2300000190734863
1621841989390,1.6100000143051147,23.132999420166016,-3.811000108718872,-3.413000106811523,-8.621999740600586,-2.1579999923706055
1621841989400,7.280000209808349,28.1200008392334,-7.907000064849853,-3.7269999980926514,-8.597000122070312,-2.072999954223633
1621841989410,13.229999542236328,35.025001525878906,-12.802000045776367,-4.039999961853027,-8.57800006866455,-1.950999975204468
1621841989420,18.34000015258789,45.19900131225586,-17.690000534057617,-4.197000026702881,-8.522000312805176,-1.8209999799728391
1621841989430,22.540000915527344,56.88899993896485,-19.893999099731445,-4.315000057220459,-8.425999641418457,-1.684999942779541
1621841989440,25.270000457763672,67.58999633789062,-19.71299934387207,-4.315000057220459,-8.331000328063965,-1.5490000247955322
1621841989450,28.350000381469727,77.9749984741211,-17.73900032043457,-4.354000091552734,-8.35099983215332,-1.4329999685287476
1621841989460,31.219999313354492,88.1449966430664,-17.368000030517578,-4.276000022888184,-8.402999877929688,-1.3619999885559082
1621841989470,33.25,98.24199676513672,-17.791000366210938,-4.11899995803833,-8.571000099182129,-1.312000036239624
1621841989480,35.209999084472656,107.15899658203124,-18.777000427246097,-3.8829998970031734,-8.765000343322754,-1.3459999561309814
1621841989490,36.189998626708984,114.59100341796876,-21.020999908447266,-3.5299999713897705,-9.003000259399414,-1.3489999771118164
1621841989500,37.2400016784668,120.11000061035156,-22.891000747680664,-3.2170000076293945,-9.157999992370604,-1.3760000467300415
1621841989510,37.79999923706055,123.6780014038086,-24.180999755859375,-2.9809999465942383,-9.402999877929688,-1.3389999866485596
1621841989520,37.869998931884766,126.74700164794922,-26.270000457763672,-2.7070000171661377,-9.532999992370604,-1.2829999923706057
1621841989530,38.0099983215332,128.49099731445312,-28.094999313354492,-2.4709999561309814,-9.54599952697754,-1.2050000429153442
1621841989540,38.290000915527344,129.6300048828125,-29.315000534057617,-2.197000026702881,-9.54599952697754,-1.2050000429153442
1621841989550,38.709999084472656,129.19200134277344,-29.25,-1.8830000162124632,-9.592000007629396,-1.1729999780654907
1621841989560,38.67499923706055,128.36099243164062,-28.97050094604492,-1.569000005722046,-9.78499984741211,-1.2079999446868896
1621841989570,38.63999938964844,127.52999877929688,-28.69099998474121,-1.2940000295639038,-10.010000228881836,-1.2869999408721924
1621841989580,37.45000076293945,125.052001953125,-27.136999130249023,-1.0590000152587893,-10.079999923706056,-1.3389999866485596
1621841989590,35.349998474121094,120.77799987792967,-25.474000930786133,-0.7850000262260437,-10.157999992370604,-1.3530000448226929
1621841989600,32.7599983215332,115.8030014038086,-23.86400032043457,-0.5879999995231628,-10.203000068664553,-1.3209999799728394
1621841989610,29.61000061035156,109.802001953125,-22.07900047302246,-0.4309999942779541,-10.17099952697754,-1.2760000228881836
1621841989620,27.15999984741211,103.95500183105467,-20.763999938964844,-0.4709999859333038,-10.217000007629396,-1.24399995803833
1621841989630,24.850000381469727,97.86399841308592,-20.48699951171875,-0.5099999904632568,-10.17099952697754,-1.2760000228881836
1621841989640,22.81999969482422,92.9540023803711,-20.856000900268555,-0.5099999904632568,-10.05500030517578,-1.2549999952316284
1621841989650,20.86000061035156,88.38400268554688,-20.73699951171875,-0.5099999904632568,-9.907999992370604,-1.1890000104904177
1621841989660,19.31999969482422,83.69999694824219,-19.572999954223633,-0.5490000247955322,-9.675999641418455,-1.1480000019073486
1621841989670,18.1299991607666,79.02100372314453,-17.625999450683594,-0.5879999995231628,-9.482999801635742,-1.1139999628067017
1621841989680,17.780000686645508,74.53700256347656,-15.572999954223633,-0.6669999957084655,-9.335000038146973,-1.0490000247955322
1621841989690,17.989999771118164,70.16200256347656,-14.140999794006348,-0.7059999704360961,-9.263999938964846,-0.9959999918937684
1621841989700,18.34000015258789,66.49199676513672,-13.083000183105469,-0.7059999704360961,-9.348999977111816,-0.9710000157356262
1621841989710,18.690000534057617,62.29100036621094,-13.041000366210936,-0.7850000262260437,-9.380000114440918,-1.0169999599456787
1621841989720,18.34000015258789,59.099998474121094,-13.887999534606934,-0.8240000009536743,-9.496000289916992,-1.0369999408721924
1621841989730,17.780000686645508,56.71900177001953,-14.095000267028809,-0.9020000100135804,-9.572999954223633,-1.0509999990463257
1621841989740,16.940000534057617,54.34700012207031,-15.152999877929688,-1.0199999809265137,-9.541999816894531,-1.0049999952316284
1621841989750,16.170000076293945,52.46500015258789,-15.769000053405762,-0.9409999847412108,-9.503000259399414,-0.9990000128746032
1621841989760,16.030000686645508,51.66850280761719,-16.086999893188477,-0.8629999756813049,-9.439000129699709,-0.9079999923706054
1621841989770,15.890000343322754,50.87200164794922,-16.405000686645508,-0.7850000262260437,-9.401000022888184,-0.9010000228881836
1621841989780,16.170000076293945,49.720001220703125,-17.533000946044922,-0.6669999957084655,-9.369000434875488,-0.8550000190734863
1621841989790,16.65999984741211,48.625,-18.57900047302246,-0.5490000247955322,-9.369000434875488,-0.8550000190734863
1621841989800,17.639999389648438,46.85300064086914,-19.815000534057617,-0.4309999942779541,-9.37600040435791,-0.8169999718666076
1621841989810,18.6200008392334,45.71699905395508,-21.437000274658203,-0.3140000104904174,-9.477999687194824,-0.9139999747276306
1621841989820,19.18000030517578,44.47600173950195,-22.86400032043457,-0.1959999948740005,-9.54800033569336,-0.9670000076293944
1621841989830,18.6200008392334,43.09299850463867,-23.88999938964844,-0.1180000007152557,-9.62600040435791,-0.9800000190734864
1621841989840,16.8700008392334,41.50299835205078,-24.95199966430664,-0.0390000008046627,-9.741999626159668,-1.0010000467300415
1621841989850,15.260000228881836,40.375999450683594,-26.21699905395508,0.0780000016093254,-9.734999656677246,-1.0390000343322754
1621841989860,13.229999542236328,39.430999755859375,-27.308000564575195,0.0780000016093254,-9.734999656677246,-1.0390000343322754
1621841989870,11.760000228881836,38.91600036621094,-27.61199951171875,0.2349999994039535,-9.720999717712402,-1.1169999837875366
1621841989880,10.56999969482422,38.2140007019043,-27.663999557495117,0.3529999852180481,-9.720999717712402,-1.1169999837875366
1621841989890,10.220000267028809,37.92300033569336,-27.218000411987305,0.5099999904632568,-9.675999641418455,-1.1480000019073486
1621841989900,10.779999732971191,37.930999755859375,-26.861000061035156,0.5879999995231628,-9.64400005340576,-1.1030000448226929
1621841989910,12.31999969482422,37.679000854492195,-27.04800033569336,0.6669999957084655,-9.538999557495115,-1.24399995803833
1621841989920,14.489999771118164,37.78499984741211,-27.243000030517575,0.7850000262260437,-9.592000007629396,-1.1729999780654907
1621841989930,17.010000228881836,37.95500183105469,-26.999000549316406,0.9020000100135804,-9.71399974822998,-1.1549999713897705
1621841989940,19.11000061035156,37.224998474121094,-26.488000869750977,0.981000006198883,-9.772999763488768,-1.0460000038146973
1621841989950,21.700000762939453,35.8390007019043,-24.67200088500977,1.0980000495910645,-9.800999641418455,-0.8920000195503234
1621841989960,22.81999969482422,34.88800048828125,-23.91550064086914,1.1380000114440918,-9.859999656677246,-0.7829999923706054
1621841989970,23.940000534057617,33.9370002746582,-23.159000396728516,1.215999960899353,-9.918999671936035,-0.6740000247955322
1621841989980,24.780000686645508,32.44900131225586,-22.781000137329105,1.1380000114440918,-10.010000228881836,-0.6100000143051147
1621841989990,24.63999938964844,30.714000701904297,-21.808000564575195,1.1380000114440918,-10.093999862670898,-0.5849999785423278
1621841990000,23.520000457763672,29.40800094604492,-21.256000518798828,1.0980000495910645,-10.217000007629396,-0.5669999718666076
1621841990010,21.280000686645508,28.41900062561035,-20.079999923706055,1.0590000152587893,-10.17099952697754,-0.5979999899864196
1621841990020,18.6200008392334,27.388999938964844,-18.27199935913086,0.9409999847412108,-10.062000274658203,-0.5389999747276306
1621841990030,16.3799991607666,26.538000106811523,-17.070999145507812,0.8629999756813049,-9.932000160217283,-0.5960000157356262
1621841990040,13.510000228881836,25.44700050354004,-16.125999450683594,0.8240000009536743,-9.8100004196167,-0.6140000224113464
1621841990050,10.56999969482422,24.347999572753903,-15.538000106811523,0.8629999756813049,-9.711999893188477,-0.7170000076293945
1621841990060,7.349999904632568,24.016000747680664,-15.66800022125244,0.7850000262260437,-9.628000259399414,-0.7419999837875366
1621841990070,2.869999885559082,23.69499969482422,-14.657999992370604,0.7450000047683715,-9.645999908447264,-0.8640000224113464
1621841990080,-2.7300000190734863,24.011999130249023,-12.824999809265137,0.7059999704360961,-9.748000144958496,-0.962000012397766
1621841990090,-8.609999656677246,23.156999588012695,-9.991000175476074,0.7450000047683715,-9.79800033569336,-1.1299999952316284
1621841990100,-13.229999542236328,21.90800094604492,-6.940999984741211,0.7850000262260437,-9.854999542236328,-1.2599999904632568
1621841990110,-16.3799991607666,20.81399917602539,-4.361999988555908,0.9020000100135804,-9.8100004196167,-1.2920000553131104
1621841990120,-17.43000030517578,19.329999923706055,-3.2019999027252197,0.9409999847412108,-9.770999908447264,-1.2849999666213987
1621841990130,-17.360000610351562,17.80900001525879,-3.0439999103546143,1.0199999809265137,-9.73900032043457,-1.2389999628067017
1621841990140,-17.010000228881836,16.4060001373291,-3.1489999294281006,1.0980000495910645,-9.847999572753906,-1.2979999780654907
1621841990150,-17.56999969482422,14.880999565124512,-2.565000057220459,1.1770000457763672,-10.133000373840332,-1.2690000534057615
1621841990160,-16.940000534057617,13.782999992370604,-1.9769999980926511,1.1770000457763672,-10.321000099182127,-1.1030000448226929
1621841990170,-16.975000381469727,13.562000274658203,-1.7314999103546145,1.2549999952316284,-10.593999862670898,-0.9120000004768372
1621841990180,-17.010000228881836,13.340999603271484,-1.4859999418258667,1.2549999952316284,-10.711999893188477,-0.6940000057220459
1621841990190,-16.8700008392334,15.218000411987305,-2.861000061035156,1.3339999914169312,-10.79800033569336,-0.4300000071525573
1621841990200,-16.799999237060547,17.825000762939453,-5.954999923706055,1.3730000257492063,-11.140999794006348,-0.2919999957084655
1621841990210,-17.010000228881836,21.815000534057617,-8.02400016784668,1.3339999914169312,-10.968999862670898,-0.1420000046491622
1621841990220,-15.470000267028809,26.145000457763672,-9.605999946594238,1.2940000295639038,-10.821000099182127,-0.0759999975562095
1621841990230,-13.090000152587892,30.402999877929688,-9.565999984741213,1.2549999952316284,-10.454999923706056,0.1080000028014183
1621841990240,-9.239999771118164,34.61600112915039,-8.468000411987305,1.1770000457763672,-9.994000434875488,0.4289999902248382
1621841990250,-5.599999904632568,38.64300155639648,-5.908999919891357,1.215999960899353,-10.006999969482422,0.5059999823570251
1621841990260,-6.369999885559082,41.5629997253418,-1.9119999408721924,1.215999960899353,-10.329999923706056,0.5289999842643737
1621841990270,-9.729999542236328,43.347999572753906,1.6729999780654907,1.3730000257492063,-10.765999794006348,0.2919999957084655
1621841990280,-14.06999969482422,44.52899932861328,4.6529998779296875,1.3339999914169312,-10.597999572753906,0.2419999986886978
1621841990290,-17.079999923706055,46.279998779296875,5.6020002365112305,1.3339999914169312,-10.211999893188477,0.3100000023841857
1621841990300,-17.989999771118164,47.41600036621094,6.014999866485596,1.3730000257492063,-9.847999572753906,0.0560000017285346
1621841990310,-16.940000534057617,47.459999084472656,6.164999961853027,1.4509999752044678,-9.531999588012695,0.0719999969005584
1621841990320,-15.329999923706056,46.612998962402344,5.730999946594238,1.4119999408721924,-9.175999641418455,-0.1439999938011169
1621841990330,-12.390000343322754,45.29499816894531,5.144000053405762,1.491000056266785,-8.871000289916992,-0.2899999916553497
1621841990340,-8.680000305175781,43.194000244140625,4.559999942779541,1.4509999752044678,-8.579999923706055,-0.3580000102519989
1621841990350,-3.7799999713897705,40.862998962402344,4.078000068664551,1.3730000257492063,-8.258000373840332,-0.3810000121593475
1621841990360,2.380000114440918,38.27199935913086,4.261000156402588,1.215999960899353,-7.954999923706055,-0.2870000004768371
1621841990370,7.980000019073486,36.20000076293945,4.322000026702881,1.0980000495910645,-8.032999992370605,-0.3009999990463256
1621841990380,11.619999885559082,34.07500076293945,5.084000110626221,0.9409999847412108,-8.142000198364258,-0.3600000143051147
1621841990390,13.510000228881836,31.70299911499023,5.235000133514404,0.8240000009536743,-8.380000114440918,-0.3619999885559082
1621841990400,13.649999618530272,30.85099983215332,4.622500419616699,0.6669999957084655,-8.616999626159668,-0.6029999852180481
1621841990410,13.789999961853027,29.999000549316406,4.010000228881836,0.5879999995231628,-8.72599983215332,-0.662000000476837
1621841990420,12.880000114440918,27.96699905395508,1.0219999551773071,0.4709999859333038,-8.701000213623047,-0.578000009059906
1621841990430,11.550000190734863,26.437999725341797,-2.802000045776367,0.2349999994039535,-8.57800006866455,-0.5960000157356262
1621841990440,10.43000030517578,26.677000045776367,-7.380000114440918,0.0780000016093254,-8.50100040435791,-0.5830000042915344
1621841990450,8.539999961853027,28.54599952697754,-11.527999877929688,0.0,-8.628000259399414,-0.7649999856948853
1621841990460,5.599999904632568,31.270000457763672,-13.678000450134276,0.0,-8.826000213623047,-0.9990000128746032
1621841990470,1.6799999475479126,33.12300109863281,-13.706000328063965,0.1180000007152557,-9.145999908447264,-1.2139999866485596
1621841990480,-1.9600000381469729,33.736000061035156,-11.536999702453612,0.2750000059604644,-9.357999801635742,-1.3710000514984133
1621841990490,-3.990000009536743,33.07899856567383,-10.230999946594238,0.4709999859333038,-9.550999641418455,-1.4049999713897705
1621841990500,-4.130000114440918,31.534000396728516,-9.9350004196167,0.6669999957084655,-9.885000228881836,-1.5440000295639038
1621841990510,-1.1200000047683716,28.371000289916992,-10.13700008392334,0.7450000047683715,-10.496000289916992,-1.6909999847412107
1621841990519,3.009999990463257,24.288000106811523,-12.777000427246094,0.6669999957084655,-9.937000274658203,-1.4730000495910645
1621841990529,5.110000133514404,21.261999130249023,-16.579999923706055,0.7850000262260437,-9.10099983215332,-1.2460000514984133
1621841990539,6.440000057220459,19.878999710083008,-16.39699935913086,0.7059999704360961,-8.99899959564209,-1.14900004863739
1621841990549,8.1899995803833,16.886999130249023,-17.565000534057617,0.7059999704360961,-9.26900005340576,-1.1959999799728394
1621841990559,9.380000114440918,13.659000396728516,-16.996000289916992,0.7059999704360961,-9.199000358581545,-1.1440000534057615
1621841990569,9.869999885559082,11.229999542236328,-15.718999862670898,0.7059999704360961,-9.107999801635742,-1.2079999446868896
1621841990579,8.890000343322754,8.335000038146973,-15.020999908447266,0.7059999704360961,-9.062000274658203,-1.2389999628067017
1621841990589,6.929999828338623,4.913000106811523,-13.350000381469728,0.6669999957084655,-9.10099983215332,-1.2460000514984133
1621841990599,4.130000114440918,1.64900004863739,-12.574999809265137,0.7059999704360961,-8.96500015258789,-1.3420000076293943
1621841990609,1.190000057220459,-0.4760000109672546,-13.020999908447266,0.6669999957084655,-8.944000244140625,-1.4579999446868896
1621841990619,-2.0999999046325684,-2.2809998989105225,-13.267999649047852,0.7059999704360961,-9.071000099182127,-1.6390000581741333
1621841990629,-5.53000020980835,-4.511000156402588,-14.72700023651123,0.7850000262260437,-9.128000259399414,-1.7690000534057615
1621841990639,-6.685000419616699,-5.855500221252441,-15.568500518798828,0.8629999756813049,-9.199000358581545,-1.8209999799728391
1621841990649,-7.8400001525878915,-7.199999809265137,-16.40999984741211,0.8629999756813049,-9.15999984741211,-1.8140000104904177
1621841990659,-8.75,-9.85200023651123,-18.298999786376953,0.9020000100135804,-8.973999977111816,-1.7419999837875366
1621841990669,-7.559999942779541,-12.687000274658203,-20.36199951171875,0.9409999847412108,-8.74899959564209,-1.6619999408721924
1621841990679,-3.990000009536743,-15.23799991607666,-22.020999908447266,0.9409999847412108,-8.652999877929688,-1.5260000228881836
1621841990689,0.699999988079071,-18.77400016784668,-22.92799949645996,0.9409999847412108,-8.758000373840332,-1.3849999904632568
1621841990699,6.300000190734863,-23.100000381469727,-21.77199935913086,0.9409999847412108,-9.16499996185303,-1.337000012397766
1621841990709,12.109999656677246,-27.312999725341797,-19.2450008392334,0.9409999847412108,-9.326000213623049,-1.3259999752044678
1621841990719,17.639999389648438,-32.47100067138672,-16.60099983215332,0.8629999756813049,-9.461999893188477,-1.2300000190734863
1621841990729,22.88999938964844,-37.29600143432618,-13.826000213623049,0.7450000047683715,-9.527999877929688,-1.0829999446868896
1621841990739,26.670000076293945,-42.08399963378906,-11.258999824523926,0.6280000209808348,-9.633000373840332,-0.9419999718666076
1621841990749,29.959999084472656,-45.619998931884766,-9.75,0.5490000247955322,-9.710000038146973,-0.9549999833106994
1621841990759,31.5,-48.2760009765625,-8.79699993133545,0.3529999852180481,-9.90999984741211,-0.9509999752044676
1621841990769,32.130001068115234,-50.18600082397461,-8.848999977111816,0.1180000007152557,-9.987000465393066,-0.9639999866485596
1621841990779,31.219999313354492,-51.19599914550781,-9.168999671936035,0.0,-10.288999557495115,-1.0570000410079956
1621841990789,27.93000030517578,-50.595001220703125,-9.347999572753906,-0.1959999948740005,-10.753000259399414,-1.1390000581741333
1621841990799,21.979999542236328,-48.79899978637695,-10.666000366210938,-0.3140000104904174,-11.04800033569336,-1.2710000276565552
1621841990809,13.859999656677246,-46.1349983215332,-12.470999717712402,-0.3529999852180481,-11.265999794006348,-1.3890000581741333
1621841990819,4.829999923706055,-42.33599853515625,-13.862000465393066,-0.4309999942779541,-11.446000099182127,-1.5
1621841990829,-3.990000009536743,-38.0260009765625,-16.94099998474121,-0.3529999852180481,-11.354999542236328,-1.5640000104904177
1621841990839,-9.65999984741211,-34.23500061035156,-18.68899917602539,-0.2349999994039535,-10.994000434875488,-1.5800000429153442
1621841990849,-10.710000038146973,-31.16200065612793,-21.20299911499023,-0.1180000007152557,-10.536999702453612,-1.4600000381469729
1621841990859,-7.8400001525878915,-28.82200050354004,-22.781000137329105,0.2750000059604644,-9.708000183105469,-1.194000005722046
1621841990869,-2.0299999713897705,-27.711000442504883,-22.229999542236328,0.4309999942779541,-9.39900016784668,-1.1390000581741333
1621841990879,1.6100000143051147,-28.118499755859375,-21.128999710083008,0.5879999995231628,-9.348999977111816,-0.9710000157356262
1621841990889,5.25,-28.525999069213867,-20.027999877929688,0.6280000209808348,-9.362000465393066,-0.8939999938011169
1621841990899,12.18000030517578,-29.98900032043457,-17.371000289916992,0.6280000209808348,-9.491999626159668,-0.8370000123977661
1621841990909,17.989999771118164,-30.531999588012695,-14.69499969482422,0.5879999995231628,-9.666999816894531,-0.7490000128746032
1621841990919,22.329999923706055,-31.00200080871582,-13.640999794006348,0.5490000247955322,-9.835000038146973,-0.6990000009536743
1621841990929,25.34000015258789,-30.56800079345703,-13.279999732971191,0.4309999942779541,-9.970999717712402,-0.6029999852180481
1621841990939,26.809999465942383,-29.506000518798828,-13.66100025177002,0.3140000104904174,-10.145999908447266,-0.5139999985694885
1621841990949,27.510000228881836,-27.4950008392334,-14.586000442504885,0.2750000059604644,-10.255000114440918,-0.5730000138282775
1621841990959,27.15999984741211,-24.441999435424805,-14.972000122070312,0.2349999994039535,-10.479999542236328,-0.652999997138977
1621841990969,25.969999313354492,-20.808000564575195,-15.824000358581545,0.2750000059604644,-10.722999572753906,-0.8550000190734863
1621841990979,21.84000015258789,-17.048999786376953,-16.58300018310547,0.3529999852180481,-10.913999557495115,-1.128000020980835
1621841990989,14.210000038146973,-13.22599983215332,-18.11199951171875,0.5099999904632568,-11.156999588012695,-1.3300000429153442
1621841990999,4.760000228881836,-9.885000228881836,-19.72599983215332,0.7059999704360961,-11.116000175476074,-1.562000036239624
1621841991009,-6.090000152587891,-7.929999828338623,-20.73200035095215,0.8240000009536743,-11.08199977874756,-1.7549999952316284
1621841991019,-15.329999923706056,-7.277999877929688,-21.61199951171875,0.9020000100135804,-10.689000129699709,-1.725000023841858
1621841991029,-21.06999969482422,-7.294000148773193,-23.534000396728516,0.981000006198883,-10.071000099182127,-1.6169999837875366
1621841991039,-22.329999923706055,-6.665999889373779,-26.69300079345703,1.0199999809265137,-9.473999977111816,-1.3919999599456787
1621841991049,-19.040000915527344,-5.308000087738037,-29.155000686645508,1.0590000152587893,-8.946000099182129,-1.218999981880188
1621841991059,-12.25,-3.763000011444092,-30.659000396728516,1.0199999809265137,-8.633000373840332,-0.9649999737739564
1621841991069,-3.9200000762939458,-1.7029999494552612,-29.44300079345703,1.0199999809265137,-8.583000183105469,-0.7960000038146972
1621841991079,4.340000152587891,-0.7739999890327453,-25.44099998474121,1.0590000152587893,-8.64900016784668,-0.6489999890327453
1621841991089,11.479999542236328,-0.3030000030994415,-20.45299911499023,1.0590000152587893,-8.829999923706055,-0.5210000276565551
1621841991099,14.244999885559082,0.3684999942779541,-18.41550064086914,1.0590000152587893,-9.083000183105469,-0.4460000097751617
1621841991109,17.010000228881836,1.0399999618530271,-16.378000259399414,1.1380000114440918,-9.411999702453612,-0.3849999904632568
1621841991119,19.739999771118164,2.6659998893737793,-13.105999946594238,1.215999960899353,-9.63199996948242,-0.2649999856948852
1621841991129,20.440000534057617,4.427000045776367,-10.592000007629396,1.2940000295639038,-9.82800006866455,-0.0599999986588954
1621841991139,19.739999771118164,5.6519999504089355,-7.461999893188477,1.2940000295639038,-9.777999877929688,0.1080000028014183
1621841991149,19.530000686645508,5.586999893188477,-3.065999984741211,1.3339999914169312,-9.604999542236328,0.2579999864101409
1621841991159,20.15999984741211,4.801000118255615,0.9890000224113464,1.2549999952316284,-9.477999687194824,0.4399999976158142
1621841991169,21.209999084472656,4.201000213623047,3.5840001106262207,1.215999960899353,-9.329999923706056,0.5059999823570251
1621841991179,22.68000030517578,3.799999952316284,5.859000205993652,1.0590000152587893,-9.189000129699709,0.6100000143051147
1621841991189,23.239999771118164,3.4560000896453857,7.006999969482422,0.9409999847412108,-9.079999923706056,0.6690000295639038
1621841991199,24.079999923706055,4.60699987411499,6.925000190734863,0.9020000100135804,-9.156999588012695,0.656000018119812
1621841991209,24.920000076293945,5.730999946594238,6.198999881744385,0.8629999756813049,-9.220999717712402,0.5649999976158142
1621841991219,25.200000762939453,6.01800012588501,6.178999900817871,0.981000006198883,-9.21399974822998,0.5260000228881835
1621841991229,25.690000534057617,6.2170000076293945,5.859000205993652,1.0590000152587893,-9.201000213623049,0.4490000009536743
1621841991239,25.969999313354492,6.031000137329102,6.110000133514404,1.215999960899353,-9.130000114440918,0.5009999871253967
1621841991249,26.31999969482422,4.85099983215332,5.546999931335449,1.3339999914169312,-8.930000305175781,0.4970000088214874
1621841991259,27.09000015258789,2.6080000400543213,5.363999843597412,1.4119999408721924,-8.75100040435791,0.6079999804496765
1621841991269,28.489999771118164,-0.7860000133514404,5.263000011444092,1.491000056266785,-8.72599983215332,0.6919999718666076
1621841991279,30.309999465942383,-4.2170000076293945,4.160999774932861,1.4509999752044678,-8.71399974822998,0.8529999852180481
1621841991289,32.619998931884766,-7.415999889373779,2.9570000171661377,1.4119999408721924,-8.90999984741211,1.0579999685287476
1621841991299,34.439998626708984,-10.11299991607666,2.125999927520752,1.3339999914169312,-9.154999732971191,1.093999981880188
1621841991309,35.279998779296875,-12.319000244140623,1.7369999885559082,1.215999960899353,-9.439000129699709,1.1239999532699585
1621841991319,34.86000061035156,-14.395000457763672,2.2239999771118164,1.0199999809265137,-9.678000450134276,1.121999979019165
1621841991329,33.880001068115234,-15.613500595092772,3.2885000705718994,0.5879999995231628,-9.883999824523924,1.1649999618530271
1621841991339,32.900001525878906,-16.832000732421875,4.353000164031982,-0.0780000016093254,-10.156999588012695,1.3559999465942385
1621841991349,30.100000381469727,-17.034000396728516,5.098999977111816,-0.8240000009536743,-10.5,1.49399995803833
1621841991359,25.690000534057617,-13.713000297546388,4.406000137329102,-1.3339999914169312,-10.586999893188477,1.7580000162124634
1621841991369,20.86000061035156,-4.051000118255615,1.2050000429153442,-1.4119999408721924,-10.440999984741213,2.062000036239624
1621841991379,15.609999656677246,9.496999740600586,-1.4529999494552612,-1.1770000457763672,-10.197999954223633,2.265000104904175
1621841991389,11.760000228881836,23.93600082397461,-2.319000005722046,-0.8240000009536743,-9.902999877929688,2.3959999084472656
1621841991399,9.449999809265137,35.13199996948242,0.2949999868869781,-0.3919999897480011,-9.715999603271484,2.4690001010894775
1621841991409,8.680000305175781,41.97800064086914,4.203000068664551,0.1180000007152557,-9.607000350952148,2.5280001163482666
1621841991419,9.59000015258789,46.054000854492195,7.693999767303467,0.4309999942779541,-9.470999717712402,2.433000087738037
1621841991429,10.920000076293944,46.87300109863281,11.107999801635742,0.6669999957084655,-9.597999572753906,2.250999927520752
1621841991439,11.970000267028809,45.26399993896485,13.383000373840332,0.7059999704360961,-9.840999603271484,2.049000024795532
1621841991449,11.760000228881836,42.470001220703125,13.104000091552734,0.7059999704360961,-10.246000289916992,1.8580000400543213
1621841991459,9.59000015258789,40.053001403808594,10.687000274658203,0.6280000209808348,-10.618000030517578,1.7130000591278076
1621841991469,4.96999979019165,38.125999450683594,7.505000114440918,0.5490000247955322,-10.720999717712402,1.6150000095367432
1621841991479,-0.8399999737739563,37.07899856567382,3.7660000324249263,0.5099999904632568,-10.373000144958496,1.6759999990463257
1621841991489,-6.71999979019165,35.37200164794922,0.5509999990463256,0.4709999859333038,-9.83199977874756,1.7719999551773071
1621841991499,-9.100000381469728,33.77799987792969,-2.503000020980835,0.5099999904632568,-9.388999938964846,1.968999981880188
1621841991509,-7.630000114440918,32.04199981689453,-5.1539998054504395,0.5490000247955322,-9.178000450134276,2.125999927520752
1621841991519,-3.569999933242798,30.840999603271484,-7.21400022506714,0.5879999995231628,-9.274999618530272,2.2279999256134033
1621841991529,0.699999988079071,29.03300094604492,-8.244000434875488,0.6669999957084655,-9.404999732971191,2.2850000858306885
1621841991539,4.269999980926514,26.972000122070312,-9.460000038146973,0.6669999957084655,-9.572999954223633,2.3350000381469727
1621841991549,5.529999732971191,26.128999710083008,-9.715499877929688,0.7850000262260437,-9.734000205993652,2.3459999561309814
1621841991559,6.789999961853027,25.285999298095703,-9.970999717712402,0.8240000009536743,-9.888999938964846,2.319000005722046
1621841991569,8.470000267028809,24.02400016784668,-10.47700023651123,0.8240000009536743,-9.928000450134276,2.312000036239624
1621841991579,9.59000015258789,22.415000915527344,-10.619000434875488,0.9020000100135804,-9.95300006866455,2.2279999256134033
1621841991589,10.850000381469728,20.520999908447266,-9.958000183105469,0.981000006198883,-9.906999588012695,2.196000099182129
1621841991599,11.550000190734863,18.429000854492188,-8.97599983215332,1.0199999809265137,-9.784000396728516,2.177999973297119
1621841991609,11.409999847412108,16.07699966430664,-8.538000106811523,1.0199999809265137,-9.732000350952148,2.1080000400543213
1621841991619,10.989999771118164,13.494000434875488,-7.998000144958496,1.0199999809265137,-9.64099979400635,2.0439999103546143
1621841991629,10.710000038146973,10.89900016784668,-7.389999866485595,0.9409999847412108,-9.58899974822998,1.9739999771118164
1621841991639,10.289999961853027,7.748000144958496,-6.453000068664551,0.9020000100135804,-9.465999603271484,1.955999970436096
1621841991649,10.56999969482422,5.242000102996826,-5.544000148773193,0.7850000262260437,-9.434000015258787,2.000999927520752
1621841991659,11.340000152587892,3.3239998817443848,-4.744999885559082,0.6669999957084655,-9.602999687194824,2.0510001182556152
1621841991669,11.970000267028809,2.23799991607666,-4.22599983215332,0.5490000247955322,-9.79599952697754,2.0169999599456787
1621841991679,11.0600004196167,1.9259999990463257,-4.066999912261963,0.4709999859333038,-10.034000396728516,2.015000104904175
1621841991689,8.609999656677246,3.138000011444092,-5.702000141143799,0.3919999897480011,-10.142999649047852,1.955999970436096
1621841991699,3.990000009536743,4.763999938964844,-7.263000011444091,0.5099999904632568,-10.258999824523926,1.934999942779541
1621841991709,-1.2599999904632568,6.39300012588501,-9.25,0.5879999995231628,-10.161999702453612,1.8329999446868896
1621841991719,-6.230000019073486,7.171999931335449,-11.244999885559082,0.7059999704360961,-9.83899974822998,1.809999942779541
1621841991729,-8.819999694824219,7.211999893188477,-13.086000442504885,0.9020000100135804,-9.484000205993652,1.8329999446868896
1621841991739,-8.119999885559082,6.574999809265137,-13.909999847412108,1.0590000152587893,-9.291000366210936,1.8669999837875368
1621841991749,-5.179999828338623,5.435999870300293,-12.689000129699709,1.1380000114440918,-9.137000083923342,1.8940000534057615
1621841991759,-3.2899999618530273,4.558000087738037,-11.742000579833984,1.2549999952316284,-9.319000244140623,2.0209999084472656
1621841991769,-1.399999976158142,3.6800000667572026,-10.795000076293944,1.2940000295639038,-9.494000434875488,2.109999895095825
1621841991779,2.5899999141693115,1.6770000457763672,-9.512999534606934,1.2940000295639038,-9.647999763488768,2.0829999446868896
1621841991789,5.53000020980835,0.1209999993443489,-7.940000057220459,1.3339999914169312,-9.840999603271484,2.049000024795532
1621841991799,7.0,-1.5049999952316284,-6.377999782562256,1.4509999752044678,-9.911999702453612,1.9960000514984133
1621841991809,7.280000209808349,-3.171999931335449,-5.39300012588501,1.4509999752044678,-9.821000099182127,1.9329999685287476
1621841991819,6.369999885559082,-5.145999908447266,-4.675000190734863,1.491000056266785,-9.781999588012695,1.940000057220459
1621841991829,5.179999828338623,-8.690999984741211,-4.730999946594238,1.491000056266785,-9.718000411987305,2.0309998989105225
1621841991839,4.409999847412109,-13.338000297546388,-4.98199987411499,1.4119999408721924,-9.67300033569336,1.9989999532699585
1621841991849,4.409999847412109,-17.878999710083008,-5.427000045776367,1.2940000295639038,-9.781999588012695,1.940000057220459
1621841991859,4.96999979019165,-22.132999420166016,-5.89300012588501,1.0980000495910645,-10.006999969482422,1.8600000143051147
1621841991869,4.829999923706055,-25.16200065612793,-6.853000164031982,0.9409999847412108,-10.109000205993652,1.7619999647140503
1621841991879,3.2200000286102295,-27.214000701904297,-7.7129998207092285,0.7850000262260437,-10.211999893188477,1.6649999618530271
1621841991889,0.0,-27.920000076293945,-8.54800033569336,0.6669999957084655,-10.237000465393066,1.5809999704360962
1621841991899,-3.0799999237060547,-27.586999893188477,-8.418000221252441,0.5879999995231628,-10.190999984741213,1.5490000247955322
1621841991909,-6.789999961853027,-27.156999588012695,-7.631999969482423,0.6280000209808348,-9.977999687194824,1.4670000076293943
1621841991919,-9.9399995803833,-26.415000915527344,-5.795000076293945,0.6280000209808348,-9.809000015258787,1.4170000553131104
1621841991929,-11.970000267028809,-25.562999725341797,-3.369999885559082,0.6669999957084655,-9.595999717712402,1.3350000381469729
1621841991939,-12.8100004196167,-25.194000244140625,-1.031000018119812,0.6669999957084655,-9.343999862670898,1.2599999904632568
1621841991949,-12.8100004196167,-25.20599937438965,1.4550000429153442,0.6280000209808348,-9.175999641418455,1.2100000381469729
1621841991959,-12.215000152587892,-25.54199981689453,2.3554999828338623,0.6280000209808348,-9.123000144958496,1.1399999856948853
1621841991969,-11.619999885559082,-25.878000259399418,3.25600004196167,0.5879999995231628,-9.109999656677246,1.062000036239624
1621841991979,-10.010000228881836,-26.43000030517578,4.367000102996826,0.4309999942779541,-9.187000274658203,1.0490000247955322
1621841991989,-9.170000076293944,-26.628000259399418,4.686999797821045,0.2750000059604644,-9.263999938964846,1.0349999666213987
1621841991999,-8.609999656677246,-26.43400001525879,3.5840001106262207,0.1959999948740005,-9.347999572753906,1.059999942779541
1621841992009,-8.050000190734863,-25.44499969482422,2.4079999923706055,0.1180000007152557,-9.425999641418455,1.0470000505447388
1621841992019,-8.050000190734863,-23.858999252319336,1.4789999723434448,0.1570000052452087,-9.425999641418455,1.0470000505447388
1621841992029,-8.399999618530273,-22.395999908447266,1.2400000095367432,0.1570000052452087,-9.432000160217283,1.0850000381469729
1621841992039,-8.119999885559082,-20.871000289916992,1.8639999628067017,0.1959999948740005,-9.46399974822998,1.0399999618530271
1621841992049,-7.139999866485596,-19.687000274658203,2.002000093460083,0.2349999994039535,-9.39400005340576,1.0920000076293943
1621841992059,-5.739999771118164,-18.75,1.5269999504089355,0.3529999852180481,-9.439000129699709,1.1239999532699585
1621841992069,-3.7100000381469727,-18.007999420166016,0.9470000267028807,0.5099999904632568,-9.562000274658203,1.1419999599456787
1621841992079,-1.8899999856948853,-18.020000457763672,-0.19200000166893,0.6669999957084655,-9.762000083923342,1.1469999551773071
1621841992089,-0.5600000023841857,-19.329999923706055,-1.63100004196167,0.7850000262260437,-9.93000030517578,1.1970000267028809
1621841992099,-0.5600000023841857,-21.472000122070312,-2.7909998893737793,0.8629999756813049,-10.038999557495115,1.1380000114440918
1621841992109,-1.0499999523162842,-24.094999313354492,-4.034999847412109,0.9409999847412108,-10.166000366210936,0.955999970436096
1621841992119,-2.7300000190734863,-27.513999938964844,-5.206999778747559,0.9409999847412108,-10.229999542236328,0.865000009536743
1621841992128,-4.619999885559082,-30.437999725341797,-6.361999988555908,0.8240000009536743,-10.300000190734863,0.8130000233650208
1621841992138,-6.929999828338623,-32.93199920654297,-7.939000129699707,0.7450000047683715,-10.255000114440918,0.781000018119812
1621841992148,-8.960000038146973,-33.92499923706055,-9.961999893188477,0.7850000262260437,-10.163999557495115,0.7170000076293945
1621841992158,-10.43000030517578,-33.689998626708984,-11.697999954223633,0.8240000009536743,-10.041000366210936,0.6990000009536743
1621841992168,-10.920000076293944,-33.615501403808594,-12.32450008392334,0.981000006198883,-9.840999603271484,0.6940000057220459
1621841992178,-11.409999847412108,-33.54100036621094,-12.951000213623049,1.0980000495910645,-9.647999763488768,0.7279999852180481
1621841992188,-12.109999656677246,-34.334999084472656,-12.878000259399414,1.215999960899353,-9.595999717712402,0.6579999923706054
1621841992198,-11.899999618530272,-35.80699920654297,-11.786999702453612,1.2940000295639038,-9.465999603271484,0.6010000109672546
1621841992208,-10.640000343322754,-37.237998962402344,-10.119999885559082,1.3730000257492063,-9.42099952697754,0.5690000057220459
1621841992218,-9.380000114440918,-39.03499984741211,-8.802000045776367,1.4119999408721924,-9.388999938964846,0.615000009536743
1621841992228,-8.329999923706055,-40.65599822998047,-7.665999889373779,1.4509999752044678,-9.395999908447264,0.652999997138977
1621841992238,-6.71999979019165,-42.09199905395508,-6.7820000648498535,1.4119999408721924,-9.319000244140623,0.6669999957084655
1621841992248,-5.599999904632568,-43.94100189208984,-5.9710001945495605,1.2940000295639038,-9.378000259399414,0.7760000228881835
1621841992258,-4.900000095367432,-46.33300018310547,-4.900000095367432,1.1380000114440918,-9.454999923706056,0.7630000114440918
1621841992268,-3.7799999713897705,-47.27799987792969,-4.7820000648498535,1.0590000152587893,-9.54599952697754,0.8259999752044677
1621841992278,-3.0799999237060547,-47.58599853515625,-5.050000190734863,1.3339999914169312,-9.661999702453612,0.8059999942779541
1621841992288,-3.359999895095825,-48.404998779296875,-4.839000225067139,1.843999981880188,-9.829999923706056,0.856000006198883
1621841992298,-4.619999885559082,-51.847999572753906,-3.4560000896453857,2.628000020980835,-10.08199977874756,0.930999994277954
1621841992308,-7.139999866485596,-59.694000244140625,-1.2849999666213987,3.4519999027252197,-10.29599952697754,1.0130000114440918
1621841992318,-10.850000381469728,-74.4739990234375,2.7190001010894775,4.000999927520752,-10.406999588012695,1.1920000314712524
1621841992328,-16.239999771118164,-94.8249969482422,5.670000076293945,4.236000061035156,-10.36400032043457,1.39900004863739
1621841992338,-21.280000686645508,-116.49500274658205,5.616000175476074,4.236000061035156,-10.243000030517578,1.61899995803833
1621841992348,-25.40999984741211,-136.23899841308594,2.703000068664551,3.961999893188477,-10.071000099182127,1.7690000534057615
1621841992358,-28.06999969482422,-153.13299560546875,-1.0570000410079956,3.6089999675750737,-9.93000030517578,1.8739999532699585
1621841992368,-29.540000915527344,-167.19200134277344,-5.171000003814697,3.0989999771118164,-9.866000175476074,1.9650000333786013
1621841992378,-29.854999542236328,-172.83050537109375,-6.44950008392334,2.7070000171661377,-9.873000144958496,2.003000020980835
1621841992388,-30.170000076293945,-178.468994140625,-7.728000164031982,2.2750000953674316,-9.833999633789062,2.009999990463257
1621841992398,-30.100000381469727,-187.23599243164065,-9.20300006866455,1.7649999856948853,-9.809000015258787,2.0940001010894775
1621841992408,-30.100000381469727,-193.9759979248047,-8.472000122070312,1.2940000295639038,-9.732000350952148,2.1080000400543213
1621841992418,-29.260000228881836,-197.81199645996097,-6.874000072479248,0.8629999756813049,-9.732000350952148,2.1080000400543213
1621841992428,-28.13999938964844,-198.0099945068359,-5.34499979019165,0.4309999942779541,-9.803000450134276,2.055999994277954
1621841992438,-26.25,-195.48800659179688,-4.331999778747559,0.0,-9.781999588012695,1.940000057220459
1621841992448,-24.079999923706055,-190.33399963378903,-2.9260001182556152,-0.4709999859333038,-9.878000259399414,1.8029999732971191
1621841992458,-22.329999923706055,-181.56199645996097,-1.8769999742507937,-0.981000006198883,-9.857000350952148,1.687000036239624
1621841992468,-20.719999313354492,-169.01199340820312,-1.2979999780654907,-1.3339999914169312,-9.758999824523924,1.5850000381469729
1621841992478,-18.969999313354492,-154.76300048828125,0.9300000071525572,-1.6480000019073486,-9.746000289916992,1.5080000162124634
1621841992488,-17.079999923706055,-140.2169952392578,4.703000068664551,-1.843999981880188,-9.718999862670898,1.3530000448226929
1621841992498,-15.329999923706056,-125.53299713134766,9.708999633789062,-2.000999927520752,-9.76900005340576,1.184999942779541
1621841992508,-13.859999656677246,-111.66799926757812,14.925999641418455,-2.0789999961853027,-9.800000190734863,1.1399999856948853
1621841992518,-13.369999885559082,-98.4280014038086,19.250999450683594,-2.118000030517578,-9.79800033569336,0.9010000228881836
1621841992528,-13.229999542236328,-85.74400329589844,22.695999145507812,-2.2750000953674316,-9.73900032043457,0.7919999957084655
1621841992538,-13.020000457763672,-73.31500244140625,23.96299934387207,-2.313999891281128,-9.635000228881836,0.6510000228881835
1621841992548,-12.390000343322754,-61.77399826049805,24.22100067138672,-2.313999891281128,-9.543999671936035,0.5879999995231628
1621841992558,-11.479999542236328,-50.43299865722656,23.590999603271484,-2.313999891281128,-9.446000099182127,0.4850000143051147
1621841992568,-10.289999961853027,-39.82899856567382,21.906999588012695,-2.3540000915527344,-9.470999717712402,0.4009999930858612
1621841992578,-9.65999984741211,-29.749000549316406,19.56100082397461,-2.236000061035156,-9.579999923706056,0.3420000076293945
1621841992588,-9.940000534057615,-25.39800071716309,18.267000198364254,-1.9220000505447388,-9.689000129699709,0.2829999923706054
1621841992598,-10.220000267028809,-21.04700088500977,16.972999572753906,-1.6480000019073486,-9.734999656677246,0.3149999976158142
1621841992608,-11.619999885559082,-14.680999755859377,14.328000068664553,-1.4119999408721924,-9.696000099182127,0.3219999969005584
1621841992618,-13.090000152587892,-10.946999549865724,11.291000366210938,-1.0980000495910645,-9.656999588012695,0.3289999961853027
1621841992628,-14.350000381469728,-8.420999526977539,8.253000259399414,-0.7850000262260437,-9.656999588012695,0.3289999961853027
1621841992638,-14.840000152587892,-7.995999813079834,4.631999969482422,-0.5099999904632568,-9.62600040435791,0.3740000128746032
1621841992648,-15.260000228881836,-9.71500015258789,2.694000005722046,-0.3919999897480011,-9.67099952697754,0.4059999883174896
1621841992658,-15.329999923706056,-12.22599983215332,0.402999997138977,-0.2750000059604644,-9.715999603271484,0.4379999935626983
1621841992668,-14.909999847412108,-14.375,-2.322000026702881,-0.2750000059604644,-9.76900005340576,0.5080000162124633
1621841992678,-14.979999542236328,-16.565000534057617,-5.622000217437744,-0.2750000059604644,-9.89099979400635,0.5260000228881835
1621841992688,-15.329999923706056,-17.972999572753906,-8.927000045776367,-0.3140000104904174,-9.975000381469728,0.5509999990463256
1621841992698,-15.81999969482422,-19.04800033569336,-12.10099983215332,-0.3919999897480011,-10.097999572753906,0.5690000057220459
1621841992708,-17.010000228881836,-19.733999252319336,-13.857000350952148,-0.4709999859333038,-10.144000053405762,0.6010000109672546
1621841992718,-18.549999237060547,-19.660999298095703,-15.479000091552734,-0.6280000209808348,-10.112000465393066,0.6470000147819519
1621841992728,-19.31999969482422,-18.927000045776367,-16.416000366210938,-0.7450000047683715,-9.996000289916992,0.6669999957084655
1621841992738,-20.15999984741211,-17.30900001525879,-17.125999450683594,-0.8629999756813049,-9.803000450134276,0.7009999752044677
1621841992748,-19.600000381469727,-15.102999687194824,-16.73699951171875,-0.9409999847412108,-9.595999717712402,0.6579999923706054
1621841992758,-18.479999542236328,-12.508000373840332,-16.136999130249023,-0.981000006198883,-9.576000213623049,0.5419999957084655
1621841992768,-16.940000534057617,-9.43000030517578,-15.45199966430664,-0.981000006198883,-9.576000213623049,0.5419999957084655
1621841992778,-15.260000228881836,-6.173999786376953,-15.37600040435791,-1.0199999809265137,-9.51599979400635,0.4329999983310699
1621841992788,-14.5600004196167,-2.6700000762939453,-15.895000457763672,-0.981000006198883,-9.510000228881836,0.3939999938011169
1621841992798,-13.860000610351564,-0.874000072479248,-16.60900115966797,-0.981000006198883,-9.48900032043457,0.2790000140666961
1621841992808,-13.159999847412108,0.921999990940094,-17.322999954223633,-0.9020000100135804,-9.45699977874756,0.3240000009536743
1621841992818,-11.550000190734863,4.165999889373779,-18.38599967956543,-0.8240000009536743,-9.48900032043457,0.2790000140666961
1621841992828,-9.65999984741211,7.657000064849853,-20.045000076293945,-0.7059999704360961,-9.527999877929688,0.2720000147819519
1621841992838,-7.630000114440918,11.411999702453612,-21.586000442504883,-0.5879999995231628,-9.604999542236328,0.2579999864101409
1621841992848,-6.579999923706055,14.611000061035156,-22.798999786376953,-0.4309999942779541,-9.71399974822998,0.1990000009536743
1621841992858,-5.739999771118164,16.650999069213867,-23.07900047302246,-0.3140000104904174,-9.829999923706056,0.1790000051259994
1621841992868,-5.739999771118164,18.26499938964844,-22.155000686645508,-0.1959999948740005,-9.913999557495115,0.2039999961853027
1621841992878,-5.809999942779541,19.25,-21.69700050354004,-0.1180000007152557,-9.960000038146973,0.2349999994039535
1621841992888,-6.440000057220459,20.149999618530273,-20.756000518798828,-0.0390000008046627,-9.92099952697754,0.2419999986886978
1621841992898,-7.139999866485596,20.673999786376953,-20.094999313354492,0.0780000016093254,-9.928000450134276,0.2809999883174896
1621841992908,-8.119999885559082,20.993999481201172,-19.89699935913086,0.3140000104904174,-9.972999572753906,0.3129999935626983
1621841992918,-9.100000381469728,20.041000366210938,-18.927000045776367,0.4709999859333038,-9.928000450134276,0.2809999883174896
1621841992928,-10.56999969482422,18.253000259399418,-18.461000442504883,0.6669999957084655,-9.92099952697754,0.2419999986886978
1621841992938,-11.270000457763672,15.41100025177002,-17.256000518798828,0.7850000262260437,-9.906999588012695,0.1650000065565109
1621841992948,-11.970000267028809,12.390000343322754,-16.652000427246094,0.7450000047683715,-9.732000350952148,0.0759999975562095
1621841992958,-12.18000030517578,9.43000030517578,-16.392000198364258,0.7059999704360961,-9.623000144958496,0.135000005364418
1621841992968,-11.760000228881836,8.168000221252441,-16.898000717163086,0.6280000209808348,-9.592000007629396,0.1809999942779541
1621841992978,-10.850000381469728,8.420000076293945,-17.920000076293945,0.4709999859333038,-9.538999557495115,0.1099999994039535
1621841992988,-9.65999984741211,9.1899995803833,-17.854999542236328,0.3919999897480011,-9.571000099182127,0.0649999976158142
1621841992998,-8.119999885559082,9.911999702453612,-17.514999389648438,0.3140000104904174,-9.564000129699709,0.0260000005364418
1621841993008,-6.650000095367432,11.411999702453612,-16.753000259399414,0.1959999948740005,-9.564000129699709,0.0260000005364418
1621841993018,-5.320000171661377,13.371000289916992,-15.767999649047852,0.0780000016093254,-9.416999816894531,0.0920000001788139
1621841993028,-4.585000038146973,14.78849983215332,-15.340000152587892,0.0390000008046627,-9.378000259399414,0.0989999994635581
1621841993038,-3.849999904632568,16.20599937438965,-14.911999702453612,-0.0390000008046627,-9.371000289916992,0.0599999986588954
1621841993048,-2.240000009536743,19.680999755859375,-13.659999847412108,-0.1180000007152557,-9.319000244140623,-0.0099999997764825
1621841993058,0.4900000095367431,22.746999740600582,-12.906000137329102,-0.2349999994039535,-9.279999732971191,-0.003000000026077
1621841993068,3.9200000762939458,26.586999893188477,-12.512999534606934,-0.3529999852180481,-9.157999992370604,-0.0209999997168779
1621841993078,7.980000019073486,30.90999984741211,-12.034999847412108,-0.3919999897480011,-8.970999717712402,0.0509999990463256
1621841993088,13.020000457763672,35.827999114990234,-12.519000053405762,-0.4709999859333038,-8.847999572753906,0.032999999821186
1621841993098,18.6200008392334,41.84199905395508,-13.163999557495115,-0.6280000209808348,-8.835000038146973,-0.0439999997615814
1621841993108,24.149999618530273,49.792999267578125,-15.529000282287598,-0.8240000009536743,-8.854999542236328,0.0719999969005584
1621841993118,28.700000762939453,59.301998138427734,-19.468000411987305,-1.0980000495910645,-8.991999626159668,0.1669999957084655
1621841993128,31.079999923706055,72.15499877929688,-24.23900032043457,-1.2549999952316284,-9.263999938964846,0.3580000102519989
1621841993138,32.40999984741211,86.9029998779297,-28.461999893188477,-1.1770000457763672,-9.45300006866455,0.5239999890327453
1621841993148,32.20000076293945,100.08899688720705,-29.47800064086914,-0.8629999756813049,-9.8100004196167,0.740000009536743
1621841993158,30.309999465942383,110.04499816894533,-25.874000549316406,-0.5099999904632568,-10.069000244140623,0.8539999723434448
1621841993168,26.739999771118164,117.29100036621094,-23.031999588012695,-0.0780000016093254,-10.102999687194824,1.0470000505447388
1621841993178,23.450000762939453,123.43499755859376,-22.802000045776367,0.3529999852180481,-10.020999908447266,1.2599999904632568
1621841993188,21.06999969482422,128.27999877929688,-25.288999557495117,0.7850000262260437,-9.763999938964846,1.3849999904632568
1621841993198,19.530000686645508,132.17999267578125,-30.073999404907227,1.2549999952316284,-9.538999557495115,1.4650000333786013
1621841993208,19.600000381469727,134.82400512695312,-34.58399963378906,1.72599995136261,-9.321000099182127,1.5829999446868896
1621841993218,19.950000762939453,136.60699462890625,-39.45800018310547,2.0789999961853027,-9.204999923706056,1.6030000448226929
1621841993228,19.459999084472656,137.33700561523435,-42.38600158691406,2.431999921798706,-9.190999984741213,1.5260000228881836
1621841993238,18.479999542236328,136.44900512695312,-42.1870002746582,2.7850000858306885,-9.215999603271484,1.4420000314712524
1621841993248,17.219999313354492,135.21649169921875,-40.84049987792969,3.0989999771118164,-9.293999671936035,1.4279999732971191
1621841993258,15.960000038146973,133.98399353027344,-39.493999481201165,3.413000106811523,-9.472999572753906,1.3170000314712524
1621841993268,12.600000381469728,129.75900268554688,-35.689998626708984,3.6480000019073486,-9.621000289916992,1.2510000467300415
1621841993278,8.1899995803833,124.36199951171876,-32.09199905395508,3.8050000667572026,-9.569000244140623,1.180999994277954
1621841993288,4.409999847412109,118.58399963378906,-29.55699920654297,3.92300009727478,-9.503000259399414,1.0329999923706057
1621841993298,1.8899999856948853,113.56800079345705,-29.731000900268555,4.000999927520752,-9.444000244140623,0.9240000247955322
1621841993308,0.699999988079071,109.41600036621094,-31.173999786376953,4.039999961853027,-9.307000160217283,0.828000009059906
1621841993318,0.9800000190734864,105.72100067138672,-32.39400100708008,4.000999927520752,-9.138999938964846,0.777999997138977
1621841993328,2.5899999141693115,102.97200012207033,-33.731998443603516,3.92300009727478,-8.925999641418457,0.6970000267028807
1621841993338,4.829999923706055,101.20400238037108,-34.18600082397461,3.8440001010894775,-9.027999877929688,0.5989999771118164
1621841993348,5.670000076293945,99.19300079345705,-32.051998138427734,3.8829998970031734,-9.097999572753906,0.5469999909400939
1621841993358,5.670000076293945,95.38999938964844,-27.81800079345703,4.000999927520752,-9.267000198364256,0.597000002861023
1621841993368,4.619999885559082,91.10399627685548,-23.670000076293945,4.079999923706055,-9.42099952697754,0.5690000057220459
1621841993378,3.2200000286102295,87.0979995727539,-19.89800071716309,4.197000026702881,-9.487000465393066,0.7170000076293945
1621841993388,1.5399999618530271,83.18599700927734,-17.459999084472656,4.11899995803833,-9.505000114440918,0.5939999818801879
1621841993398,-0.2800000011920929,80.16899871826172,-16.072999954223633,4.079999923706055,-9.460000038146973,0.5630000233650208
1621841993408,-1.6799999475479126,77.19300079345702,-14.109999656677246,3.961999893188477,-9.336999893188477,0.5440000295639038
1621841993418,-2.380000114440918,74.16799926757812,-13.079999923706056,3.92300009727478,-9.232000350952148,0.402999997138977
1621841993428,-2.869999885559082,70.86699676513672,-12.097999572753906,3.92300009727478,-9.3100004196167,0.3899999856948852
1621841993438,-3.2200000286102295,67.14099884033203,-11.119999885559082,3.92300009727478,-9.3100004196167,0.3899999856948852
1621841993448,-3.6400001049041744,62.652000427246094,-9.850000381469728,4.079999923706055,-9.354999542236328,0.4219999909400939
1621841993458,-3.885000228881836,59.77549743652344,-8.651500701904297,4.236000061035156,-9.432000160217283,0.4079999923706054
1621841993468,-4.130000114440918,56.89899826049805,-7.453000068664551,4.354000091552734,-9.432000160217283,0.4079999923706054
1621841993478,-4.760000228881836,49.762001037597656,-4.873000144958496,4.39300012588501,-9.354999542236328,0.4219999909400939
1621841993488,-4.550000190734863,42.36199951171875,-2.4110000133514404,4.354000091552734,-9.28499984741211,0.4740000069141387
1621841993498,-3.6400001049041744,35.5620002746582,-0.1270000040531158,4.236000061035156,-9.246000289916992,0.481000006198883
1621841993508,-3.0799999237060547,29.191999435424805,1.7359999418258667,4.039999961853027,-9.270999908447264,0.3970000147819519
1621841993518,-2.0299999713897705,23.559999465942383,2.234999895095825,3.7660000324249263,-9.263999938964846,0.3580000102519989
1621841993528,-1.1200000047683716,19.55299949645996,2.381999969482422,3.490999937057495,-9.342000007629396,0.3440000116825103
1621841993538,0.0700000002980232,16.90999984741211,2.058000087738037,3.2170000076293945,-9.496000289916992,0.31700000166893
1621841993548,0.4900000095367431,14.769000053405762,2.1070001125335693,2.941999912261963,-9.696000099182127,0.3219999969005584
1621841993558,0.5600000023841857,14.001999855041504,1.616000056266785,2.7070000171661377,-9.888999938964846,0.2879999876022338
1621841993568,-0.9100000262260436,13.670000076293944,1.4859999418258667,2.5889999866485596,-10.043999671936035,0.2599999904632568
1621841993578,-2.799999952316284,12.906999588012695,1.7779999971389773,2.510999917984009,-10.121000289916992,0.2469999939203262
1621841993588,-4.96999979019165,11.979000091552734,1.4010000228881836,2.431999921798706,-10.152999877929688,0.2010000050067901
1621841993598,-7.210000038146973,10.916000366210938,0.5740000009536743,2.3929998874664307,-10.08199977874756,0.2540000081062316
1621841993608,-9.170000076293944,9.416000366210936,-0.1879999935626983,2.431999921798706,-10.036999702453612,0.2220000028610229
1621841993618,-10.640000343322754,7.91099977493286,-1.7330000400543213,2.431999921798706,-9.888999938964846,0.2879999876022338
1621841993628,-11.899999618530272,6.685999870300293,-3.6540000438690186,2.431999921798706,-9.812000274658203,0.3009999990463256
1621841993638,-12.25,5.1529998779296875,-5.843999862670898,2.431999921798706,-9.656999588012695,0.3289999961853027
1621841993648,-12.109999656677246,3.697000026702881,-7.664000034332275,2.431999921798706,-9.541000366210936,0.3490000069141387
1621841993658,-11.829999923706056,1.5839999914169312,-9.387999534606934,2.4709999561309814,-9.411999702453612,0.2919999957084655
1621841993668,-11.795000076293944,0.0755000114440917,-9.90250015258789,2.5889999866485596,-9.321000099182127,0.2290000021457672
1621841993678,-11.760000228881836,-1.4329999685287476,-10.416999816894531,2.8239998817443848,-9.345999717712402,0.1439999938011169
1621841993688,-12.18000030517578,-6.35099983215332,-9.934000015258787,3.2170000076293945,-9.416999816894531,0.0920000001788139
1621841993698,-12.949999809265137,-14.194000244140623,-8.189000129699707,3.569999933242798,-9.494000434875488,0.0790000036358833
1621841993708,-13.510000228881836,-23.36199951171875,-7.388999938964843,3.8829998970031734,-9.526000022888184,0.032999999821186
1621841993718,-13.93000030517578,-32.724998474121094,-7.902999877929688,3.961999893188477,-9.494000434875488,0.0790000036358833
1621841993727,-14.210000038146973,-42.12900161743164,-8.991999626159668,3.8829998970031734,-9.479999542236328,0.0010000000474974
1621841993738,-14.210000038146973,-49.84099960327149,-9.996999740600586,3.6089999675750737,-9.621000289916992,-0.1030000001192092
1621841993748,-14.140000343322754,-56.10200119018555,-9.963000297546388,3.2950000762939453,-9.744000434875488,-0.0850000008940696
1621841993757,-14.210000038146973,-59.53300094604492,-9.857999801635742,2.941999912261963,-9.897999763488768,-0.1120000034570694
1621841993767,-14.909999847412108,-60.48099899291992,-9.314000129699709,2.5889999866485596,-9.961999893188477,-0.2029999941587448
1621841993777,-15.68000030517578,-58.59600067138672,-7.914999961853027,2.197000026702881,-10.026000022888184,-0.2939999997615814
1621841993787,-16.170000076293945,-54.99100112915039,-5.7870001792907715,1.9220000505447388,-10.064000129699709,-0.3009999990463256
1621841993797,-16.309999465942383,-49.63800048828125,-3.493000030517578,1.6480000019073486,-10.019000053405762,-0.3330000042915344
1621841993807,-16.309999465942383,-43.132999420166016,-1.2790000438690186,1.4119999408721924,-9.88199996948242,-0.4280000030994415
1621841993817,-15.609999656677246,-35.93899917602539,1.0549999475479126,1.2549999952316284,-9.836999893188477,-0.4600000083446502
1621841993827,-14.5600004196167,-27.659000396728516,2.871000051498413,1.0980000495910645,-9.822999954223633,-0.537000000476837
1621841993837,-13.300000190734863,-19.71500015258789,4.98199987411499,1.0199999809265137,-9.847999572753906,-0.6209999918937683
1621841993847,-12.529999732971191,-12.184000015258787,7.020999908447266,1.0199999809265137,-9.918999671936035,-0.6740000247955322
1621841993857,-12.529999732971191,-4.7270002365112305,9.472999572753906,1.0980000495910645,-9.98900032043457,-0.7260000109672546
1621841993867,-12.8100004196167,0.5979999899864196,12.331000328063965,1.2940000295639038,-10.06700038909912,-0.7390000224113464
1621841993877,-13.720000267028809,4.620999813079834,14.107000350952148,1.4119999408721924,-10.0600004196167,-0.777999997138977
1621841993887,-14.140000343322754,6.02400016784668,14.816499710083008,1.491000056266785,-9.98900032043457,-0.7260000109672546
1621841993897,-14.5600004196167,7.427000045776368,15.526000022888184,1.6080000400543213,-9.944000244140623,-0.7580000162124633
1621841993907,-15.119999885559082,9.284000396728516,16.27899932861328,1.687000036239624,-9.880000114440918,-0.6669999957084655
1621841993917,-14.630000114440918,10.541000366210936,16.003999710083008,1.8040000200271609,-9.718999862670898,-0.6779999732971191
1621841993927,-13.229999542236328,11.42099952697754,15.447999954223633,1.72599995136261,-9.564000129699709,-0.6510000228881835
1621841993937,-11.619999885559082,11.960000038146973,14.406000137329102,1.6480000019073486,-9.44200038909912,-0.6690000295639038
1621841993947,-10.289999961853027,13.56999969482422,13.33899974822998,1.491000056266785,-9.532999992370604,-0.6050000190734863
1621841993957,-8.819999694824219,16.091999053955078,11.935999870300291,1.2940000295639038,-9.654999732971191,-0.5870000123977661
1621841993967,-8.329999923706055,20.020999908447266,10.211999893188477,1.1380000114440918,-9.78499984741211,-0.5299999713897705
1621841993977,-8.609999656677246,24.930999755859375,9.371999740600586,1.0199999809265137,-9.753000259399414,-0.4850000143051147
1621841993987,-9.729999542236328,30.86000061035156,9.208999633789062,0.9409999847412108,-9.71399974822998,-0.4779999852180481
1621841993997,-11.340000152587892,36.17599868774414,10.50100040435791,0.9409999847412108,-9.527999877929688,-0.4050000011920929
1621841994007,-12.529999732971191,40.66899871826172,12.430999755859377,0.981000006198883,-9.380000114440918,-0.3400000035762786
1621841994017,-13.020000457763672,44.29499816894531,14.847000122070312,1.0980000495910645,-9.270999908447264,-0.2800000011920929
1621841994027,-13.720000267028809,46.310001373291016,17.121999740600586,1.215999960899353,-9.303000450134276,-0.3260000050067901
1621841994037,-13.859999656677246,46.849998474121094,18.496000289916992,1.3339999914169312,-9.354999542236328,-0.2549999952316284
1621841994047,-13.649999618530272,46.797000885009766,19.197999954223633,1.4509999752044678,-9.347999572753906,-0.2939999997615814
1621841994057,-13.229999542236328,46.0629997253418,18.926000595092773,1.491000056266785,-9.373000144958496,-0.3779999911785125
1621841994067,-12.949999809265137,45.000999450683594,18.099000930786133,1.6080000400543213,-9.335000038146973,-0.3709999918937683
1621841994077,-12.739999771118164,43.03799819946289,17.540000915527344,1.6080000400543213,-9.32800006866455,-0.4099999964237213
1621841994087,-14.06999969482422,41.35900115966797,17.38599967956543,1.6480000019073486,-9.359999656677246,-0.4550000131130218
1621841994097,-14.94499969482422,40.93150329589844,16.99049949645996,1.491000056266785,-9.482999801635742,-0.4370000064373016
1621841994107,-15.81999969482422,40.50400161743164,16.594999313354492,1.4119999408721924,-9.482999801635742,-0.4370000064373016
1621841994117,-17.639999389648438,39.9640007019043,15.220999717712402,1.2940000295639038,-9.513999938964846,-0.4830000102519989
1621841994127,-18.899999618530273,39.74100112915039,14.470999717712402,1.215999960899353,-9.54599952697754,-0.527999997138977
1621841994137,-19.739999771118164,39.30699920654297,14.109999656677246,1.1770000457763672,-9.50100040435791,-0.5600000023841857
1621841994147,-20.020000457763672,39.56600189208984,13.44499969482422,1.0590000152587893,-9.595999717712402,-0.6959999799728394
1621841994157,-19.040000915527344,39.618999481201165,12.743000030517578,1.0199999809265137,-9.776000022888184,-0.8080000281333923
1621841994167,-16.729999542236328,39.35100173950195,11.843000411987305,0.981000006198883,-9.82800006866455,-0.7369999885559082
1621841994177,-13.510000228881836,39.05899810791016,11.081000328063965,0.8629999756813049,-9.55799961090088,-0.6890000104904174
1621841994187,-9.729999542236328,39.76499938964844,9.49899959564209,0.8240000009536743,-9.262000083923342,-0.5580000281333923
1621841994197,-5.25,41.19200134277344,7.050000190734863,0.7450000047683715,-9.262000083923342,-0.5580000281333923
1621841994207,-2.240000009536743,43.332000732421875,5.793000221252441,0.7059999704360961,-9.293999671936035,-0.6029999852180481
1621841994217,0.209999993443489,44.62200164794922,4.5269999504089355,0.7059999704360961,-9.371000289916992,-0.6169999837875366
1621841994227,1.9600000381469729,45.47700119018555,4.109000205993652,0.7450000047683715,-9.479999542236328,-0.6759999990463256
1621841994237,2.0999999046325684,45.93600082397461,5.540999889373779,0.7450000047683715,-9.697999954223633,-0.7940000295639038
1621841994247,1.6100000143051147,45.55500030517578,6.894999980926514,0.7450000047683715,-9.80799961090088,-0.8529999852180481
1621841994257,-0.209999993443489,44.61399841308594,9.003999710083008,0.7450000047683715,-9.885000228881836,-0.8669999837875366
1621841994267,-2.380000114440918,43.19100189208984,11.027999877929688,0.7059999704360961,-9.916999816894531,-0.9120000004768372
1621841994277,-4.900000095367432,41.02199935913086,12.848999977111816,0.7059999704360961,-9.845999717712402,-0.8600000143051147
1621841994287,-7.210000038146973,38.30099868774414,13.36400032043457,0.6669999957084655,-9.83899974822998,-0.8980000019073486
1621841994297,-8.014999389648438,37.2344970703125,13.56700038909912,0.5490000247955322,-9.833000183105469,-0.9369999766349792
1621841994307,-8.819999694824219,36.167999267578125,13.770000457763672,0.5099999904632568,-9.755000114440918,-0.9229999780654908
1621841994317,-9.869999885559082,34.01900100708008,13.461999893188477,0.3919999897480011,-9.62600040435791,-0.9800000190734864
1621841994327,-10.56999969482422,32.33599853515625,12.524999618530272,0.3529999852180481,-9.55500030517578,-0.9279999732971193
1621841994337,-11.0600004196167,30.746999740600582,11.463000297546388,0.2349999994039535,-9.55500030517578,-0.9279999732971193
1621841994347,-10.920000076293944,30.10199928283691,10.282999992370604,0.2349999994039535,-9.54800033569336,-0.9670000076293944
1621841994357,-10.289999961853027,29.749000549316406,8.656999588012695,0.1570000052452087,-9.477999687194824,-0.9139999747276306
1621841994367,-8.960000038146973,29.08799934387207,7.972000122070312,0.1570000052452087,-9.401000022888184,-0.9010000228881836
1621841994377,-7.769999980926514,27.968000411987305,7.064000129699707,0.1180000007152557,-9.413999557495115,-0.8240000009536743
1621841994387,-6.510000228881836,27.493999481201172,6.126999855041504,0.0390000008046627,-9.42099952697754,-0.7850000262260437
1621841994397,-5.320000171661377,26.982999801635746,5.396999835968018,0.0,-9.467000007629396,-0.7530000209808348
1621841994407,-5.039999961853027,27.018999099731445,3.98200011253357,0.0,-9.576000213623049,-0.8119999766349792
1621841994417,-5.179999828338623,26.89299964904785,2.680999994277954,0.0,-9.652999877929688,-0.8259999752044677
1621841994427,-5.880000114440918,26.427000045776367,2.1010000705718994,0.0390000008046627,-9.6850004196167,-0.8709999918937683
1621841994437,-6.650000095367432,25.590999603271484,1.5980000495910645,0.0390000008046627,-9.772999763488768,-1.0460000038146973
1621841994447,-8.050000190734863,24.049999237060547,1.468999981880188,0.0780000016093254,-9.80500030517578,-1.0920000076293943
1621841994457,-9.100000381469728,22.184999465942383,1.5659999847412107,0.0780000016093254,-9.92099952697754,-1.1119999885559082
1621841994467,-9.729999542236328,20.461999893188477,1.2619999647140503,0.0780000016093254,-9.888999938964846,-1.0670000314712524
1621841994477,-9.800000190734863,18.815000534057617,0.1190000027418136,0.0780000016093254,-9.741999626159668,-1.0010000467300415
1621841994487,-9.100000381469728,18.02400016784668,-1.4420000314712524,0.0780000016093254,-9.619000434875488,-1.0190000534057615
1621841994497,-8.71500015258789,17.63249969482422,-2.0439999103546143,0.0780000016093254,-9.619000434875488,-1.0190000534057615
1621841994507,-8.329999923706055,17.240999221801758,-2.6459999084472656,0.1180000007152557,-9.663999557495115,-0.9869999885559082
1621841994517,-7.559999942779541,16.645000457763672,-4.1020002365112305,0.0780000016093254,-9.70300006866455,-0.9940000176429749
1621841994527,-7.280000209808349,15.845999717712402,-4.810999870300293,0.0780000016093254,-9.734999656677246,-1.0390000343322754
1621841994537,-7.139999866485596,15.387999534606934,-5.033999919891357,0.0780000016093254,-9.734999656677246,-1.0390000343322754
1621841994547,-6.440000057220459,14.57699966430664,-4.4670000076293945,0.0780000016093254,-9.741999626159668,-1.0010000467300415
1621841994557,-6.090000152587891,13.793999671936035,-4.461999893188477,0.0780000016093254,-9.734999656677246,-1.0390000343322754
1621841994567,-6.300000190734863,13.11299991607666,-4.2270002365112305,0.0780000016093254,-9.696000099182127,-1.0329999923706057
1621841994577,-5.389999866485596,12.736000061035156,-4.506999969482422,0.1570000052452087,-9.619000434875488,-1.0190000534057615
1621841994587,-4.829999923706055,12.201000213623049,-5.098999977111816,0.1180000007152557,-9.541999816894531,-1.0049999952316284
1621841994597,-4.269999980926514,11.871999740600586,-5.6539998054504395,0.1570000052452087,-9.541999816894531,-1.0049999952316284
1621841994607,-3.569999933242798,11.470999717712402,-5.796000003814697,0.1570000052452087,-9.572999954223633,-1.0509999990463257
1621841994617,-3.0799999237060547,10.944000244140623,-6.031000137329102,0.1570000052452087,-9.689000129699709,-1.0709999799728394
1621841994627,-3.2200000286102295,10.404000282287598,-6.197000026702881,0.1180000007152557,-9.767000198364256,-1.0850000381469729
1621841994637,-4.269999980926514,9.71500015258789,-6.318999767303467,0.1570000052452087,-9.80500030517578,-1.0920000076293943
1621841994647,-5.179999828338623,8.753999710083008,-5.706999778747559,0.1180000007152557,-9.888999938964846,-1.0670000314712524
1621841994657,-6.579999923706055,7.6589999198913565,-5.544000148773193,0.1180000007152557,-9.888999938964846,-1.0670000314712524
1621841994667,-8.260000228881836,6.5929999351501465,-5.946000099182129,0.1180000007152557,-9.85099983215332,-1.059999942779541
1621841994677,-9.380000114440918,6.414000034332275,-6.546000003814697,0.1180000007152557,-9.80500030517578,-1.0920000076293943
1621841994687,-10.149999618530272,6.138000011444092,-6.593999862670898,0.0780000016093254,-9.734999656677246,-1.0390000343322754
1621841994697,-10.640000343322754,6.1539998054504395,-7.089000225067139,0.0,-9.689000129699709,-1.0709999799728394
1621841994707,-10.5,6.397500038146973,-7.259500026702882,0.0,-9.612000465393066,-1.0579999685287476
1621841994717,-10.359999656677246,6.640999794006348,-7.429999828338623,0.0,-9.612000465393066,-1.0579999685287476
1621841994727,-9.65999984741211,7.033999919891357,-7.644999980926514,0.0390000008046627,-9.612000465393066,-1.0579999685287476
1621841994737,-8.819999694824219,7.171999931335449,-7.619999885559082,0.0390000008046627,-9.619000434875488,-1.0190000534057615
1621841994747,-8.119999885559082,7.28599977493286,-7.458000183105469,0.0780000016093254,-9.572999954223633,-1.0509999990463257
1621841994757,-6.860000133514404,7.297999858856201,-7.526999950408936,0.1180000007152557,-9.727999687194824,-1.0779999494552612
1621841994767,-5.949999809265137,7.869999885559082,-7.142000198364258,0.1180000007152557,-9.753000259399414,-1.1619999408721924
1621841994777,-4.900000095367432,7.695000171661377,-6.959000110626221,0.0780000016093254,-9.791999816894531,-1.1690000295639038
1621841994787,-4.829999923706055,7.869999885559082,-7.142000198364258,0.0780000016093254,-9.675999641418455,-1.1480000019073486
1621841994797,-5.110000133514404,7.877999782562256,-6.784999847412109,0.0390000008046627,-9.612000465393066,-1.0579999685287476
1621841994807,-5.179999828338623,8.777999877929688,-7.052999973297119,0.0390000008046627,-9.53499984741211,-1.0440000295639038
1621841994817,-4.760000228881836,9.812000274658203,-6.870999813079834,0.0780000016093254,-9.503000259399414,-0.9990000128746032
1621841994827,-4.130000114440918,10.590999603271484,-6.448999881744385,0.0780000016093254,-9.418999671936035,-1.02400004863739
1621841994837,-3.009999990463257,11.118000030517578,-6.214000225067139,0.0780000016093254,-9.348999977111816,-0.9710000157356262
1621841994847,-1.190000057220459,11.937000274658203,-6.425000190734863,0.1180000007152557,-9.270999908447264,-0.9580000042915344
1621841994857,1.0499999523162842,11.965000152587892,-5.78000020980835,0.1959999948740005,-9.31700038909912,-0.9259999990463256
1621841994867,3.0799999237060547,11.83199977874756,-5.021999835968018,0.1570000052452087,-9.348999977111816,-0.9710000157356262
1621841994877,4.690000057220459,11.810999870300291,-5.309999942779541,0.1570000052452087,-9.46399974822998,-0.9919999837875366
1621841994887,5.599999904632568,11.843999862670898,-5.091000080108643,0.1959999948740005,-9.54800033569336,-0.9670000076293944
1621841994897,6.019999980926514,11.434000015258787,-5.589000225067139,0.1570000052452087,-9.663999557495115,-0.9869999885559082
1621841994907,5.670000076293945,11.118000030517578,-6.214000225067139,0.1570000052452087,-9.741999626159668,-1.0010000467300415
1621841994917,5.390000343322754,10.929500579833984,-6.354000091552734,0.1180000007152557,-9.786999702453612,-0.968999981880188
1621841994927,5.110000133514404,10.741000175476074,-6.49399995803833,0.1180000007152557,-9.833000183105469,-0.9369999766349792
1621841994937,4.269999980926514,10.595000267028809,-6.875,0.1180000007152557,-9.871000289916992,-0.944000005722046
1621841994947,3.5,10.708000183105469,-6.7129998207092285,0.1180000007152557,-9.833000183105469,-0.9369999766349792
1621841994957,2.869999885559082,10.291000366210936,-6.360000133514404,0.1180000007152557,-9.833000183105469,-0.9369999766349792
1621841994967,2.0999999046325684,10.253999710083008,-6.1529998779296875,0.1180000007152557,-9.826000213623049,-0.9760000109672546
1621841994977,1.5399999618530271,10.071999549865724,-6.327000141143799,0.1180000007152557,-9.779999732971191,-1.0080000162124634
1621841994987,1.1200000047683716,9.83199977874756,-6.583000183105469,0.1570000052452087,-9.741999626159668,-1.0010000467300415
1621841994997,0.9800000190734864,9.581000328063965,-6.769000053405762,0.1570000052452087,-9.696000099182127,-1.0329999923706057
1621841995007,0.9100000262260436,9.111000061035156,-6.922999858856201,0.1959999948740005,-9.748000144958496,-0.962000012397766
1621841995017,1.1200000047683716,8.473999977111816,-6.538000106811523,0.1959999948740005,-9.741999626159668,-1.0010000467300415
1621841995027,0.8399999737739563,8.157999992370605,-7.1620001792907715,0.1570000052452087,-9.710000038146973,-0.9549999833106994
1621841995037,0.3499999940395355,7.836999893188477,-7.361000061035157,0.1180000007152557,-9.722999572753906,-0.8780000209808348
1621841995047,0.4199999868869781,8.031999588012695,-7.255000114440918,0.1180000007152557,-9.678000450134276,-0.9100000262260436
1621841995057,0.699999988079071,8.11299991607666,-7.311999797821045,0.0780000016093254,-9.6850004196167,-0.8709999918937683
1621841995067,0.8399999737739563,8.234999656677246,-6.793000221252441,0.1180000007152557,-9.729999542236328,-0.8389999866485595
1621841995077,0.7699999809265136,8.069000244140625,-6.254000186920166,0.1180000007152557,-9.729999542236328,-0.8389999866485595
1621841995087,0.6299999952316284,7.375,-5.949999809265137,0.1180000007152557,-9.645999908447264,-0.8640000224113464
1621841995097,0.9800000190734864,7.071000099182129,-5.434999942779541,0.1180000007152557,-9.638999938964846,-0.902999997138977
1621841995107,1.190000057220459,6.90500020980835,-4.894999980926514,0.1959999948740005,-9.60099983215332,-0.8960000276565551
1621841995117,1.5399999618530271,6.21999979019165,-4.234000205993652,0.2349999994039535,-9.593999862670898,-0.9350000023841856
