timestamp,gyro_x,gyro_y,gyro_z,acc_x,acc_y,acc_z
1621845054733,0.0,0.0,0.0,0.0,0.0,0.0
1621845055382,2.240000009536743,188.41200256347656,8.984000205993652,1.4509999752044678,-10.300000190734863,0.1360000073909759
1621845055392,2.450000047683716,176.9929962158203,8.036999702453613,1.8040000200271609,-9.64400005340576,0.2509999871253967
1621845055402,2.5899999141693115,164.2480010986328,6.144999980926514,2.0789999961853027,-9.01900005340576,0.3219999969005584
1621845055412,2.0999999046325684,150.23800659179688,4.171999931335449,2.2750000953674316,-8.60099983215332,0.4350000023841857
1621845055422,2.940000057220459,136.2030029296875,1.1289999485015867,2.4709999561309814,-8.362000465393066,0.4370000064373016
1621845055432,4.164999961853027,129.04150390625,-0.9869999885559082,2.549999952316284,-8.446000099182129,0.4620000123977661
1621845055442,5.389999866485596,121.87999725341795,-3.1029999256134033,2.5889999866485596,-8.76200008392334,0.4469999969005584
1621845055452,8.260000228881836,107.50900268554688,-5.849999904632568,2.549999952316284,-9.147999763488768,0.3779999911785125
1621845055462,11.6899995803833,94.70700073242188,-7.822999954223632,2.3929998874664307,-9.39400005340576,0.4149999916553497
1621845055472,15.260000228881836,82.60700225830078,-9.743000030517578,2.236000061035156,-9.477999687194824,0.4399999976158142
1621845055482,17.56999969482422,70.81500244140625,-8.979999542236328,1.9609999656677248,-9.55500030517578,0.4259999990463256
1621845055492,18.1299991607666,60.20399856567382,-6.443999767303467,1.687000036239624,-9.60099983215332,0.4580000042915344
1621845055502,17.219999313354492,51.777000427246094,-5.014999866485596,1.3339999914169312,-9.61400032043457,0.5350000262260437
1621845055512,15.75,45.16400146484375,-4.190999984741211,1.0199999809265137,-9.697999954223633,0.5600000023841857
1621845055522,14.210000038146973,40.55699920654297,-3.865999937057495,0.7850000262260437,-9.704999923706056,0.5989999771118164
1621845055532,12.670000076293944,37.34199905395508,-4.574999809265137,0.5879999995231628,-9.704999923706056,0.5989999771118164
1621845055542,11.550000190734863,35.47200012207031,-5.260000228881836,0.4709999859333038,-9.67300033569336,0.6439999938011169
1621845055552,11.340000152587892,33.84199905395508,-5.690000057220459,0.3529999852180481,-9.635000228881836,0.6510000228881835
1621845055562,11.130000114440918,33.176998138427734,-5.948999881744385,0.2750000059604644,-9.526000022888184,0.7099999785423278
1621845055572,11.550000190734863,32.34600067138672,-5.669000148773193,0.2349999994039535,-9.571000099182127,0.7419999837875366
1621845055582,12.18000030517578,32.1150016784668,-5.567999839782715,0.2750000059604644,-9.654999732971191,0.7670000195503234
1621845055592,12.739999771118164,31.652999877929688,-5.364999771118164,0.3140000104904174,-9.89400005340576,0.7649999856948853
1621845055602,13.090000152587892,31.624000549316406,-6.010000228881836,0.3529999852180481,-10.041000366210936,0.6990000009536743
1621845055612,12.739999771118164,31.968999862670895,-7.1570000648498535,0.3529999852180481,-10.265999794006348,0.6200000047683715
1621845055622,12.25,31.968000411987305,-8.366000175476074,0.3529999852180481,-10.336999893188477,0.5669999718666076
1621845055632,11.899999618530272,32.19499969482422,-9.25,0.4309999942779541,-10.446000099182127,0.5080000162124633
1621845055642,11.550000190734863,31.291000366210938,-8.555999755859375,0.4709999859333038,-10.336999893188477,0.5669999718666076
1621845055652,11.340000152587892,29.694000244140625,-7.559000015258789,0.4709999859333038,-10.182000160217283,0.5939999818801879
1621845055662,11.235000610351562,28.848499298095703,-6.996999740600586,0.5099999904632568,-10.065999984741213,0.615000009536743
1621845055672,11.130000114440918,28.003000259399418,-6.434999942779541,0.5490000247955322,-9.944000244140623,0.597000002861023
1621845055682,10.779999732971191,26.777999877929688,-5.940000057220459,0.4709999859333038,-9.866000175476074,0.6100000143051147
1621845055692,10.359999656677246,25.78499984741211,-6.755000114440918,0.3919999897480011,-9.803000450134276,0.7009999752044677
1621845055702,10.220000267028809,25.232999801635746,-8.060999870300293,0.3919999897480011,-9.75699996948242,0.6690000295639038
1621845055704,,,,,,
1621845055712,10.010000228881836,25.586000442504883,-10.0600004196167,0.3919999897480011,-9.732000350952148,0.7530000209808348
1621845055722,10.010000228881836,25.472000122070312,-11.430999755859377,0.3140000104904174,-9.854999542236328,0.7720000147819519
1621845055732,9.239999771118164,25.468000411987305,-12.213000297546388,0.3140000104904174,-9.89400005340576,0.7649999856948853
1621845055742,8.1899995803833,25.666000366210938,-12.532999992370604,0.3140000104904174,-9.95300006866455,0.8740000128746032
1621845055752,7.210000038146973,25.825000762939453,-12.220999717712402,0.3140000104904174,-9.977999687194824,0.7900000214576721
1621845055762,6.090000152587891,26.28300094604492,-11.998000144958496,0.3140000104904174,-10.072999954223633,0.6539999842643737
1621845055772,4.199999809265137,26.7450008392334,-10.993000030517578,0.3529999852180481,-10.13700008392334,0.5630000233650208
1621845055782,2.5899999141693115,26.854999542236328,-10.404999732971191,0.3529999852180481,-10.130000114440918,0.5239999890327453
1621845055792,0.2800000011920929,27.46299934387207,-10.22599983215332,0.3919999897480011,-10.123000144958496,0.4850000143051147
1621845055802,-1.6100000143051147,28.160999298095703,-9.748000144958496,0.4309999942779541,-10.078000068664553,0.4539999961853027
1621845055812,-3.1500000953674316,28.76499938964844,-9.14400005340576,0.5099999904632568,-10.031999588012695,0.4219999909400939
1621845055822,-4.550000190734863,29.069000244140625,-8.451000213623047,0.5099999904632568,-9.9350004196167,0.3199999928474426
1621845055832,-5.320000171661377,29.15399932861328,-7.724999904632568,0.5099999904632568,-9.871000289916992,0.4099999964237213
1621845055842,-5.599999904632568,30.04599952697754,-7.140999794006348,0.4709999859333038,-9.878000259399414,0.4490000009536743
1621845055852,-5.25,30.76799964904785,-6.800000190734863,0.3919999897480011,-9.845999717712402,0.4939999878406524
1621845055862,-5.110000133514404,31.85099983215332,-6.894000053405762,0.3919999897480011,-9.845999717712402,0.4939999878406524
1621845055872,-5.460000038146973,33.428001403808594,-6.9710001945495605,0.3140000104904174,-9.76900005340576,0.5080000162124633
1621845055882,-5.599999904632568,35.0099983215332,-7.473999977111816,0.2750000059604644,-9.729999542236328,0.5149999856948853
1621845055892,-5.984999656677246,35.840999603271484,-7.754000186920166,0.1959999948740005,-9.76900005340576,0.5080000162124633
1621845055902,-6.369999885559082,36.672000885009766,-8.034000396728516,0.1570000052452087,-9.800999641418455,0.4629999995231628
1621845055912,-7.210000038146973,38.618999481201165,-8.187999725341797,0.0780000016093254,-9.807000160217283,0.5009999871253967
1621845055922,-7.8400001525878915,41.87099838256836,-8.894000053405762,0.0,-9.762000083923342,0.4690000116825103
1621845055932,-8.539999961853027,45.79999923706055,-9.40999984741211,-0.1180000007152557,-9.755000114440918,0.4309999942779541
1621845055942,-8.680000305175781,49.928001403808594,-10.246000289916992,-0.2750000059604644,-9.793999671936035,0.4239999949932098
1621845055952,-9.029999732971191,54.347999572753906,-10.319000244140623,-0.3529999852180481,-9.83199977874756,0.4169999957084655
1621845055962,-9.3100004196167,59.53799819946289,-10.328000068664553,-0.5099999904632568,-9.86400032043457,0.3720000088214874
1621845055972,-9.170000076293944,64.84200286865234,-10.175000190734863,-0.5490000247955322,-9.888999938964846,0.2879999876022338
1621845055982,-9.029999732971191,70.46600341796875,-9.822999954223633,-0.5099999904632568,-10.029999732971191,0.1829999983310699
1621845055992,-8.609999656677246,75.33599853515625,-8.821999549865723,-0.4709999859333038,-10.062000274658203,0.1379999965429306
1621845056002,-7.9099998474121085,79.38800048828125,-7.610000133514405,-0.4709999859333038,-9.939000129699709,0.1199999973177909
1621845056012,-7.139999866485596,83.15499877929688,-6.803999900817871,-0.3529999852180481,-9.89400005340576,0.0879999995231628
1621845056022,-6.090000152587891,85.61199951171875,-6.228000164031982,-0.2349999994039535,-9.89400005340576,0.0879999995231628
1621845056032,-5.599999904632568,86.1520004272461,-4.854000091552734,-0.1180000007152557,-9.815999984741213,0.101000003516674
1621845056042,-5.039999961853027,86.21299743652344,-3.990000009536743,-0.0390000008046627,-9.668999671936035,0.1669999957084655
1621845056052,-4.550000190734863,85.96900177001953,-3.8199999332427974,-0.0780000016093254,-9.5600004196167,0.2259999960660934
1621845056062,-3.569999933242798,86.13600158691406,-4.359000205993652,-0.1180000007152557,-9.46399974822998,0.3630000054836273
1621845056072,-2.450000047683716,86.28500366210938,-5.611999988555908,-0.1180000007152557,-9.46399974822998,0.3630000054836273
1621845056082,-1.5399999618530271,85.90399932861328,-6.673999786376953,-0.0390000008046627,-9.425999641418455,0.3689999878406524
1621845056092,-0.3499999940395355,84.83399963378906,-6.650000095367432,0.0780000016093254,-9.380000114440918,0.3379999995231628
1621845056102,1.1200000047683716,82.18199920654298,-6.122000217437744,0.2750000059604644,-9.387000083923342,0.3759999871253967
1621845056112,2.240000009536743,78.54499816894531,-4.843999862670898,0.4309999942779541,-9.29599952697754,0.3129999935626983
1621845056122,2.59000015258789,75.88299560546875,-3.8564999103546143,0.6280000209808348,-9.373000144958496,0.2989999949932098
1621845056132,2.940000057220459,73.22100067138672,-2.86899995803833,0.7059999704360961,-9.366999626159668,0.2599999904632568
1621845056142,3.2899999618530273,67.23200225830078,-1.1529999971389773,0.6280000209808348,-9.288999557495115,0.2739999890327453
1621845056152,4.059999942779541,61.619998931884766,-0.3650000095367431,0.5879999995231628,-9.29599952697754,0.3129999935626983
1621845056162,4.900000095367432,56.275001525878906,0.1140000000596046,0.5099999904632568,-9.25100040435791,0.2809999883174896
1621845056172,5.460000038146973,51.44599914550781,-0.3109999895095825,0.3919999897480011,-9.25699996948242,0.3190000057220459
1621845056182,5.739999771118164,46.957000732421875,-1.4579999446868896,0.2750000059604644,-9.263999938964846,0.3580000102519989
1621845056192,6.090000152587891,42.95000076293945,-2.5199999809265137,0.2349999994039535,-9.270999908447264,0.3970000147819519
1621845056202,6.510000228881836,39.49100112915039,-3.059000015258789,0.1180000007152557,-9.354999542236328,0.4219999909400939
1621845056211,6.579999923706055,36.09700012207031,-3.1600000858306885,-0.1180000007152557,-9.39400005340576,0.4149999916553497
1621845056221,7.070000171661377,33.948001861572266,-3.4679999351501465,-0.3140000104904174,-9.477999687194824,0.4399999976158142
1621845056231,8.1899995803833,33.22200012207031,-4.591000080108643,-0.5099999904632568,-9.491000175476074,0.5170000195503234
1621845056241,9.449999809265137,33.90299987792969,-6.033999919891357,-0.7450000047683715,-9.505000114440918,0.5939999818801879
1621845056251,11.340000152587892,35.40700149536133,-6.9070000648498535,-0.8240000009536743,-9.51900005340576,0.6719999909400939
1621845056261,12.739999771118164,37.512001037597656,-7.956999778747559,-0.8629999756813049,-9.564000129699709,0.703000009059906
1621845056271,13.579999923706056,38.94300079345703,-8.414999961853027,-0.9020000100135804,-9.571000099182127,0.7419999837875366
1621845056281,14.0,40.4640007019043,-8.574000358581543,-0.8629999756813049,-9.585000038146973,0.8190000057220459
1621845056291,14.06999969482422,42.08100128173828,-9.284000396728516,-0.8629999756813049,-9.54599952697754,0.8259999752044677
1621845056301,14.06999969482422,43.707000732421875,-10.845000267028809,-0.8629999756813049,-9.590999603271484,0.8579999804496765
1621845056311,14.279999732971191,44.83000183105469,-11.571000099182127,-0.8629999756813049,-9.597999572753906,0.8970000147819519
1621845056321,14.420000076293944,45.479000091552734,-12.024999618530272,-0.7059999704360961,-9.572999954223633,0.981000006198883
1621845056331,14.350000381469728,45.30899810791016,-12.269000053405762,-0.5879999995231628,-9.619000434875488,1.0130000114440918
1621845056341,14.210000038146973,45.26449966430664,-12.419000625610352,-0.4309999942779541,-9.619000434875488,1.0130000114440918
1621845056351,14.06999969482422,45.220001220703125,-12.569000244140623,-0.3140000104904174,-9.741000175476074,1.031000018119812
1621845056361,13.649999618530272,43.6619987487793,-12.203000068664553,-0.2349999994039535,-9.812000274658203,0.977999985218048
1621845056371,12.529999732971191,40.904998779296875,-11.480999946594238,-0.1570000052452087,-9.850000381469728,0.9720000028610228
1621845056381,11.270000457763672,38.06700134277344,-10.70199966430664,-0.1570000052452087,-9.928000450134276,0.9580000042915344
1621845056391,10.220000267028809,34.433998107910156,-9.850000381469728,-0.1959999948740005,-10.043999671936035,0.9380000233650208
1621845056401,8.260000228881836,31.02300071716309,-9.45699977874756,-0.2750000059604644,-10.159000396728516,0.9169999957084656
1621845056411,6.369999885559082,27.312999725341797,-8.972999572753906,-0.3919999897480011,-10.229999542236328,0.865000009536743
1621845056421,4.550000190734863,23.70400047302246,-8.258999824523926,-0.5879999995231628,-10.300000190734863,0.8130000233650208
1621845056431,2.380000114440918,21.145999908447266,-7.85699987411499,-0.8240000009536743,-10.300000190734863,0.8130000233650208
1621845056441,0.4199999868869781,19.36599922180176,-7.033999919891357,-0.981000006198883,-10.33199977874756,0.7670000195503234
1621845056451,-1.9600000381469729,18.510000228881836,-6.616000175476074,-1.1380000114440918,-10.241000175476074,0.7039999961853027
1621845056461,-4.130000114440918,17.945999145507812,-6.644999980926514,-1.2549999952316284,-10.265999794006348,0.6200000047683715
1621845056471,-5.949999809265137,17.9060001373291,-7.219999790191651,-1.3730000257492063,-10.21399974822998,0.5490000247955322
1621845056481,-7.699999809265136,17.990999221801758,-8.91100025177002,-1.4509999752044678,-10.109999656677246,0.4079999923706054
1621845056491,-9.170000076293944,18.927000045776367,-10.593999862670898,-1.4119999408721924,-9.954999923706056,0.4350000023841857
1621845056501,-10.710000038146973,20.034000396728516,-12.034000396728516,-1.3730000257492063,-9.800999641418455,0.4629999995231628
1621845056511,-12.31999969482422,20.999000549316406,-13.071999549865724,-1.2549999952316284,-9.562000274658203,0.4650000035762786
1621845056521,-12.670000076293944,22.017000198364254,-14.812000274658203,-1.1380000114440918,-9.439000129699709,0.4469999969005584
1621845056531,-12.390000343322754,22.652999877929688,-16.4060001373291,-1.0199999809265137,-9.232000350952148,0.402999997138977
1621845056541,-11.6899995803833,23.04599952697754,-17.82900047302246,-0.9020000100135804,-9.109999656677246,0.3849999904632568
1621845056551,-11.199999809265137,22.871999740600582,-18.854999542236328,-0.6669999957084655,-9.095999717712402,0.3079999983310699
1621845056561,-11.094999313354492,22.364999771118164,-19.406499862670895,-0.3140000104904174,-9.262000083923342,0.1190000027418136
1621845056571,-10.989999771118164,21.857999801635746,-19.95800018310547,-0.1959999948740005,-9.345999717712402,0.1439999938011169
1621845056581,-10.56999969482422,20.368999481201172,-20.788999557495117,-0.1180000007152557,-9.237000465393066,0.2039999961853027
1621845056591,-10.640000343322754,19.031000137329105,-21.663999557495117,-0.1570000052452087,-9.197999954223633,0.209999993443489
1621845056601,-9.9399995803833,18.406999588012695,-22.555999755859375,-0.1180000007152557,-9.204999923706056,0.248999997973442
1621845056611,-8.539999961853027,17.708999633789062,-23.03499984741211,-0.0780000016093254,-9.218999862670898,0.3260000050067901
1621845056621,-7.210000038146973,17.725000381469727,-23.530000686645508,0.0,-9.288999557495115,0.2739999890327453
1621845056631,-5.039999961853027,18.159000396728516,-23.16900062561035,0.0390000008046627,-9.53499984741211,0.3100000023841857
1621845056641,-3.990000009536743,17.15399932861328,-21.49799919128418,0.0390000008046627,-9.741000175476074,0.3540000021457672
1621845056651,-3.7799999713897705,16.091999053955078,-18.700000762939453,0.0,-9.826000213623049,0.3790000081062316
1621845056661,-3.7799999713897705,14.729000091552734,-17.020999908447266,-0.0390000008046627,-9.92300033569336,0.481000006198883
1621845056671,-4.130000114440918,13.553999900817873,-15.593000411987305,0.0,-9.975000381469728,0.5509999990463256
1621845056681,-4.619999885559082,12.430999755859377,-13.659000396728516,-0.0780000016093254,-10.0600004196167,0.5759999752044677
1621845056691,-4.760000228881836,11.027999877929688,-11.347000122070312,-0.1180000007152557,-10.175000190734863,0.5559999942779541
1621845056701,-4.96999979019165,9.998000144958496,-9.538999557495115,-0.1959999948740005,-10.329999923706056,0.5289999842643737
1621845056711,-4.900000095367432,9.119000434875488,-7.775000095367432,-0.3140000104904174,-10.375,0.5600000023841857
1621845056712,,,,,,
1621845056721,-4.480000019073486,9.223999977111816,-6.761000156402588,-0.4309999942779541,-10.343999862670898,0.606000006198883
1621845056731,-3.9200000762939458,9.682000160217283,-6.538000106811523,-0.5099999904632568,-10.203000068664553,0.7099999785423278
1621845056741,-3.990000009536743,10.0600004196167,-6.257999897003174,-0.5099999904632568,-10.086999893188477,0.731000006198883
1621845056751,-4.340000152587891,10.79800033569336,-6.4120001792907715,-0.5879999995231628,-10.010000228881836,0.7440000176429749
1621845056761,-5.320000171661377,11.31700038909912,-6.533999919891357,-0.5879999995231628,-9.918999671936035,0.6809999942779541
1621845056771,-5.390000343322754,11.523500442504885,-6.497499942779541,-0.6280000209808348,-9.866000175476074,0.6100000143051147
1621845056781,-5.460000038146973,11.729999542236328,-6.460999965667725,-0.6669999957084655,-9.852999687194824,0.5329999923706054
1621845056791,-5.320000171661377,11.72599983215332,-6.034999847412109,-0.7059999704360961,-9.83899974822998,0.4560000002384185
1621845056801,-5.179999828338623,11.506999969482422,-4.795000076293945,-0.7059999704360961,-9.826000213623049,0.3790000081062316
1621845056811,-5.53000020980835,10.944000244140623,-3.615000009536743,-0.7450000047683715,-9.748000144958496,0.3919999897480011
1621845056821,-6.019999980926514,10.744999885559082,-3.2939999103546143,-0.7450000047683715,-9.63199996948242,0.4129999876022338
1621845056831,-5.739999771118164,11.147000312805176,-3.1519999504089355,-0.7850000262260437,-9.51599979400635,0.4329999983310699
1621845056841,-5.389999866485596,12.13599967956543,-4.328000068664551,-0.8240000009536743,-9.60099983215332,0.4580000042915344
1621845056851,-4.130000114440918,12.532999992370604,-4.968999862670898,-0.8629999756813049,-9.60099983215332,0.4580000042915344
1621845056861,-2.6600000858306885,13.510000228881836,-6.076000213623047,-0.8240000009536743,-9.498000144958496,0.5559999942779541
1621845056871,-0.209999993443489,14.609000205993652,-7.873000144958496,-0.7450000047683715,-9.4350004196167,0.6470000147819519
1621845056881,3.430000066757202,14.880999565124512,-8.607000350952148,-0.7450000047683715,-9.395999908447264,0.652999997138977
1621845056891,6.650000095367432,15.192999839782717,-7.557000160217285,-0.7450000047683715,-9.447999954223633,0.7239999771118164
1621845056901,8.539999961853027,15.23799991607666,-6.197999954223633,-0.7450000047683715,-9.51900005340576,0.6719999909400939
1621845056911,10.010000228881836,14.925999641418455,-4.831999778747559,-0.7450000047683715,-9.628000259399414,0.6129999756813049
1621845056921,10.640000343322754,14.95400047302246,-4.186999797821045,-0.7450000047683715,-9.711999893188477,0.6380000114440918
1621845056931,10.289999961853027,14.897000312805176,-4.26800012588501,-0.6669999957084655,-9.82800006866455,0.6169999837875366
1621845056941,9.800000190734863,14.46399974822998,-4.629000186920166,-0.6280000209808348,-9.918999671936035,0.6809999942779541
1621845056951,8.680000305175781,14.138999938964844,-5.610000133514404,-0.5879999995231628,-10.041000366210936,0.6990000009536743
1621845056961,7.769999980926514,13.166000366210936,-6.13700008392334,-0.5490000247955322,-10.156999588012695,0.6790000200271606
1621845056971,6.230000019073486,11.29599952697754,-5.613999843597412,-0.5879999995231628,-10.227999687194824,0.6259999871253967
1621845056981,5.704999923706055,10.635499954223633,-5.0904998779296875,-0.6669999957084655,-10.329999923706056,0.5289999842643737
1621845056991,5.179999828338623,9.975000381469728,-4.566999912261963,-0.7059999704360961,-10.394000053405762,0.4379999935626983
1621845057001,5.039999961853027,8.392999649047852,-4.064000129699707,-0.8240000009536743,-10.418999671936035,0.3540000021457672
1621845057011,5.389999866485596,7.676000118255616,-3.621999979019165,-0.8629999756813049,-10.39799976348877,0.2380000054836273
1621845057021,6.159999847412109,7.894999980926514,-3.6549999713897705,-0.9020000100135804,-10.274999618530272,0.2199999988079071
1621845057031,7.8400001525878915,8.336000442504883,-4.144999980926514,-0.8629999756813049,-10.178000450134276,0.1169999986886978
1621845057041,9.239999771118164,8.996999740600586,-4.669000148773193,-0.8240000009536743,-9.998000144958496,0.2290000021457672
1621845057051,10.220000267028809,9.657999992370604,-5.191999912261963,-0.7850000262260437,-9.748000144958496,0.3919999897480011
1621845057061,10.010000228881836,10.866000175476074,-6.400000095367432,-0.6669999957084655,-9.536999702453612,0.5490000247955322
1621845057071,9.100000381469728,11.925000190734863,-7.564000129699707,-0.5879999995231628,-9.395999908447264,0.652999997138977
1621845057081,7.489999771118165,13.04800033569336,-8.289999961853027,-0.4709999859333038,-9.33199977874756,0.7440000176429749
1621845057091,5.809999942779541,13.928000450134276,-8.845999717712402,-0.3529999852180481,-9.402999877929688,0.6919999718666076
1621845057101,3.5,14.137999534606934,-9.234999656677246,-0.2349999994039535,-9.4350004196167,0.6470000147819519
1621845057111,1.75,13.43299961090088,-8.862000465393066,-0.1180000007152557,-9.460000038146973,0.5630000233650208
1621845057121,0.1400000005960464,12.484000205993652,-7.110000133514404,-0.0390000008046627,-9.470999717712402,0.4009999930858612
1621845057131,-1.0499999523162842,11.652999877929688,-6.829999923706055,0.0390000008046627,-9.496000289916992,0.31700000166893
1621845057141,-0.9800000190734864,11.045000076293944,-8.217000007629395,0.1959999948740005,-9.47599983215332,0.2010000050067901
1621845057151,0.209999993443489,10.881999969482422,-10.520000457763672,0.3529999852180481,-9.494000434875488,0.0790000036358833
1621845057161,2.0999999046325684,10.50100040435791,-12.791000366210938,0.5099999904632568,-9.454999923706056,0.0850000008940696
1621845057171,4.340000152587891,9.689000129699709,-14.640000343322754,0.7059999704360961,-9.33899974822998,0.1059999987483024
1621845057181,7.070000171661377,8.043000221252441,-15.782999992370604,0.8240000009536743,-9.237000465393066,0.2039999961853027
1621845057191,8.260000228881836,7.2785000801086435,-15.88249969482422,0.8240000009536743,-9.218999862670898,0.3260000050067901
1621845057201,9.449999809265137,6.513999938964844,-15.982000350952148,0.8240000009536743,-9.263999938964846,0.3580000102519989
1621845057211,11.199999809265137,4.539000034332275,-15.263999938964844,0.7059999704360961,-9.277999877929688,0.4350000023841857
1621845057221,11.550000190734863,2.9739999771118164,-14.046999931335447,0.5490000247955322,-9.362000465393066,0.4600000083446502
1621845057231,11.550000190734863,2.3459999561309814,-13.30500030517578,0.5099999904632568,-9.484999656677246,0.4790000021457672
1621845057241,11.760000228881836,1.843000054359436,-12.468999862670898,0.4709999859333038,-9.446000099182127,0.4850000143051147
1621845057251,11.760000228881836,2.305999994277954,-11.46399974822998,0.3529999852180481,-9.401000022888184,0.4539999961853027
1621845057261,12.109999656677246,2.7960000038146973,-11.022000312805176,0.3919999897480011,-9.347999572753906,0.3829999864101409
1621845057271,12.460000038146973,3.6679999828338623,-10.72599983215332,0.3919999897480011,-9.23900032043457,0.44200000166893
1621845057281,13.159999847412108,4.61299991607666,-10.843999862670898,0.4709999859333038,-9.23900032043457,0.44200000166893
1621845057291,13.229999542236328,5.505000114440918,-11.468000411987305,0.4309999942779541,-9.23900032043457,0.44200000166893
1621845057301,12.18000030517578,7.123000144958496,-13.38700008392334,0.4309999942779541,-9.28499984741211,0.4740000069141387
1621845057311,10.710000038146973,9.258999824523924,-15.425999641418455,0.4309999942779541,-9.369000434875488,0.4990000128746032
1621845057321,9.029999732971191,11.27400016784668,-17.985000610351562,0.5099999904632568,-9.522999763488768,0.4720000028610229
1621845057331,7.489999771118165,12.782999992370604,-20.492000579833984,0.5879999995231628,-9.652999877929688,0.5289999842643737
1621845057341,6.369999885559082,14.826000213623049,-22.406000137329105,0.6669999957084655,-9.710000038146973,0.3989999890327453
1621845057351,5.670000076293945,15.218999862670898,-23.82900047302246,0.981000006198883,-9.793999671936035,0.4239999949932098
1621845057361,5.460000038146973,14.395999908447266,-24.400999069213867,1.1770000457763672,-9.807000160217283,0.5009999871253967
1621845057371,5.110000133514404,12.6850004196167,-23.565000534057617,1.3730000257492063,-9.807000160217283,0.5009999871253967
1621845057381,4.550000190734863,11.468000411987305,-23.92200088500977,1.491000056266785,-9.954999923706056,0.4350000023841857
1621845057391,4.829999923706055,10.503000259399414,-25.301000595092773,1.6480000019073486,-10.135000228881836,0.3240000009536743
1621845057401,4.899999618530273,9.795499801635742,-25.92300033569336,1.8040000200271609,-10.17300033569336,0.31700000166893
1621845057411,4.96999979019165,9.088000297546388,-26.545000076293945,1.8830000162124632,-10.128000259399414,0.2849999964237213
1621845057421,4.829999923706055,7.984000205993653,-27.947999954223633,2.000999927520752,-10.190999984741213,0.1949999928474426
1621845057431,4.130000114440918,6.261000156402588,-28.25200080871582,2.1570000648498535,-10.222999572753906,0.1490000039339065
1621845057441,3.0799999237060547,4.201000213623047,-27.051000595092773,2.236000061035156,-10.255000114440918,0.1040000021457672
1621845057451,1.9600000381469729,1.6670000553131104,-25.57900047302246,2.197000026702881,-10.286999702453612,0.0579999983310699
1621845057461,0.699999988079071,-0.7940000295639038,-23.312000274658203,2.197000026702881,-10.241000175476074,0.0260000005364418
1621845057471,-0.7699999809265136,-2.9709999561309814,-20.638999938964844,2.1570000648498535,-10.151000022888184,-0.0370000004768371
1621845057481,-1.9600000381469729,-6.639999866485596,-17.163999557495117,2.1570000648498535,-10.097999572753906,-0.1080000028014183
1621845057491,-2.450000047683716,-9.729999542236328,-14.154999732971191,2.0399999618530273,-9.982000350952148,-0.0869999974966049
1621845057501,-1.399999976158142,-12.378000259399414,-12.843999862670898,1.8830000162124632,-9.904999732971191,-0.0740000009536743
1621845057511,0.209999993443489,-13.862000465393066,-12.892999649047852,1.7649999856948853,-9.880000114440918,0.0099999997764825
1621845057521,1.9600000381469729,-14.161999702453612,-14.01200008392334,1.6480000019073486,-9.770999908447264,0.0700000002980232
1621845057531,3.7799999713897705,-13.895000457763672,-15.529000282287598,1.6080000400543213,-9.753000259399414,0.19200000166893
1621845057541,4.760000228881836,-14.130000114440918,-16.209999084472656,1.6080000400543213,-9.64400005340576,0.2509999871253967
1621845057551,5.320000171661377,-15.086999893188477,-16.023000717163086,1.6080000400543213,-9.53499984741211,0.3100000023841857
1621845057561,5.110000133514404,-15.890000343322754,-15.098999977111816,1.6080000400543213,-9.48900032043457,0.2790000140666961
1621845057571,4.409999847412109,-16.562000274658203,-13.29800033569336,1.491000056266785,-9.541000366210936,0.3490000069141387
1621845057581,3.7100000381469727,-16.277999877929688,-11.684000015258787,1.2940000295639038,-9.45699977874756,0.3240000009536743
1621845057591,3.2200000286102295,-14.534999847412108,-11.092000007629396,1.215999960899353,-9.411999702453612,0.2919999957084655
1621845057601,3.009999990463257,-13.07900047302246,-10.479999542236328,1.1770000457763672,-9.411999702453612,0.2919999957084655
1621845057611,2.799999952316284,-12.405500411987305,-9.86400032043457,1.0980000495910645,-9.411999702453612,0.2919999957084655
1621845057621,2.5899999141693115,-11.732000350952148,-9.248000144958496,0.981000006198883,-9.32800006866455,0.2669999897480011
1621845057631,2.5899999141693115,-10.362000465393066,-8.152999877929688,0.9020000100135804,-9.25100040435791,0.2809999883174896
1621845057641,2.7300000190734863,-9.270999908447264,-6.681000232696533,0.7850000262260437,-9.204999923706056,0.248999997973442
1621845057651,3.1500000953674316,-7.85099983215332,-5.861999988555908,0.6669999957084655,-9.204999923706056,0.248999997973442
1621845057661,3.569999933242798,-5.693999767303467,-5.197999954223633,0.4709999859333038,-9.244000434875488,0.2419999986886978
1621845057671,3.990000009536743,-2.3410000801086426,-5.672999858856201,0.3529999852180481,-9.281999588012695,0.2349999994039535
1621845057681,4.550000190734863,1.6410000324249268,-6.889999866485596,0.1959999948740005,-9.314000129699709,0.1899999976158142
1621845057691,4.480000019073486,5.9720001220703125,-8.472000122070312,0.1180000007152557,-9.378000259399414,0.0989999994635581
1621845057701,4.269999980926514,10.322999954223633,-9.76599979400635,0.0780000016093254,-9.416999816894531,0.0920000001788139
1621845057711,3.6400001049041744,14.52400016784668,-9.807000160217283,0.0780000016093254,-9.479999542236328,0.0010000000474974
1621845057719,,,,,,
1621845057721,3.2899999618530273,17.731000900268555,-9.454999923706056,0.1570000052452087,-9.51900005340576,-0.0049999998882412
1621845057731,3.2899999618530273,20.98699951171875,-9.378000259399414,0.1180000007152557,-9.472999572753906,-0.0370000004768371
1621845057741,3.430000066757202,24.35700035095215,-10.347999572753906,0.1180000007152557,-9.467000007629396,-0.0759999975562095
1621845057751,3.849999904632568,28.339000701904297,-11.5649995803833,0.1570000052452087,-9.491999626159668,-0.1599999964237213
1621845057761,3.849999904632568,31.91900062561035,-12.923999786376951,0.3140000104904174,-9.704999923706056,-0.0780000016093254
1621845057771,2.6600000858306885,34.77799987792969,-13.414999961853027,0.5099999904632568,-9.866000175476074,-0.06700000166893
1621845057781,1.2599999904632568,36.92300033569336,-12.680999755859377,0.6669999957084655,-9.918999671936035,0.0040000001899898
1621845057791,-0.5600000023841857,38.24100112915039,-12.093000411987305,0.8629999756813049,-9.977999687194824,0.1129999980330467
1621845057801,-1.5399999618530271,38.382999420166016,-10.078000068664553,1.0590000152587893,-10.029999732971191,0.1829999983310699
1621845057811,-1.75,37.53200149536133,-7.669000148773193,1.1770000457763672,-10.005000114440918,0.2669999897480011
1621845057821,-1.2949999570846558,37.13050079345703,-6.602499961853027,1.3339999914169312,-9.83199977874756,0.4169999957084655
1621845057831,-0.8399999737739563,36.729000091552734,-5.535999774932861,1.4119999408721924,-9.729999542236328,0.5149999856948853
1621845057841,0.4900000095367431,35.233001708984375,-3.0989999771118164,1.5299999713897705,-9.722999572753906,0.4760000109672546
1621845057851,1.9600000381469729,33.55099868774414,-0.4099999964237213,1.5299999713897705,-9.722999572753906,0.4760000109672546
1621845057860,3.0799999237060547,31.263999938964844,2.8829998970031734,1.6480000019073486,-9.755000114440918,0.4309999942779541
1621845057870,3.849999904632568,28.99799919128418,5.255000114440918,1.6080000400543213,-9.826000213623049,0.3790000081062316
1621845057880,4.340000152587891,26.524999618530273,6.382999897003174,1.569000005722046,-9.895999908447264,0.3260000050067901
1621845057890,4.340000152587891,23.621000289916992,6.723999977111816,1.569000005722046,-9.95300006866455,0.1969999969005584
1621845057900,5.110000133514404,20.929000854492188,6.676000118255615,1.6080000400543213,-9.901000022888184,0.1260000020265579
1621845057910,5.460000038146973,17.628000259399414,6.448999881744385,1.6480000019073486,-9.777999877929688,0.1080000028014183
1621845057920,5.670000076293945,14.368000030517578,6.797999858856201,1.6080000400543213,-9.68000030517578,0.006000000052154
1621845057930,5.599999904632568,11.383000373840332,7.196000099182129,1.5299999713897705,-9.67300033569336,-0.032999999821186
1621845057940,4.96999979019165,8.569000244140625,7.836999893188477,1.491000056266785,-9.859999656677246,-0.1049999967217445
1621845057950,3.009999990463257,5.557000160217285,8.798999786376953,1.3730000257492063,-9.885000228881836,-0.1889999955892562
1621845057960,0.9100000262260436,3.075000047683716,9.569000244140623,1.1770000457763672,-9.807000160217283,-0.1759999990463256
1621845057970,-0.9800000190734864,1.156999945640564,10.368000030517578,1.0980000495910645,-9.645999908447264,-0.1870000064373016
1621845057980,-2.0299999713897705,0.0829999968409538,10.819000244140623,0.981000006198883,-9.562000274658203,-0.2119999974966049
1621845057990,-1.8200000524520872,-1.0529999732971191,11.61400032043457,0.8629999756813049,-9.446000099182127,-0.19200000166893
1621845058000,0.0,-2.318000078201294,12.741000175476074,0.7450000047683715,-9.35099983215332,-0.0560000017285346
1621845058010,2.6600000858306885,-3.375999927520752,13.904999732971191,0.5879999995231628,-9.402999877929688,0.0149999996647238
1621845058020,4.025000095367432,-3.5219998359680176,14.732500076293944,0.3919999897480011,-9.637000083923342,0.2129999995231628
1621845058030,5.389999866485596,-3.6679999828338623,15.5600004196167,0.2349999994039535,-10.08199977874756,0.2540000081062316
1621845058040,8.119999885559082,-2.8440001010894775,16.131000518798828,0.1570000052452087,-10.703000068664553,0.3829999864101409
1621845058050,10.710000038146973,-2.11899995803833,16.04599952697754,0.0,-11.322999954223633,0.5130000114440918
1621845058060,13.090000152587892,-1.2350000143051147,16.273000717163086,-0.1959999948740005,-11.697999954223633,0.606000006198883
1621845058070,15.399999618530272,0.1040000021457672,15.9399995803833,-0.4309999942779541,-11.91800022125244,0.7269999980926513
1621845058080,16.729999542236328,2.5769999027252197,14.812999725341797,-0.5879999995231628,-12.04800033569336,0.7829999923706054
1621845058090,16.59000015258789,5.65500020980835,14.288999557495115,-0.7059999704360961,-12.029999732971191,0.906000018119812
1621845058100,15.260000228881836,8.258000373840332,16.45400047302246,-0.7850000262260437,-11.79800033569336,0.9470000267028807
1621845058110,13.859999656677246,10.404000282287598,18.395999908447266,-0.9409999847412108,-11.41800022125244,1.0540000200271606
1621845058120,13.300000190734863,12.746999740600586,18.80900001525879,-1.1380000114440918,-11.006999969482422,1.2059999704360962
1621845058130,13.579999923706056,15.550000190734863,19.445999145507812,-1.2940000295639038,-10.524999618530272,1.4099999666213987
1621845058140,13.720000267028809,18.30299949645996,19.14900016784668,-1.3730000257492063,-10.121000289916992,1.60099995136261
1621845058150,13.649999618530272,21.291000366210938,18.326000213623047,-1.491000056266785,-9.652999877929688,1.8830000162124632
1621845058160,13.859999656677246,24.299999237060547,16.582000732421875,-1.491000056266785,-9.17099952697754,2.086999893188477
1621845058170,13.649999618530272,26.51799964904785,14.484999656677246,-1.3730000257492063,-8.991000175476074,2.1989998817443848
1621845058180,12.460000038146973,27.57200050354004,12.538000106811523,-1.1380000114440918,-8.940999984741211,2.3670001029968266
1621845058190,9.729999542236328,26.816999435424805,9.562000274658203,-0.9020000100135804,-8.76200008392334,2.4779999256134033
1621845058200,5.809999942779541,25.465999603271484,3.9219999313354497,-0.7850000262260437,-8.715999603271484,2.446000099182129
1621845058210,2.799999952316284,23.819000244140625,-3.263999938964844,-0.7059999704360961,-8.678000450134277,2.453000068664551
1621845058220,2.0999999046325684,23.32149887084961,-6.0879998207092285,-0.6669999957084655,-8.477999687194824,2.447999954223633
1621845058230,1.399999976158142,22.823999404907227,-8.911999702453613,-0.7450000047683715,-8.439000129699707,2.4549999237060547
1621845058240,1.6799999475479126,22.024999618530273,-12.038000106811523,-0.8240000009536743,-8.470999717712402,2.4100000858306885
1621845058250,3.2200000286102295,22.17099952697754,-14.074000358581545,-0.9409999847412108,-8.649999618530273,2.299000024795532
1621845058260,5.320000171661377,23.163999557495117,-15.675999641418455,-0.9020000100135804,-8.881999969482422,2.2579998970031734
1621845058270,8.680000305175781,23.902000427246097,-17.038000106811523,-0.9020000100135804,-9.197999954223633,2.2420001029968266
1621845058280,12.460000038146973,24.298999786376953,-17.679000854492188,-0.8240000009536743,-9.559000015258787,2.2579998970031734
1621845058290,14.840000152587892,24.676000595092773,-16.19099998474121,-0.7450000047683715,-9.95300006866455,2.2279999256134033
1621845058300,15.68000030517578,25.017000198364254,-14.496000289916992,-0.7450000047683715,-10.281999588012695,2.2899999618530273
1621845058310,15.470000267028809,26.177000045776367,-14.220000267028809,-0.7059999704360961,-10.359000205993652,2.2760000228881836
1621845058320,14.06999969482422,27.86000061035156,-14.491999626159668,-0.6280000209808348,-10.411999702453612,2.3469998836517334
1621845058330,12.739999771118164,29.684999465942383,-13.95699977874756,-0.6669999957084655,-10.256999969482422,2.374000072479248
1621845058340,11.199999809265137,31.11199951171875,-12.781999588012695,-0.6280000209808348,-10.064000129699709,2.4079999923706055
1621845058350,8.819999694824219,32.35300064086914,-11.354000091552734,-0.6669999957084655,-9.895999908447264,2.3580000400543213
1621845058360,6.230000019073486,34.064998626708984,-9.772999763488768,-0.5879999995231628,-9.812000274658203,2.3329999446868896
1621845058370,3.7100000381469727,34.3650016784668,-8.654000282287598,-0.5099999904632568,-9.520999908447264,2.265000104904175
1621845058380,2.0999999046325684,34.084999084472656,-8.277000427246094,-0.4309999942779541,-9.184000015258787,2.1649999618530273
1621845058390,1.6100000143051147,33.41999816894531,-8.53600025177002,-0.3140000104904174,-8.880000114440918,2.0190000534057617
1621845058400,1.4700000286102295,32.571998596191406,-10.178999900817873,-0.1959999948740005,-8.704999923706055,1.9299999475479128
1621845058410,0.9800000190734864,31.756999969482425,-12.8100004196167,-0.0780000016093254,-8.60099983215332,1.7899999618530271
1621845058420,-0.1050000190734863,31.041000366210938,-13.788999557495115,0.0390000008046627,-8.585000038146973,1.4739999771118164
1621845058430,-1.190000057220459,30.325000762939453,-14.767999649047852,0.1180000007152557,-8.753000259399414,1.52400004863739
1621845058440,-3.359999895095825,28.799999237060547,-15.392999649047852,0.1180000007152557,-8.675999641418457,1.5369999408721924
1621845058450,-5.739999771118164,25.67799949645996,-15.019000053405762,0.1570000052452087,-8.5600004196167,1.5579999685287476
1621845058460,-6.019999980926514,22.149999618530273,-15.56999969482422,0.2750000059604644,-8.597999572753906,1.5509999990463257
1621845058470,-4.829999923706055,18.56999969482422,-15.420000076293944,0.3140000104904174,-8.696000099182129,1.6529999971389773
1621845058480,-3.009999990463257,13.914999961853027,-14.819000244140623,0.2349999994039535,-8.940999984741211,1.690000057220459
1621845058490,-1.8200000524520872,9.831000328063965,-13.833000183105469,0.0780000016093254,-9.225000381469728,1.718999981880188
1621845058500,-1.399999976158142,6.5269999504089355,-13.633999824523926,-0.1180000007152557,-9.347999572753906,1.7369999885559082
1621845058510,-0.1400000005960464,4.045000076293945,-15.279999732971191,-0.3140000104904174,-9.439000129699709,1.8009999990463257
1621845058520,-0.6299999952316284,3.311000108718872,-16.760000228881836,-0.4309999942779541,-9.413999557495115,1.8849999904632568
1621845058530,-0.699999988079071,2.9579999446868896,-17.177000045776367,-0.5879999995231628,-9.375,1.8919999599456787
1621845058540,-0.8399999737739563,3.2049999237060547,-16.565000534057617,-0.6280000209808348,-9.28499984741211,1.8279999494552612
1621845058550,-0.9800000190734864,2.9049999713897705,-15.267000198364258,-0.5879999995231628,-9.291000366210936,1.8669999837875368
1621845058560,-1.399999976158142,1.4900000095367432,-14.095000267028809,-0.5879999995231628,-9.246000289916992,1.8350000381469729
1621845058570,-1.2599999904632568,0.5740000009536743,-13.333000183105469,-0.5490000247955322,-9.090999603271484,1.861999988555908
1621845058580,-1.4700000286102295,-0.6340000033378601,-13.333000183105469,-0.5490000247955322,-9.116000175476074,1.7779999971389773
1621845058590,-2.0999999046325684,-1.5099999904632568,-13.203000068664553,-0.5099999904632568,-9.260000228881836,1.9119999408721924
1621845058600,-4.059999942779541,-2.8970000743865967,-12.593999862670898,-0.5490000247955322,-9.168999671936035,1.8489999771118164
1621845058610,-4.585000038146973,-3.545499801635742,-12.139999389648438,-0.6669999957084655,-9.156999588012695,2.009999990463257
1621845058620,-5.110000133514404,-4.193999767303467,-11.685999870300291,-0.9020000100135804,-9.13199996948242,2.0940001010894775
1621845058630,-5.25,-3.7929999828338623,-10.336000442504885,-0.9409999847412108,-9.307000160217283,2.183000087738037
1621845058640,-4.059999942779541,-2.746999979019165,-10.222000122070312,-1.0199999809265137,-9.437000274658203,2.240000009536743
1621845058650,-2.6600000858306885,-2.36899995803833,-9.942999839782717,-1.0980000495910645,-9.527999877929688,2.302999973297119
1621845058660,-1.6799999475479126,-1.0920000076293943,-8.722000122070312,-1.0980000495910645,-9.527999877929688,2.302999973297119
1621845058670,-0.9800000190734864,0.955999970436096,-8.645000457763672,-1.0980000495910645,-9.604999542236328,2.2899999618530273
1621845058680,-0.4900000095367431,3.072000026702881,-9.765000343322754,-1.0980000495910645,-9.604999542236328,2.2899999618530273
1621845058690,-1.2599999904632568,5.285999774932861,-10.22700023651123,-1.0980000495910645,-9.868000030517578,2.203000068664551
1621845058700,-3.430000066757202,7.67899990081787,-10.090000152587892,-0.9409999847412108,-10.145999908447266,2.194000005722046
1621845058710,-6.789999961853027,8.720999717712402,-9.550999641418455,-0.6669999957084655,-10.697999954223633,1.937999963760376
1621845058720,-10.850000381469728,7.390999794006347,-7.652999877929688,-0.3529999852180481,-11.41800022125244,1.7309999465942385
1621845058728,,,,,,
1621845058730,-13.93000030517578,3.3929998874664307,-4.732999801635742,-0.0390000008046627,-11.611000061035156,1.6970000267028809
1621845058740,-15.1899995803833,-0.2399999946355819,-3.8810000419616695,0.1180000007152557,-11.442999839782717,1.6469999551773071
1621845058750,-15.81999969482422,-3.2690000534057617,-6.050000190734863,0.1959999948740005,-11.404999732971191,1.6540000438690186
1621845058760,-17.010000228881836,-6.493000030517578,-7.116000175476074,0.2750000059604644,-11.590999603271484,1.5809999704360962
1621845058770,-18.1299991607666,-8.62600040435791,-6.710000038146973,0.2349999994039535,-11.595999717712402,1.38100004196167
1621845058780,-17.290000915527344,-9.083999633789062,-8.140999794006348,0.0780000016093254,-11.388999938964844,1.3380000591278076
1621845058790,-16.309999465942383,-6.566999912261963,-12.744000434875488,-0.1180000007152557,-11.20699977874756,1.2100000381469729
1621845058800,-16.309999465942383,-2.191999912261963,-16.593000411987305,-0.1959999948740005,-11.192999839782717,1.1330000162124634
1621845058810,-15.68000030517578,2.8440001010894775,-18.54800033569336,-0.2349999994039535,-10.92099952697754,0.9419999718666076
1621845058820,-15.190000534057615,5.9014997482299805,-19.35950088500977,-0.1570000052452087,-10.696000099182127,1.0219999551773071
1621845058830,-14.699999809265137,8.958999633789062,-20.17099952697754,0.0,-10.418999671936035,1.031000018119812
1621845058840,-13.229999542236328,15.232000350952148,-21.481000900268555,0.3529999852180481,-10.038999557495115,1.1380000114440918
1621845058850,-10.779999732971191,20.43000030517578,-22.34199905395508,0.5879999995231628,-9.690999984741213,1.1990000009536743
1621845058860,-8.329999923706055,25.069000244140625,-21.23900032043457,0.8629999756813049,-9.42099952697754,1.246999979019165
1621845058870,-5.670000076293945,28.427000045776367,-17.30699920654297,1.0980000495910645,-9.189000129699709,1.2869999408721924
1621845058880,-4.059999942779541,30.302000045776367,-9.796999931335447,1.2549999952316284,-9.279999732971191,1.35099995136261
1621845058890,-5.53000020980835,31.90800094604492,-1.9789999723434448,1.3339999914169312,-9.14400005340576,1.25600004196167
1621845058900,-8.119999885559082,32.0629997253418,3.5920000076293945,1.4509999752044678,-9.0600004196167,1.2309999465942385
1621845058910,-11.829999923706056,30.88800048828125,9.852999687194824,1.6080000400543213,-9.00100040435791,1.121999979019165
1621845058920,-14.840000152587892,28.524999618530273,15.194000244140623,1.687000036239624,-8.857000350952148,0.9869999885559082
1621845058930,-15.539999961853027,25.496000289916992,16.649999618530273,1.687000036239624,-8.753000259399414,0.847000002861023
1621845058940,-14.420000076293944,21.638999938964844,14.335000038146973,1.687000036239624,-8.777999877929688,0.762000024318695
1621845058950,-12.8100004196167,17.86400032043457,10.755000114440918,1.687000036239624,-8.770999908447266,0.7239999771118164
1621845058960,-10.640000343322754,13.244999885559082,7.52400016784668,1.6080000400543213,-8.763999938964844,0.6850000023841857
1621845058970,-6.929999828338623,8.961999893188477,3.996999979019165,1.5299999713897705,-8.585000038146973,0.7969999909400939
1621845058980,-2.869999885559082,4.010000228881836,0.6359999775886535,1.569000005722046,-8.687000274658203,0.6990000009536743
1621845058990,1.9600000381469729,-2.9519999027252197,-1.7999999523162842,1.687000036239624,-8.996000289916992,0.6439999938011169
1621845059000,5.949999809265137,-9.234000205993652,-4.4710001945495605,1.569000005722046,-9.272999763488768,0.6349999904632568
1621845059010,8.1899995803833,-12.255000114440918,-8.699999809265137,1.2549999952316284,-9.557000160217283,0.6650000214576721
1621845059020,7.980000019073486,-11.871000289916992,-11.689000129699709,0.7450000047683715,-9.781999588012695,0.5849999785423278
1621845059030,6.71999979019165,-7.186999797821045,-12.852999687194824,0.1570000052452087,-9.96399974822998,0.7129999995231628
1621845059040,6.019999980926514,-3.367499828338623,-13.352499961853027,-0.3919999897480011,-10.152999877929688,0.8790000081062316
1621845059050,5.320000171661377,0.4519999921321868,-13.85200023651123,-0.2750000059604644,-10.145999908447266,0.8399999737739563
1621845059060,2.450000047683716,6.77400016784668,-14.229999542236328,0.0390000008046627,-10.100000381469728,0.8080000281333923
1621845059070,-1.4700000286102295,10.699000358581545,-11.902999877929688,0.3529999852180481,-9.887000083923342,0.7260000109672546
1621845059080,-5.599999904632568,12.217000007629396,-8.010000228881836,0.6280000209808348,-9.635000228881836,0.6510000228881835
1621845059090,-8.329999923706055,11.868000030517578,-5.229000091552734,0.7850000262260437,-9.369000434875488,0.4990000128746032
1621845059100,-10.640000343322754,10.659999847412108,-4.019999980926514,0.8629999756813049,-9.071000099182127,0.3919999897480011
1621845059110,-11.829999923706056,9.772000312805178,-2.61299991607666,0.8240000009536743,-8.805000305175781,0.2399999946355819
1621845059120,-11.899999618530272,8.5600004196167,-2.187000036239624,0.7850000262260437,-8.760000228881836,0.2080000042915344
1621845059130,-10.989999771118164,7.192999839782715,-1.2899999618530271,0.6669999957084655,-8.585000038146973,0.1190000027418136
1621845059140,-9.520000457763674,5.790999889373779,-0.1870000064373016,0.5879999995231628,-8.675999641418457,0.1829999983310699
1621845059150,-6.929999828338623,4.00600004196167,-0.1469999998807907,0.5099999904632568,-8.791999816894531,0.163000002503395
1621845059160,-6.929999828338623,1.9589999914169312,0.9850000143051147,0.4309999942779541,-9.029999732971191,0.1599999964237213
1621845059170,-8.470000267028809,0.2560000121593475,2.177000045776367,0.2750000059604644,-9.217000007629396,0.0879999995231628
1621845059180,-10.5,-1.0460000038146973,2.302999973297119,0.0390000008046627,-9.222999572753906,0.1260000020265579
1621845059190,-11.340000152587892,-0.9729999899864196,0.6809999942779541,-0.1570000052452087,-9.152999877929688,0.1790000051259994
1621845059200,-11.899999618530272,0.7540000081062316,-0.6489999890327453,-0.3919999897480011,-9.121000289916992,0.2240000069141387
1621845059210,-11.899999618530272,3.494999885559082,-0.8759999871253967,-0.5490000247955322,-9.029999732971191,0.1599999964237213
1621845059220,-10.010000228881836,6.568999767303467,-0.9739999771118164,-0.5879999995231628,-8.791999816894531,0.163000002503395
1621845059230,-6.510000228881836,9.548999786376951,-2.1549999713897705,-0.5099999904632568,-8.661999702453613,0.1059999987483024
1621845059240,-2.0999999046325684,12.015000343322754,-2.430999994277954,-0.2750000059604644,-8.72599983215332,0.0149999996647238
1621845059250,1.3300000429153442,12.98799991607666,-1.9040000438690183,-0.0780000016093254,-8.866999626159668,-0.0900000035762786
1621845059260,3.5,13.868000030517578,-1.2510000467300415,0.0,-8.951000213623047,-0.0649999976158142
1621845059270,3.9200000762939458,14.287500381469728,-1.2125000953674316,0.1570000052452087,-9.227999687194824,-0.0740000009536743
1621845059280,4.340000152587891,14.70699977874756,-1.1740000247955322,0.5099999904632568,-9.675999641418455,-0.4709999859333038
1621845059290,1.6100000143051147,15.477999687194824,-1.1089999675750732,0.4709999859333038,-9.826000213623049,-0.2989999949932098
1621845059300,0.9100000262260436,15.692999839782717,-0.7160000205039978,0.3919999897480011,-10.071000099182127,-0.2619999945163726
1621845059310,-0.4900000095367431,16.336999893188477,-0.7440000176429749,0.4309999942779541,-10.08899974822998,-0.3849999904632568
1621845059320,-2.5199999809265137,17.042999267578125,-1.1169999837875366,0.3529999852180481,-9.579999923706056,-0.3350000083446502
1621845059330,-2.450000047683716,17.416000366210938,-0.4120000004768371,0.2750000059604644,-10.071000099182127,-0.2619999945163726
1621845059340,-2.6600000858306885,18.093999862670895,2.194999933242798,0.0,-10.057000160217283,-0.3389999866485595
1621845059350,-2.309999942779541,19.80500030517578,3.776000022888184,-0.0780000016093254,-10.140999794006348,-0.3140000104904174
1621845059360,-2.869999885559082,22.298999786376953,4.144999980926514,0.0,-10.77299976348877,-0.3459999859333038
1621845059370,-5.599999904632568,23.048999786376953,3.9219999313354497,0.1959999948740005,-11.237000465393066,-0.4280000030994415
1621845059380,-8.960000038146973,20.660999298095703,4.566999912261963,0.4309999942779541,-12.274999618530272,-0.4120000004768371
1621845059390,-9.100000381469728,17.332000732421875,6.11299991607666,0.3919999897480011,-12.10200023651123,-0.2619999945163726
1621845059400,-7.420000076293945,13.227999687194824,5.6020002365112305,0.3529999852180481,-11.890999794006348,-0.1049999967217445
1621845059410,-4.760000228881836,11.163999557495115,2.3949999809265137,0.3140000104904174,-11.937000274658203,-0.0729999989271163
1621845059420,-3.849999904632568,8.970000267028809,0.7289999723434448,0.1570000052452087,-11.602999687194824,0.0649999976158142
1621845059430,-4.550000190734863,6.618000030517578,2.375,-0.1959999948740005,-11.204999923706056,0.2949999868869781
1621845059440,-3.6400001049041744,5.4670000076293945,3.6649999618530273,-0.6280000209808348,-10.769000053405762,0.531000018119812
1621845059450,-0.7699999809265136,6.375,3.7539999485015874,-1.0199999809265137,-10.494000434875488,0.7789999842643737
1621845059460,2.1700000762939453,9.602999687194824,3.186000108718872,-1.2549999952316284,-10.218999862670898,1.0260000228881836
1621845059470,2.7300000190734863,13.508000373840332,2.808000087738037,-1.3730000257492063,-9.911999702453612,1.319000005722046
1621845059480,1.9600000381469729,16.864999771118164,1.9079999923706057,-1.4119999408721924,-9.689000129699709,1.6369999647140503
1621845059490,-0.5600000023841857,21.16699981689453,0.8889999985694885,-1.4509999752044678,-9.39400005340576,1.7690000534057615
1621845059499,-4.760000228881836,24.5,-1.0820000171661377,-1.4509999752044678,-9.161999702453612,1.809999942779541
1621845059509,-9.9399995803833,27.5049991607666,-3.6089999675750737,-1.3339999914169312,-8.890999794006348,1.8580000400543213
1621845059519,-12.284999847412108,28.93000030517578,-4.63700008392334,-1.3730000257492063,-8.656999588012695,1.6599999666213987
1621845059529,-14.630000114440918,30.354999542236328,-5.664999961853027,-1.4119999408721924,-8.545999526977539,1.4800000190734863
1621845059539,-16.940000534057617,32.60499954223633,-6.334000110626221,-1.4509999752044678,-8.381999969482422,1.2309999465942385
1621845059549,-17.149999618530273,35.53300094604492,-6.813000202178955,-1.569000005722046,-8.232999801635742,1.0579999685287476
1621845059559,-13.720000267028809,38.35900115966797,-8.732000350952148,-1.6080000400543213,-8.194000244140625,1.065000057220459
1621845059569,-7.630000114440918,41.80899810791016,-10.965999603271484,-1.4509999752044678,-8.425999641418457,1.02400004863739
1621845059579,0.3499999940395355,44.96799850463867,-12.755000114440918,-1.2549999952316284,-8.86400032043457,1.0260000228881836
1621845059589,7.769999980926514,45.847999572753906,-13.310999870300291,-1.0199999809265137,-9.39400005340576,1.0920000076293943
1621845059599,13.859999656677246,45.84000015258789,-12.458999633789064,-0.7450000047683715,-9.800000190734863,1.1399999856948853
1621845059609,18.899999618530273,44.237998962402344,-12.244000434875488,-0.5490000247955322,-9.961999893188477,1.1510000228881836
1621845059619,23.170000076293945,40.8650016784668,-12.057000160217283,-0.4309999942779541,-10.123000144958496,1.162999987602234
1621845059629,26.950000762939453,37.52299880981445,-11.651000022888184,-0.3140000104904174,-10.168999671936035,1.194000005722046
1621845059639,28.770000457763672,34.18600082397461,-12.878999710083008,-0.3529999852180481,-10.189000129699709,1.309999942779541
1621845059649,28.559999465942383,31.07900047302246,-15.416999816894531,-0.4709999859333038,-10.093999862670898,1.4470000267028809
1621845059659,27.229999542236328,28.844999313354492,-16.451000213623047,-0.5879999995231628,-10.064000129699709,1.7309999465942385
1621845059669,24.219999313354492,28.025999069213867,-15.031999588012695,-0.8240000009536743,-9.654999732971191,1.444000005722046
1621845059679,19.950000762939453,28.08300018310547,-12.534000396728516,-0.7450000047683715,-10.131999969482422,1.440000057220459
1621845059689,12.739999771118164,28.281999588012695,-10.437000274658203,-0.9409999847412108,-9.512000083923342,1.309999942779541
1621845059699,6.789999961853027,30.191999435424805,-10.385000228881836,-0.9409999847412108,-9.319000244140623,1.343999981880188
1621845059709,2.6600000858306885,32.86399841308594,-9.416000366210936,-1.0199999809265137,-9.350000381469728,1.2990000247955322
1621845059719,-0.8399999737739563,33.96799850463867,-8.012999534606934,-0.9409999847412108,-8.612000465393066,0.9509999752044676
1621845059729,-3.0799999237060547,34.63199996948242,-8.961999893188477,-0.7850000262260437,-8.57800006866455,0.7580000162124633
1621845059739,-3.7100000381469727,34.18600082397461,-9.253999710083008,-0.6669999957084655,-8.479999542236328,0.656000018119812
1621845059749,-4.059999942779541,33.27799987792969,-8.73900032043457,-0.4309999942779541,-8.21399974822998,0.5030000209808348
1621845059759,-4.409999847412109,32.369998931884766,-8.223999977111816,-0.1959999948740005,-8.562000274658203,0.44200000166893
1621845059769,-4.199999809265137,30.208999633789062,-8.463000297546387,-0.1570000052452087,-8.60099983215332,0.4350000023841857
1621845059779,-4.340000152587891,26.003000259399418,-9.20400047302246,-0.3140000104904174,-8.710000038146973,0.3759999871253967
1621845059789,-4.269999980926514,21.22699928283691,-7.914000034332275,-0.6280000209808348,-8.692000389099121,0.4990000128746032
1621845059799,-3.1500000953674316,16.80299949645996,-7.414999961853027,-1.0590000152587893,-8.732000350952148,0.731000006198883
1621845059809,-2.380000114440918,14.086000442504885,-7.324999809265136,-1.4119999408721924,-8.87600040435791,0.865000009536743
1621845059819,-0.8399999737739563,13.652000427246094,-6.478000164031982,-1.687000036239624,-8.998000144958496,0.8830000162124633
1621845059829,0.9100000262260436,15.14900016784668,-5.289999961853027,-1.687000036239624,-9.152999877929688,0.856000006198883
1621845059839,2.5199999809265137,17.225000381469727,-5.7769999504089355,-1.5299999713897705,-9.281999588012695,0.9120000004768372
1621845059849,3.009999990463257,17.26099967956543,-5.984000205993652,-1.3730000257492063,-9.359999656677246,0.8989999890327453
1621845059859,1.4700000286102295,16.017000198364258,-4.567999839782715,-1.3339999914169312,-9.496000289916992,0.9940000176429749
1621845059869,-1.6799999475479126,14.126999855041504,-3.124000072479248,-1.4509999752044678,-9.51599979400635,1.1100000143051147
1621845059879,-5.949999809265137,11.876999855041504,-2.4549999237060547,-1.491000056266785,-9.491000175476074,1.194000005722046
1621845059889,-9.9399995803833,11.00100040435791,-3.5329999923706055,-1.6080000400543213,-9.428000450134276,1.2849999666213987
1621845059899,-13.020000457763672,10.704999923706056,-3.869999885559082,-1.6480000019073486,-9.4350004196167,1.3240000009536743
1621845059909,-14.770000457763672,10.878999710083008,-2.8440001010894775,-1.6080000400543213,-9.505000114440918,1.2719999551773071
1621845059919,-15.539999961853027,10.140999794006348,-1.4809999465942385,-1.569000005722046,-9.652999877929688,1.2059999704360962
1621845059929,-15.609999656677246,8.519000053405762,-0.3459999859333038,-1.5299999713897705,-9.762000083923342,1.1469999551773071
1621845059939,-15.260000228881836,5.798999786376953,1.378000020980835,-1.569000005722046,-9.774999618530272,1.2239999771118164
1621845059949,-14.489999771118164,3.2279999256134033,1.8489999771118164,-1.6480000019073486,-9.76900005340576,1.184999942779541
1621845059959,-12.25,0.9330000281333924,1.1599999666213987,-1.72599995136261,-9.697999954223633,1.2380000352859497
1621845059969,-11.094999313354492,0.5335000157356262,0.2009999752044677,-1.843999981880188,-10.078000068664553,1.13100004196167
1621845059979,-9.9399995803833,0.1340000033378601,-0.7580000162124633,-2.000999927520752,-10.449999809265137,0.9850000143051147
1621845059989,-8.470000267028809,0.1209999993443489,-3.1059999465942383,-2.0789999961853027,-10.95699977874756,0.6970000267028807
1621845059999,-7.699999809265136,1.5399999618530271,-4.703999996185303,-2.0399999618530273,-11.618000030517578,0.3810000121593475
1621845060009,-6.019999980926514,3.775000095367432,-4.879000186920166,-2.0399999618530273,-11.850000381469728,0.3400000035762786
1621845060019,-1.0499999523162842,5.238999843597412,-3.910000085830689,-2.000999927520752,-11.406999588012695,0.5379999876022338
1621845060029,7.630000114440918,5.616000175476074,-3.630000114440918,-1.7649999856948853,-11.406999588012695,0.5379999876022338
1621845060039,14.630000114440918,7.646999835968018,-6.684000015258789,-1.4119999408721924,-11.814000129699709,0.5860000252723693
1621845060049,16.729999542236328,9.390000343322754,-7.300000190734864,-0.8240000009536743,-12.479999542236328,0.746999979019165
1621845060059,12.600000381469728,6.855999946594238,-4.619999885559082,-0.3919999897480011,-12.395000457763672,0.722000002861023
1621845060069,8.75,3.786999940872192,-6.156000137329102,-0.0390000008046627,-12.689000129699709,1.0290000438690186
1621845060079,3.849999904632568,1.2799999713897705,-7.664000034332275,0.3529999852180481,-12.29800033569336,1.2970000505447388
1621845060089,-1.0499999523162842,-0.2689999938011169,-10.56700038909912,0.5490000247955322,-11.28600025177002,1.434999942779541
1621845060099,-5.389999866485596,-0.6909999847412109,-14.621999740600586,0.8240000009536743,-10.616000175476074,1.4739999771118164
1621845060109,-8.609999656677246,-2.743000030517578,-15.482000350952148,1.215999960899353,-10.131999969482422,1.440000057220459
1621845060119,-9.869999885559082,-4.9120001792907715,-13.66100025177002,1.569000005722046,-9.666000366210936,1.2829999923706057
1621845060129,-8.960000038146973,-8.484000205993652,-9.527999877929688,1.843999981880188,-9.3100004196167,1.0670000314712524
1621845060139,-7.349999904632568,-12.725000381469728,-4.020999908447266,2.118000030517578,-9.121000289916992,0.9010000228881836
1621845060149,-6.230000019073486,-16.871999740600586,2.569000005722046,2.197000026702881,-9.222999572753906,0.8029999732971191
1621845060159,-6.860000133514404,-21.29599952697754,7.901999950408936,2.118000030517578,-9.345999717712402,0.8220000267028807
1621845060169,-7.595000267028808,-23.58650016784668,9.203999519348145,1.9220000505447388,-9.5600004196167,0.902999997138977
1621845060179,-8.329999923706055,-25.87700080871582,10.505999565124512,2.236000061035156,-9.029999732971191,0.8370000123977661
1621845060189,-8.399999618530273,-31.03499984741211,10.734000205993652,1.687000036239624,-9.39400005340576,1.0920000076293943
1621845060199,-4.130000114440918,-33.39099884033203,14.015000343322754,0.8240000009536743,-9.406999588012695,1.1690000295639038
1621845060209,-4.340000152587891,-33.058998107910156,12.935999870300291,0.2349999994039535,-9.454999923706056,1.440000057220459
1621845060219,-4.130000114440918,-32.38199996948242,9.50100040435791,-0.1570000052452087,-9.71399974822998,1.5529999732971191
1621845060229,-5.739999771118164,-29.03300094604492,8.244000434875488,-0.3140000104904174,-9.57800006866455,1.4579999446868896
1621845060239,-6.019999980926514,-26.027999877929688,5.7170000076293945,-0.1959999948740005,-9.40999984741211,1.4079999923706057
1621845060249,-3.990000009536743,-25.1200008392334,3.388999938964844,-0.0780000016093254,-9.151000022888184,1.2940000295639038
1621845060259,-2.309999942779541,-25.238000869750977,4.861000061035156,-0.0780000016093254,-8.930000305175781,1.1740000247955322
1621845060269,0.0,-26.040000915527344,5.785999774932861,-0.1180000007152557,-8.885000228881836,1.1419999599456787
1621845060279,1.3300000429153442,-27.444000244140625,4.4720001220703125,-0.1959999948740005,-8.831999778747559,1.0720000267028809
1621845060289,2.0299999713897705,-28.972000122070312,3.065999984741211,-0.2349999994039535,-8.86400032043457,1.0260000228881836
1621845060299,2.0999999046325684,-29.969999313354492,2.6760001182556152,-0.2349999994039535,-8.86400032043457,1.0260000228881836
1621845060309,1.0499999523162842,-30.420000076293945,1.6019999980926514,-0.3529999852180481,-8.979999542236328,1.00600004196167
1621845060319,-0.3499999940395355,-30.343999862670895,-0.4460000097751617,-0.4309999942779541,-8.987000465393066,1.0440000295639038
1621845060329,-2.450000047683716,-29.41900062561035,-2.059999942779541,-0.5490000247955322,-9.01900005340576,0.9990000128746032
1621845060339,-3.184999942779541,-28.7864990234375,-2.623499870300293,-0.6280000209808348,-9.031999588012695,1.0759999752044678
1621845060349,-3.9200000762939458,-28.15399932861328,-3.187000036239624,-0.8240000009536743,-8.979999542236328,1.00600004196167
1621845060359,-5.320000171661377,-25.940000534057617,-4.857999801635742,-1.0590000152587893,-8.972999572753906,0.9670000076293944
1621845060369,-7.280000209808349,-22.68899917602539,-6.7729997634887695,-1.2549999952316284,-8.979999542236328,1.00600004196167
1621845060379,-8.609999656677246,-18.224000930786133,-7.905000209808349,-1.4119999408721924,-9.095999717712402,0.9850000143051147
1621845060389,-9.449999809265137,-13.159999847412108,-9.21500015258789,-1.5299999713897705,-9.17300033569336,0.9720000028610228
1621845060399,-11.550000190734863,-8.609999656677246,-10.829999923706056,-1.4119999408721924,-9.1850004196167,0.8100000023841857
1621845060409,-14.699999809265137,-5.382999897003174,-11.39799976348877,-1.0199999809265137,-9.03499984741211,0.6380000114440918
1621845060419,-16.940000534057617,-4.765999794006348,-10.86299991607666,-0.5490000247955322,-8.793999671936035,0.4009999930858612
1621845060429,-17.079999923706055,-7.401999950408936,-9.621000289916992,-0.1570000052452087,-8.47599983215332,0.1780000030994415
1621845060439,-14.210000038146973,-10.986000061035156,-7.836999893188477,0.0390000008046627,-8.1850004196167,0.1099999994039535
1621845060449,-9.239999771118164,-14.282999992370604,-7.281000137329101,0.0390000008046627,-8.02400016784668,0.0989999994635581
1621845060459,-4.269999980926514,-16.382999420166016,-7.863999843597413,0.0390000008046627,-8.02400016784668,0.0989999994635581
1621845060469,0.4900000095367431,-16.951000213623047,-8.675000190734863,-0.0780000016093254,-7.933000087738037,0.0350000001490116
1621845060479,4.199999809265137,-16.38800048828125,-9.854999542236328,-0.3529999852180481,-7.926000118255616,-0.003000000026077
1621845060489,4.760000228881836,-15.633000373840332,-10.503999710083008,-0.4709999859333038,-8.199000358581543,0.1870000064373016
1621845060499,2.869999885559082,-15.555999755859377,-8.927000045776367,-0.5099999904632568,-8.437000274658203,0.1850000023841857
1621845060509,1.399999976158142,-16.103500366210938,-8.241499900817871,-0.3529999852180481,-8.987000465393066,0.367000013589859
1621845060519,-0.0700000002980232,-16.650999069213867,-7.556000232696533,-0.2349999994039535,-9.477999687194824,0.4399999976158142
1621845060529,-4.409999847412109,-17.729000091552734,-6.679999828338623,-0.2349999994039535,-9.947999954223633,0.3970000147819519
1621845060539,-8.539999961853027,-17.433000564575195,-6.343999862670898,-0.3140000104904174,-10.394000053405762,0.4379999935626983
1621845060549,-12.31999969482422,-14.23799991607666,-7.13100004196167,-0.5490000247955322,-10.638999938964844,0.4740000069141387
1621845060559,-16.309999465942383,-9.404999732971191,-7.13100004196167,-0.8629999756813049,-10.793999671936035,0.4469999969005584
1621845060569,-20.719999313354492,-4.295000076293945,-5.875,-0.981000006198883,-10.934000015258787,0.3420000076293945
1621845060579,-23.799999237060547,-1.0299999713897705,-3.0250000953674316,-0.9020000100135804,-10.958999633789064,0.2579999864101409
1621845060589,-27.229999542236328,0.4129999876022338,-1.1349999904632568,-0.7850000262260437,-10.784000396728516,0.1700000017881393
1621845060599,-30.3799991607666,0.5960000157356262,0.2469999939203262,-0.5490000247955322,-10.67300033569336,-0.0099999997764825
1621845060609,-32.900001525878906,-0.944000005722046,2.5350000858306885,-0.3140000104904174,-10.562000274658203,-0.1889999955892562
1621845060619,-32.900001525878906,-2.0799999237060547,4.538000106811523,-0.1959999948740005,-10.590999603271484,-0.4729999899864196
1621845060629,-28.559999465942383,-4.836999893188477,5.260000228881836,-0.1959999948740005,-11.090999603271484,-0.8009999990463256
1621845060639,-20.440000534057617,-7.546000003814697,2.0810000896453857,-0.1959999948740005,-11.696000099182127,-0.9869999885559082
1621845060649,-11.550000190734863,-7.539000034332275,-3.6040000915527344,-0.3919999897480011,-11.439000129699709,-0.8619999885559082
1621845060659,-4.900000095367432,-8.026000022888184,-6.888000011444092,-0.5490000247955322,-11.125,-0.6069999933242797
1621845060669,-2.380000114440918,-9.067999839782717,-8.031499862670898,-0.5099999904632568,-11.17300033569336,-0.3370000123977661
1621845060679,0.1400000005960464,-10.109999656677246,-9.175000190734863,-0.3919999897480011,-11.20699977874756,-0.1439999938011169
1621845060689,3.849999904632568,-13.963000297546388,-10.70699977874756,-0.2750000059604644,-11.062000274658203,0.1609999984502792
1621845060699,6.230000019073486,-18.780000686645508,-11.201000213623049,-0.1180000007152557,-10.715999603271484,0.460999995470047
1621845060709,6.230000019073486,-23.23200035095215,-10.137999534606934,0.0390000008046627,-10.33899974822998,0.8059999942779541
1621845060719,4.409999847412109,-27.413000106811523,-8.60099983215332,0.0,-9.883999824523924,1.1649999618530271
1621845060729,1.5399999618530271,-30.798999786376953,-8.345000267028809,-0.1180000007152557,-9.314000129699709,1.5440000295639038
1621845060739,-0.6299999952316284,-34.05500030517578,-8.42199993133545,-0.0390000008046627,-9.366000175476074,1.6150000095367432
1621845060744,,,,,,
1621845060749,-0.8399999737739563,-37.63999938964844,-10.26200008392334,0.1180000007152557,-9.470999717712402,1.75600004196167
1621845060759,0.4900000095367431,-43.349998474121094,-16.17300033569336,0.3919999897480011,-9.479999542236328,2.0329999923706055
1621845060769,2.0299999713897705,-50.06600189208984,-24.038999557495117,0.8240000009536743,-9.397999763488768,2.246000051498413
1621845060779,2.450000047683716,-57.67900085449219,-32.0629997253418,1.2549999952316284,-9.572999954223633,2.3350000381469727
1621845060789,1.1200000047683716,-66.72599792480469,-39.20199966430664,1.7649999856948853,-9.916000366210936,2.4739999771118164
1621845060799,-1.399999976158142,-77.6719970703125,-45.255001068115234,2.197000026702881,-10.251999855041504,2.5739998817443848
1621845060809,-4.619999885559082,-91.08599853515624,-49.39699935913086,2.746000051498413,-10.54300022125244,2.6419999599456787
1621845060819,-6.929999828338623,-98.87149810791016,-49.987998962402344,3.3340001106262207,-10.81999969482422,2.6329998970031734
1621845060829,-9.239999771118164,-106.65699768066406,-50.57899856567382,3.8440001010894775,-11.027000427246094,2.6760001182556152
1621845060839,-14.5600004196167,-124.99400329589844,-50.1870002746582,4.1579999923706055,-11.118000030517578,2.740000009536743
1621845060849,-20.86000061035156,-143.94700622558594,-49.12200164794922,4.276000022888184,-11.142999649047852,2.6559998989105225
1621845060859,-27.510000228881836,-161.17599487304688,-46.54499816894531,4.079999923706055,-11.083999633789064,2.546999931335449
1621845060869,-33.7400016784668,-175.6439971923828,-45.11600112915039,3.6480000019073486,-10.86400032043457,2.4260001182556152
1621845060879,-39.47999954223633,-187.83299255371097,-43.71099853515625,3.0989999771118164,-10.559000015258787,2.2809998989105225
1621845060889,-43.959999084472656,-195.68800354003903,-41.89699935913086,2.4709999561309814,-10.138999938964844,2.1559998989105225
1621845060899,-46.970001220703125,-199.3730010986328,-39.1349983215332,1.8040000200271609,-9.79599952697754,2.0169999599456787
1621845060909,-48.439998626708984,-199.66099548339844,-36.698001861572266,1.2549999952316284,-9.375,1.8919999599456787
1621845060919,-47.38999938964844,-198.58599853515625,-34.731998443603516,0.8240000009536743,-9.038999557495115,1.7920000553131104
1621845060929,-44.939998626708984,-197.51499938964844,-31.131000518798828,0.4709999859333038,-8.755000114440918,1.7619999647140503
1621845060939,-40.95000076293945,-196.26499938964844,-25.722000122070312,0.2349999994039535,-8.60099983215332,1.7899999618530271
1621845060949,-35.77000045776367,-193.8919982910156,-19.829999923706055,-0.0780000016093254,-8.515999794006348,1.7649999856948853
1621845060959,-29.88999938964844,-189.08999633789065,-15.215999603271484,-0.5099999904632568,-8.470999717712402,1.7330000400543213
1621845060969,-24.780000686645508,-182.5570068359375,-12.359000205993652,-0.8240000009536743,-8.53499984741211,1.6419999599456787
1621845060979,-22.99499893188477,-179.44700622558594,-10.850500106811523,-1.0199999809265137,-8.682000160217285,1.5759999752044678
1621845060989,-21.209999084472656,-176.33700561523435,-9.342000007629396,-1.0590000152587893,-8.829999923706055,1.5099999904632568
1621845060999,-19.25,-170.6020050048828,-5.986000061035156,-1.0199999809265137,-8.946000099182129,1.4900000095367432
1621845061009,-17.850000381469727,-166.33200073242188,-3.5980000495910645,-1.0199999809265137,-8.901000022888184,1.4579999446868896
1621845061019,-16.8700008392334,-162.43099975585935,-2.3410000801086426,-1.1380000114440918,-8.815999984741211,1.4329999685287476
1621845061029,-15.68000030517578,-157.0709991455078,-3.315000057220459,-1.215999960899353,-8.5600004196167,1.5579999685287476
1621845061039,-14.979999542236328,-151.01699829101562,-7.010000228881836,-0.8240000009536743,-8.22599983215332,1.6959999799728394
1621845061049,-14.489999771118164,-145.09300231933594,-11.581000328063965,-0.5099999904632568,-8.482000350952148,1.5709999799728394
1621845061059,-13.720000267028809,-140.7550048828125,-14.015000343322754,-0.2750000059604644,-8.706999778747559,1.4919999837875366
1621845061069,-11.619999885559082,-138.0500030517578,-15.244000434875488,-0.1180000007152557,-8.96399974822998,1.3669999837875366
1621845061079,-8.890000343322754,-135.84500122070312,-18.479999542236328,0.1959999948740005,-9.220999717712402,1.2419999837875366
1621845061089,-4.480000019073486,-133.50599670410156,-22.474000930786133,0.6669999957084655,-9.55500030517578,1.1030000448226929
1621845061099,-1.0499999523162842,-134.0659942626953,-25.344999313354492,1.1380000114440918,-9.895999908447264,1.003000020980835
1621845061109,1.190000057220459,-138.53399658203125,-23.788000106811523,1.491000056266785,-10.152999877929688,0.8790000081062316
1621845061119,2.6600000858306885,-144.94000244140625,-20.510000228881836,1.6480000019073486,-10.42300033569336,0.8309999704360961
1621845061129,3.9200000762939458,-152.41299438476562,-17.634000778198242,1.569000005722046,-10.583999633789064,0.8420000076293945
1621845061138,4.235000133514404,-155.62249755859375,-17.16950035095215,1.491000056266785,-10.770999908447266,0.7699999809265136
1621845061148,4.550000190734863,-158.83200073242188,-16.704999923706055,1.3339999914169312,-11.008999824523926,0.7670000195503234
1621845061158,5.039999961853027,-162.63999938964844,-18.086999893188477,1.2940000295639038,-11.149999618530272,0.6629999876022338
1621845061168,4.760000228881836,-165.28399658203125,-20.82799911499023,1.2549999952316284,-11.104999542236328,0.6309999823570251
1621845061178,4.829999923706055,-167.0240020751953,-24.261999130249023,1.3339999914169312,-10.975000381469728,0.5740000009536743
1621845061188,4.829999923706055,-168.51300048828125,-27.510000228881836,1.1770000457763672,-10.878000259399414,0.4720000028610229
1621845061198,4.550000190734863,-168.44400024414062,-29.915000915527344,0.9020000100135804,-10.631999969482422,0.4350000023841857
1621845061208,4.059999942779541,-167.2729949951172,-30.916000366210938,0.6280000209808348,-10.373000144958496,0.3219999969005584
1621845061218,3.849999904632568,-164.48300170898435,-31.41900062561035,0.3529999852180481,-10.152999877929688,0.2010000050067901
1621845061228,4.130000114440918,-160.51699829101562,-30.933000564575195,0.0,-9.925999641418455,0.0419999994337558
1621845061238,4.269999980926514,-154.54800415039062,-29.312000274658203,-0.3140000104904174,-9.645999908447264,-0.1870000064373016
1621845061248,4.130000114440918,-147.52000427246094,-27.64699935913086,-0.5879999995231628,-9.418999671936035,-0.3459999859333038
1621845061258,4.340000152587891,-138.48599243164062,-26.479999542236328,-0.7450000047683715,-9.107999801635742,-0.5299999713897705
1621845061268,3.849999904632568,-127.23300170898436,-26.20199966430664,-0.7850000262260437,-8.88700008392334,-0.6510000228881835
1621845061278,2.5899999141693115,-115.70500183105467,-25.875,-0.5879999995231628,-8.737000465393066,-0.8240000009536743
1621845061288,1.2599999904632568,-105.11299896240234,-25.073999404907227,-0.3529999852180481,-8.633000373840332,-0.9649999737739564
1621845061298,0.209999993443489,-95.16600036621092,-24.243999481201172,0.0390000008046627,-8.541999816894531,-1.0279999971389773
1621845061308,0.0,-90.79249572753906,-24.254499435424805,0.3529999852180481,-8.392000198364258,-1.2009999752044678
1621845061318,-0.209999993443489,-86.41899871826172,-24.26499938964844,0.7059999704360961,-8.281000137329102,-1.3799999952316284
1621845061328,0.699999988079071,-79.35600280761719,-25.222999572753903,1.0590000152587893,-8.227999687194824,-1.4509999752044678
1621845061338,3.009999990463257,-73.51699829101562,-25.68600082397461,1.4119999408721924,-8.253000259399414,-1.5349999666213987
1621845061348,6.090000152587891,-68.15599822998047,-25.45199966430664,1.72599995136261,-8.28499984741211,-1.5800000429153442
1621845061358,9.520000457763674,-63.930999755859375,-25.631000518798828,2.510999917984009,-8.737000465393066,-1.5010000467300415
1621845061368,13.300000190734863,-60.04999923706055,-25.871000289916992,2.8239998817443848,-8.996000289916992,-1.3869999647140503
1621845061378,15.609999656677246,-57.96500015258789,-24.79199981689453,3.0989999771118164,-9.279999732971191,-1.3580000400543213
1621845061388,16.940000534057617,-57.98899841308594,-22.238000869750977,3.372999906539917,-9.40999984741211,-1.3009999990463257
1621845061398,17.360000610351562,-59.36800003051758,-20.06399917602539,3.569999933242798,-9.454999923706056,-1.2690000534057615
1621845061408,17.149999618530273,-61.47600173950195,-18.58799934387207,3.7269999980926514,-9.468999862670898,-1.1920000314712524
1621845061418,16.729999542236328,-64.71600341796875,-17.951000213623047,3.8050000667572026,-9.482999801635742,-1.1139999628067017
1621845061428,16.940000534057617,-68.59300231933594,-18.136999130249023,3.8829998970031734,-9.637000083923342,-1.1419999599456787
1621845061438,17.219999313354492,-73.02899932861328,-17.56800079345703,3.7660000324249263,-9.767000198364256,-1.0850000381469729
1621845061448,18.059999465942383,-77.83399963378906,-16.92300033569336,3.569999933242798,-9.871000289916992,-0.944000005722046
1621845061458,19.809999465942383,-82.58999633789062,-16.55299949645996,3.4519999027252197,-9.916999816894531,-0.9120000004768372
1621845061468,21.6299991607666,-85.38800048828125,-17.614999771118164,3.25600004196167,-10.027999877929688,-0.7329999804496765
1621845061478,23.030000686645508,-87.1240005493164,-19.058000564575195,3.0989999771118164,-10.04800033569336,-0.6169999837875366
1621845061488,23.170000076293945,-87.64500427246094,-19.32799911499023,2.941999912261963,-10.029999732971191,-0.4939999878406524
1621845061498,23.309999465942383,-88.16600036621094,-19.597999572753903,2.7850000858306885,-10.019000053405762,-0.3330000042915344
1621845061508,21.979999542236328,-88.16999816894531,-17.96299934387207,2.628000020980835,-9.947999954223633,-0.2800000011920929
1621845061518,20.790000915527344,-87.81300354003906,-15.55500030517578,2.4709999561309814,-9.916999816894531,-0.2349999994039535
1621845061528,19.38999938964844,-86.79499816894531,-13.668999671936035,2.313999891281128,-9.845999717712402,-0.1829999983310699
1621845061538,18.40999984741211,-85.31900024414062,-11.560999870300291,2.0789999961853027,-9.807000160217283,-0.1759999990463256
1621845061548,17.780000686645508,-82.7760009765625,-9.050999641418455,1.843999981880188,-9.845999717712402,-0.1829999983310699
1621845061558,17.079999923706055,-79.79499816894531,-6.60699987411499,1.5299999713897705,-9.937000274658203,-0.1190000027418136
1621845061568,15.329999923706056,-76.26300048828125,-4.065000057220459,1.2940000295639038,-9.982000350952148,-0.0869999974966049
1621845061578,13.159999847412108,-72.3290023803711,-1.38100004196167,1.0199999809265137,-9.932000160217283,0.0810000002384185
1621845061588,11.270000457763672,-67.9530029296875,0.8119999766349792,0.7450000047683715,-9.822999954223633,0.1400000005960464
1621845061598,10.149999618530272,-63.18899917602539,2.0079998970031734,0.6669999957084655,-9.760000228881836,0.231000006198883
1621845061608,8.75,-57.19499969482422,2.2829999923706055,0.7059999704360961,-9.779999732971191,0.3470000028610229
1621845061618,8.539999961853027,-51.452999114990234,2.371000051498413,0.7850000262260437,-9.895999908447264,0.3260000050067901
1621845061628,8.329999923706055,-46.132999420166016,3.23799991607666,0.8240000009536743,-10.036999702453612,0.2220000028610229
1621845061638,8.050000190734863,-42.68600082397461,5.053999900817871,0.8240000009536743,-10.26200008392334,0.1420000046491622
1621845061648,7.630000114440918,-39.542999267578125,7.386000156402587,0.7450000047683715,-10.293999671936035,0.0970000028610229
1621845061658,5.739999771118164,-37.68600082397461,9.347999572753906,0.7059999704360961,-10.319000244140623,0.0130000002682209
1621845061668,3.9200000762939458,-35.61800003051758,10.92099952697754,0.5490000247955322,-10.27299976348877,-0.0189999993890523
1621845061678,2.8350000381469727,-34.510498046875,11.293999671936035,0.3529999852180481,-10.227999687194824,-0.0509999990463256
1621845061688,1.75,-33.40299987792969,11.666999816894531,0.1959999948740005,-10.151000022888184,-0.0370000004768371
1621845061698,-0.4900000095367431,-30.406999588012695,12.407999992370604,0.1959999948740005,-10.065999984741213,-0.061999998986721
1621845061708,-2.1700000762939453,-27.56800079345703,11.628999710083008,0.2750000059604644,-10.034999847412108,-0.0170000009238719
1621845061718,-3.7799999713897705,-24.64900016784668,10.793999671936035,0.3140000104904174,-9.944000244140623,-0.0799999982118606
1621845061728,-5.599999904632568,-22.888999938964844,10.890999794006348,0.3140000104904174,-9.968999862670898,-0.164000004529953
1621845061738,-7.139999866485596,-22.406000137329105,12.184000015258787,0.3140000104904174,-9.947999954223633,-0.2800000011920929
1621845061748,-8.329999923706055,-22.38999938964844,12.89799976348877,0.2349999994039535,-9.86400032043457,-0.3050000071525573
1621845061753,,,,,,
1621845061758,-8.890000343322754,-22.503000259399418,13.944000244140623,0.1180000007152557,-9.696000099182127,-0.3549999892711639
1621845061768,-8.470000267028809,-22.847999572753903,13.883000373840332,0.0,-9.496000289916992,-0.3600000143051147
1621845061778,-7.210000038146973,-21.64800071716309,12.317999839782717,-0.0390000008046627,-9.380000114440918,-0.3400000035762786
1621845061788,-6.090000152587891,-19.92099952697754,9.779000282287598,-0.0390000008046627,-9.380000114440918,-0.3400000035762786
1621845061798,-5.039999961853027,-18.07200050354004,6.551000118255615,-0.0390000008046627,-9.425999641418455,-0.3079999983310699
1621845061808,-3.0799999237060547,-16.29599952697754,3.736999988555908,-0.0390000008046627,-9.593999862670898,-0.2579999864101409
1621845061818,-1.8899999856948853,-15.015000343322754,2.115000009536743,0.0390000008046627,-9.741999626159668,-0.3240000009536743
1621845061828,-1.3300000429153442,-14.314000129699709,0.9589999914169312,0.1180000007152557,-9.928000450134276,-0.3959999978542327
1621845061838,-0.9800000190734864,-13.892000198364258,0.1800000071525573,0.1180000007152557,-10.095999717712402,-0.3459999859333038
1621845061848,-1.3300000429153442,-14.14799976348877,0.4199999868869781,0.1180000007152557,-10.166000366210936,-0.3989999890327453
1621845061858,-2.0999999046325684,-16.03700065612793,1.8630000352859497,0.0390000008046627,-10.135000228881836,-0.3529999852180481
1621845061868,-2.380000114440918,-18.27899932861328,2.890000104904175,-0.0390000008046627,-10.006999969482422,-0.1710000038146972
1621845061878,-1.4700000286102295,-19.96699905395508,1.1710000038146973,-0.0780000016093254,-9.807000160217283,-0.1759999990463256
1621845061888,-1.0499999523162842,-19.80099868774414,-0.5770000219345092,-0.1180000007152557,-9.645999908447264,-0.1870000064373016
1621845061898,-0.6299999952316284,-19.635000228881836,-2.325000047683716,-0.1180000007152557,-9.406999588012695,-0.1850000023841857
1621845061908,-0.4199999868869781,-18.402000427246097,-4.880000114440918,-0.0780000016093254,-9.227999687194824,-0.0740000009536743
1621845061918,-0.4199999868869781,-16.29400062561035,-6.355999946594238,-0.0390000008046627,-9.175999641418455,-0.1439999938011169
1621845061928,-0.4900000095367431,-14.565999984741213,-6.478000164031982,-0.1180000007152557,-9.208000183105469,-0.1899999976158142
1621845061938,-0.8399999737739563,-13.159000396728516,-5.590000152587891,-0.1959999948740005,-9.161999702453612,-0.221000000834465
1621845061948,-2.309999942779541,-12.079999923706056,-2.8410000801086426,-0.2750000059604644,-9.201000213623049,-0.2280000001192092
1621845061958,-3.430000066757202,-11.616999626159668,0.5809999704360961,-0.2349999994039535,-9.123000144958496,-0.2150000035762786
1621845061968,-3.6400001049041744,-10.401000022888184,2.1470000743865967,-0.1180000007152557,-9.07800006866455,-0.2460000067949295
1621845061978,-2.799999952316284,-7.857999801635742,2.239000082015991,0.0,-9.23900032043457,-0.2349999994039535
1621845061988,-1.190000057220459,-4.723999977111816,0.5889999866485595,0.1180000007152557,-9.39400005340576,-0.2619999945163726
1621845061998,0.3499999940395355,-1.5449999570846558,-3.3289999961853027,0.2750000059604644,-9.619000434875488,-0.3420000076293945
1621845062008,0.7699999809265136,1.5720000267028809,-6.9019999504089355,0.4709999859333038,-9.720999717712402,-0.4390000104904174
1621845062018,0.6299999952316284,4.921000003814697,-9.368000030517578,0.6669999957084655,-9.836999893188477,-0.4600000083446502
1621845062028,0.1400000005960464,7.572999954223632,-11.104000091552734,0.8629999756813049,-9.869000434875488,-0.5049999952316284
1621845062038,0.0,9.940999984741213,-12.036999702453612,1.0590000152587893,-9.862000465393066,-0.5440000295639038
1621845062048,-0.1400000005960464,10.991000175476074,-12.348999977111816,1.2940000295639038,-9.78499984741211,-0.5299999713897705
1621845062058,0.4900000095367431,11.765999794006348,-12.710000038146973,1.4509999752044678,-9.78499984741211,-0.5299999713897705
1621845062068,1.3300000429153442,12.406999588012695,-12.312999725341797,1.569000005722046,-9.81700038909912,-0.5759999752044677
1621845062078,2.799999952316284,12.458999633789064,-11.805999755859377,1.687000036239624,-9.81700038909912,-0.5759999752044677
1621845062088,4.269999980926514,11.482000350952148,-10.699000358581545,1.6480000019073486,-9.918999671936035,-0.6740000247955322
1621845062098,5.110000133514404,10.635000228881836,-9.923999786376951,1.6080000400543213,-10.097999572753906,-0.7850000262260437
1621845062108,5.179999828338623,10.420000076293944,-9.109000205993652,1.491000056266785,-10.123000144958496,-0.8690000176429749
1621845062118,3.849999904632568,10.878000259399414,-7.677999973297118,1.491000056266785,-10.078000068664553,-0.9010000228881836
1621845062128,2.694999933242798,11.47450065612793,-6.826499938964844,1.4509999752044678,-9.987000465393066,-0.9639999866485596
1621845062138,1.5399999618530271,12.071000099182127,-5.974999904632568,1.4119999408721924,-9.814000129699709,-0.8140000104904174
1621845062148,-1.1200000047683716,14.138999938964844,-4.4019999504089355,1.4509999752044678,-9.638999938964846,-0.902999997138977
1621845062158,-3.7100000381469727,16.121999740600586,-2.3459999561309814,1.5299999713897705,-9.522999763488768,-0.8830000162124633
1621845062168,-5.599999904632568,18.089000701904297,-1.0039999485015867,1.687000036239624,-9.407999992370604,-0.8619999885559082
1621845062178,-6.440000057220459,18.92099952697754,-0.0759999975562095,1.9220000505447388,-9.28499984741211,-0.8799999952316284
1621845062188,-5.320000171661377,19.954999923706055,0.1070000007748603,2.236000061035156,-9.28499984741211,-0.8799999952316284
1621845062198,-3.0799999237060547,20.611000061035156,-1.1990000009536743,2.549999952316284,-9.329999923706056,-0.8489999771118164
1621845062208,-0.0700000002980232,20.083999633789062,-3.8510000705718994,2.864000082015991,-9.484999656677246,-0.8759999871253967
1621845062218,1.8899999856948853,18.30699920654297,-5.869999885559082,3.0989999771118164,-9.569000244140623,-0.8510000109672546
1621845062228,3.1500000953674316,15.368000030517578,-6.531000137329102,3.2950000762939453,-9.61400032043457,-0.8190000057220459
1621845062238,3.7799999713897705,12.156000137329102,-6.456999778747559,3.413000106811523,-9.621000289916992,-0.7799999713897705
1621845062248,3.7100000381469727,8.243000030517578,-6.435999870300293,3.490999937057495,-9.51900005340576,-0.6830000281333923
1621845062258,2.799999952316284,4.4029998779296875,-5.620999813079834,3.6480000019073486,-9.526000022888184,-0.6439999938011169
1621845062268,1.399999976158142,-0.0410000011324882,-4.201000213623047,3.7269999980926514,-9.44200038909912,-0.6690000295639038
1621845062278,0.209999993443489,-4.335000038146973,-2.825999975204468,3.8050000667572026,-9.447999954223633,-0.6299999952316284
1621845062288,-1.9600000381469729,-9.177000045776367,-1.9739999771118164,3.8050000667572026,-9.36400032043457,-0.6549999713897705
1621845062298,-3.009999990463257,-14.939000129699709,-1.1410000324249268,3.7269999980926514,-9.357999801635742,-0.6940000057220459
1621845062308,-3.6400001049041744,-20.10099983215332,-0.4880000054836273,3.6089999675750737,-9.319000244140623,-0.6869999766349792
1621845062318,-3.7799999713897705,-24.187999725341797,-0.2849999964237213,3.4519999027252197,-9.27400016784668,-0.7189999818801879
1621845062328,-3.7100000381469727,-27.72800064086914,-0.7670000195503234,3.372999906539917,-9.35099983215332,-0.7329999804496765
1621845062338,-2.940000057220459,-29.868999481201172,-1.9259999990463257,3.3340001106262207,-9.722999572753906,-0.8780000209808348
1621845062348,-2.309999942779541,-31.25200080871582,-2.9519999027252197,3.372999906539917,-10.18000030517578,-0.9980000257492064
1621845062358,-1.9600000381469729,-33.007999420166016,-2.2660000324249268,3.2950000762939453,-10.232000350952148,-0.9279999732971193
1621845062368,-1.4700000286102295,-35.505001068115234,0.2080000042915344,3.0989999771118164,-9.944000244140623,-0.7580000162124633
1621845062378,-0.3499999940395355,-37.525001525878906,1.9839999675750732,2.9030001163482666,-9.951000213623049,-0.7189999818801879
1621845062388,-0.4900000095367431,-37.56549835205078,2.616499900817871,2.7070000171661377,-10.161999702453612,-0.8759999871253967
1621845062398,-0.6299999952316284,-37.60599899291992,3.249000072479248,2.4709999561309814,-10.527999877929688,-1.059999942779541
1621845062408,-2.869999885559082,-36.42499923706055,6.229000091552734,2.197000026702881,-10.836999893188477,-1.1139999628067017
1621845062418,-4.550000190734863,-36.24599838256836,10.454999923706056,1.8830000162124632,-10.79800033569336,-1.1069999933242798
1621845062428,-4.269999980926514,-37.15800094604492,13.208000183105469,1.5299999713897705,-10.46399974822998,-0.968999981880188
1621845062438,-0.9100000262260436,-38.25299835205078,14.57900047302246,1.2549999952316284,-9.918999671936035,-0.6740000247955322
1621845062448,3.9200000762939458,-37.97700119018555,13.418999671936035,0.9409999847412108,-9.237000465393066,-0.4740000069141387
1621845062458,9.520000457763674,-37.42599868774414,12.30799961090088,0.5879999995231628,-8.76200008392334,-0.231000006198883
1621845062468,14.279999732971191,-36.77299880981445,13.845000267028809,0.2349999994039535,-8.491999626159668,-0.1829999983310699
1621845062478,19.040000915527344,-36.14400100708008,15.519000053405762,-0.1959999948740005,-8.49899959564209,-0.1439999938011169
1621845062488,23.170000076293945,-35.48699951171875,17.839000701904297,-0.5490000247955322,-8.729999542236328,-0.1850000023841857
1621845062498,26.809999465942383,-35.02799987792969,21.687000274658203,-0.8629999756813049,-8.916999816894531,-0.2579999864101409
1621845062508,30.170000076293945,-34.90999984741211,26.256999969482425,-1.1380000114440918,-9.026000022888184,-0.31700000166893
1621845062518,33.18000030517578,-35.5260009765625,29.347000122070312,-1.5299999713897705,-9.064000129699709,-0.3240000009536743
1621845062528,37.45000076293945,-36.23899841308594,30.57200050354004,-1.7649999856948853,-9.142000198364256,-0.3370000123977661
1621845062538,41.29999923706055,-36.3120002746582,29.777000427246097,-1.9220000505447388,-9.187000274658203,-0.3050000071525573
1621845062548,45.08000183105469,-35.89899826049805,27.433000564575195,-2.0399999618530273,-9.168999671936035,-0.1829999983310699
1621845062558,48.22999954223633,-35.73699951171875,23.694000244140625,-2.197000026702881,-9.12600040435791,0.0240000002086162
1621845062568,50.88999938964844,-35.50299835205078,18.333999633789062,-2.2750000953674316,-9.276000022888184,0.1969999969005584
1621845062578,52.5,-34.84299850463867,12.97700023651123,-2.313999891281128,-9.432000160217283,0.4079999923706054
1621845062588,53.130001068115234,-33.46900177001953,7.604000091552734,-2.3929998874664307,-9.45300006866455,0.5239999890327453
1621845062598,53.900001525878906,-31.32799911499023,2.7209999561309814,-2.4709999561309814,-9.40999984741211,0.731000006198883
1621845062608,54.31999969482422,-28.368999481201172,-1.1640000343322754,-2.4709999561309814,-9.229999542236328,0.8420000076293945
1621845062618,54.38999938964844,-24.13999938964844,-2.9769999980926514,-2.5889999866485596,-9.057000160217283,0.9919999837875366
1621845062628,54.040000915527344,-18.722000122070312,-3.869999885559082,-2.6670000553131104,-8.800999641418457,1.1169999837875366
1621845062638,53.27000045776367,-12.453000068664553,-3.5460000038146973,-2.8239998817443848,-8.692000389099121,1.1759999990463257
1621845062648,51.72999954223633,-4.400000095367432,-2.055000066757202,-2.9809999465942383,-8.781999588012695,1.2400000095367432
1621845062658,50.29499816894531,0.2389998435974121,-0.953000009059906,-3.0989999771118164,-8.970999717712402,1.406000018119812
1621845062668,48.86000061035156,4.877999782562256,0.1490000039339065,-3.177000045776367,-9.244000434875488,1.5959999561309814
1621845062678,45.220001220703125,13.925000190734863,2.4549999237060547,-3.138000011444092,-9.45699977874756,1.6779999732971191
1621845062688,40.25,22.079999923706055,5.386000156402588,-3.0199999809265137,-9.607000350952148,1.85099995136261
1621845062698,34.93000030517578,28.969999313354492,8.236000061035156,-2.9030001163482666,-9.621000289916992,1.9279999732971191
1621845062708,29.81999969482422,35.141998291015625,10.319000244140623,-2.6670000553131104,-9.569000244140623,1.8580000400543213
1621845062718,24.989999771118164,39.099998474121094,11.656999588012695,-2.3929998874664307,-9.491000175476074,1.8710000514984133
1621845062728,21.13999938964844,41.40299987792969,12.703000068664553,-2.0399999618530273,-9.458999633789062,1.9170000553131104
1621845062738,17.639999389648438,40.970001220703125,14.758999824523926,-1.8040000200271609,-9.343999862670898,1.937000036239624
1621845062748,14.350000381469728,38.27299880981445,16.3439998626709,-1.569000005722046,-9.29800033569336,1.906000018119812
1621845062758,12.390000343322754,33.95100021362305,17.075000762939453,-1.4119999408721924,-9.30500030517578,1.944000005722046
1621845062763,,,,,,
1621845062767,10.5,29.02400016784668,15.993000030517578,-1.3339999914169312,-9.26599979400635,1.950999975204468
1621845062777,9.100000381469728,23.23699951171875,13.338000297546388,-1.3339999914169312,-9.156999588012695,2.009999990463257
1621845062787,8.819999694824219,17.781999588012695,9.604000091552734,-1.3730000257492063,-9.125,2.055000066757202
1621845062797,9.100000381469728,12.531000137329102,6.331999778747559,-1.569000005722046,-9.125,2.055000066757202
1621845062807,9.100000381469728,8.005000114440918,2.9749999046325684,-1.7649999856948853,-9.086999893188477,2.062000036239624
1621845062817,9.65999984741211,5.291999816894531,-0.9860000014305114,-1.9609999656677248,-9.138999938964846,2.1329998970031734
1621845062827,10.010000228881836,3.434000015258789,-4.1570000648498535,-2.0789999961853027,-9.262000083923342,2.1510000228881836
1621845062837,10.220000267028809,2.2130000591278076,-6.505000114440918,-2.197000026702881,-9.371000289916992,2.0920000076293945
1621845062847,9.100000381469728,1.9980000257492063,-8.105999946594238,-2.4709999561309814,-9.531999588012695,2.1029999256134033
1621845062857,7.070000171661377,2.9709999561309814,-9.996000289916992,-2.5889999866485596,-9.862000465393066,2.1649999618530273
1621845062867,4.269999980926514,3.809999942779541,-11.126999855041504,-2.6670000553131104,-10.02299976348877,2.1760001182556152
1621845062877,0.3499999940395355,5.711999893188477,-11.432000160217283,-2.7850000858306885,-10.062000274658203,2.1689999103546143
1621845062887,-3.849999904632568,8.663999557495117,-12.048999786376951,-2.864000082015991,-10.145999908447266,2.194000005722046
1621845062897,-8.1899995803833,11.413000106811523,-13.128000259399414,-2.864000082015991,-10.093000411987305,2.124000072479248
1621845062907,-10.114999771118164,12.442999839782717,-13.72800064086914,-2.864000082015991,-10.04800033569336,2.0920000076293945
1621845062917,-12.039999961853027,13.472999572753906,-14.328000068664553,-2.8239998817443848,-9.96399974822998,2.066999912261963
1621845062927,-15.399999618530272,15.06999969482422,-14.118000030517578,-2.9030001163482666,-9.880000114440918,2.0420000553131104
1621845062937,-17.850000381469727,16.429000854492188,-14.161999702453612,-3.0199999809265137,-9.95699977874756,2.0280001163482666
1621845062947,-19.530000686645508,18.167999267578125,-15.562000274658203,-3.138000011444092,-10.072999954223633,2.0079998970031734
1621845062957,-20.93000030517578,20.770999908447266,-18.229999542236328,-3.138000011444092,-10.149999618530272,1.99399995803833
1621845062967,-22.1200008392334,23.22800064086914,-21.280000686645508,-3.138000011444092,-10.142999649047852,1.955999970436096
1621845062977,-23.239999771118164,25.284000396728516,-24.47100067138672,-3.0199999809265137,-10.097999572753906,1.924000024795532
1621845062987,-23.799999237060547,27.43199920654297,-27.788999557495117,-2.864000082015991,-10.154999732971191,1.7940000295639038
1621845062997,-24.709999084472656,28.940000534057617,-29.086000442504883,-2.746000051498413,-10.604999542236328,1.6349999904632568
1621845063007,-25.34000015258789,30.84199905395508,-30.599000930786133,-2.7070000171661377,-11.05500030517578,1.47599995136261
1621845063017,-24.5,32.69900131225586,-32.262001037597656,-2.628000020980835,-11.58899974822998,1.3420000076293943
1621845063027,-22.469999313354492,34.03300094604492,-34.58599853515625,-2.5889999866485596,-12.16800022125244,1.2400000095367432
1621845063037,-18.969999313354492,36.08000183105469,-35.71699905395508,-2.510999917984009,-12.234000205993652,1.3880000114440918
1621845063047,-13.300000190734863,38.03900146484375,-37.14899826049805,-2.3929998874664307,-11.70699977874756,1.559999942779541
1621845063057,-7.489999771118165,39.117000579833984,-38.025001525878906,-2.0399999618530273,-11.340999603271484,1.74399995803833
1621845063067,-1.8899999856948853,39.3849983215332,-35.91600036621094,-1.8040000200271609,-11.097999572753906,1.9470000267028809
1621845063077,2.799999952316284,39.972999572753906,-36.0260009765625,-1.6480000019073486,-10.675000190734863,2.259999990463257
1621845063087,6.300000190734863,41.14500045776367,-39.44499969482422,-1.3730000257492063,-10.258999824523926,2.611999988555908
1621845063097,7.9099998474121085,43.00899887084961,-43.16699981689453,-1.0199999809265137,-9.854999542236328,2.802999973297119
1621845063107,7.699999809265136,46.999000549316406,-47.65299987792969,-0.7059999704360961,-9.597999572753906,2.927999973297119
1621845063117,6.159999847412109,51.612998962402344,-53.66299819946289,-0.2750000059604644,-9.527000427246092,2.9800000190734863
1621845063127,3.849999904632568,55.01800155639648,-58.4640007019043,0.3529999852180481,-9.552000045776367,2.8959999084472656
1621845063137,2.450000047683716,57.18299865722656,-59.86000061035156,0.981000006198883,-9.493000030517578,2.7869999408721924
1621845063147,2.940000057220459,56.073001861572266,-56.7859992980957,1.6480000019073486,-9.29300022125244,2.7829999923706055
1621845063157,3.7450001239776607,54.704498291015625,-53.86399841308594,2.118000030517578,-9.062000274658203,2.8239998817443848
1621845063167,4.550000190734863,53.33599853515625,-50.94200134277344,2.4709999561309814,-8.836999893188477,2.9030001163482666
1621845063177,7.070000171661377,49.27799987792969,-42.84400177001953,2.6670000553131104,-8.572999954223633,2.989000082015991
1621845063187,9.239999771118164,45.1349983215332,-34.26300048828125,2.7070000171661377,-8.470999717712402,3.086999893188477
1621845063197,10.850000381469728,40.948001861572266,-25.832000732421875,2.746000051498413,-8.555000305175781,3.111999988555908
1621845063207,11.130000114440918,36.60599899291992,-18.138999938964844,2.7070000171661377,-8.909000396728516,3.0889999866485596
1621845063217,9.729999542236328,32.17499923706055,-11.954999923706056,2.5889999866485596,-9.380000114440918,3.0460000038146973
1621845063227,7.420000076293945,28.35199928283691,-6.800000190734863,2.431999921798706,-9.663999557495115,3.075999975204468
1621845063237,3.569999933242798,24.23200035095215,-1.98199999332428,2.1570000648498535,-9.940999984741213,3.066999912261963
1621845063247,-1.8899999856948853,21.718999862670895,3.4030001163482666,1.8040000200271609,-10.17300033569336,3.0260000228881836
1621845063257,-8.470000267028809,20.47100067138672,7.66099977493286,1.2940000295639038,-10.281999588012695,2.9670000076293945
1621845063267,-14.840000152587892,20.43400001525879,9.076000213623049,0.5490000247955322,-9.949999809265137,2.6670000553131104
1621845063277,-21.13999938964844,21.663000106811523,9.36400032043457,0.3529999852180481,-9.70300006866455,2.3919999599456787
1621845063287,-26.600000381469727,23.33799934387207,9.944000244140623,0.1570000052452087,-9.42300033569336,2.1619999408721924
1621845063297,-31.36000061035156,24.71299934387207,10.61299991607666,0.0390000008046627,-9.21399974822998,1.88100004196167
1621845063307,-35.41999816894531,26.249000549316406,9.958999633789062,-0.0390000008046627,-8.86400032043457,1.7029999494552612
1621845063317,-38.5,27.36000061035156,8.093999862670898,0.0,-8.63700008392334,1.5440000295639038
1621845063327,-39.83000183105469,27.915000915527344,6.557000160217285,0.0,-8.402999877929688,1.3459999561309814
1621845063337,-40.25,28.417999267578125,4.513000011444092,0.0,-8.253000259399414,1.1740000247955322
1621845063347,-39.7599983215332,28.856000900268555,2.0320000648498535,0.0780000016093254,-8.187000274658203,1.0260000228881836
1621845063357,-38.779998779296875,29.14299964904785,-0.4059999883174896,0.1180000007152557,-8.11400032043457,0.8399999737739563
1621845063367,-37.029998779296875,29.427000045776367,-2.4170000553131104,0.1959999948740005,-8.086999893188477,0.6850000023841857
1621845063377,-35.349998474121094,29.516000747680664,-4.533999919891357,0.2750000059604644,-8.067000389099121,0.5690000057220459
1621845063387,-34.29999923706055,29.51150131225586,-5.316499710083008,0.3919999897480011,-8.045999526977539,0.453000009059906
1621845063397,-33.25,29.506999969482425,-6.098999977111816,0.5099999904632568,-8.14900016784668,0.356000006198883
1621845063407,-31.219999313354492,29.09000015258789,-6.953999996185303,0.5099999904632568,-8.258000373840332,0.2969999909400939
1621845063417,-29.260000228881836,29.673999786376953,-6.638000011444092,0.5490000247955322,-8.321000099182129,0.2060000002384185
1621845063427,-27.09000015258789,30.698999404907227,-6.813000202178955,0.5490000247955322,-8.444000244140625,0.2240000069141387
1621845063437,-24.850000381469727,31.854999542236328,-6.111000061035156,0.5099999904632568,-8.567000389099121,0.2419999986886978
1621845063447,-22.81999969482422,33.35599899291992,-4.140999794006348,0.4709999859333038,-8.630000114440918,0.1509999930858612
1621845063457,-21.420000076293945,35.37099838256836,-1.866000056266785,0.4309999942779541,-8.696000099182129,0.2989999949932098
1621845063467,-20.020000457763672,37.41899871826172,-0.5809999704360961,0.5099999904632568,-8.657999992370605,0.3059999942779541
1621845063477,-18.200000762939453,39.40599822998047,-0.1599999964237213,0.5879999995231628,-8.619000434875488,0.3129999935626983
1621845063487,-16.799999237060547,40.99599838256836,-0.3059999942779541,0.7450000047683715,-8.579999923706055,0.3190000057220459
1621845063497,-16.100000381469727,41.91999816894531,-0.7110000252723693,0.8629999756813049,-8.70300006866455,0.3379999995231628
1621845063507,-15.75,42.4109992980957,-1.4780000448226929,0.981000006198883,-9.012000083923342,0.2829999923706054
1621845063517,-14.909999847412108,42.30899810791016,-2.9170000553131104,1.0980000495910645,-9.25100040435791,0.2809999883174896
1621845063527,-13.649999618530272,40.98699951171875,-4.288000106811523,1.215999960899353,-9.425999641418455,0.3689999878406524
1621845063537,-12.31999969482422,38.40399932861328,-3.747999906539917,1.215999960899353,-9.70300006866455,0.3600000143051147
1621845063547,-11.899999618530272,36.28799819946289,-2.628999948501587,1.1380000114440918,-10.064000129699709,0.3759999871253967
1621845063557,-11.760000228881836,34.52799987792969,-2.7260000705718994,1.0199999809265137,-10.46399974822998,0.3849999904632568
1621845063567,-11.130000114440918,33.29499816894531,-3.7960000038146977,0.9409999847412108,-10.696000099182127,0.3449999988079071
1621845063577,-9.869999885559082,31.343999862670895,-4.423999786376953,0.9020000100135804,-10.765999794006348,0.2919999957084655
1621845063587,-9.029999732971191,28.486000061035156,-2.7249999046325684,0.9020000100135804,-10.998000144958496,0.2509999871253967
1621845063597,-8.960000038146973,26.868000030517575,0.4020000100135803,0.8240000009536743,-11.975000381469728,-0.0799999982118606
1621845063607,-4.900000095367432,27.40800094604492,0.5680000185966491,0.5490000247955322,-13.18000030517578,-0.2529999911785125
1621845063617,-0.6299999952316284,26.894500732421875,-1.7615000009536743,0.3919999897480011,-13.116000175476074,-0.1620000004768371
1621845063627,3.6400001049041744,26.381000518798828,-4.091000080108643,0.5490000247955322,-12.82699966430664,0.0089999996125698
1621845063637,8.050000190734863,21.32900047302246,-4.058000087738037,0.5099999904632568,-12.91800022125244,0.0719999969005584
1621845063647,7.280000209808349,17.947999954223633,3.0230000019073486,0.0390000008046627,-12.802000045776367,0.0930000022053718
1621845063657,6.369999885559082,16.844999313354492,1.6200000047683716,-0.3529999852180481,-12.5,0.1860000044107437
1621845063667,5.53000020980835,14.17099952697754,-6.598999977111816,-0.3919999897480011,-12.036999702453612,0.2680000066757202
1621845063677,2.7300000190734863,9.342000007629396,-5.815999984741211,-0.5490000247955322,-11.503000259399414,0.4020000100135803
1621845063687,-1.2599999904632568,4.854000091552734,1.4960000514984133,-1.0199999809265137,-10.755000114440918,0.4539999961853027
1621845063697,-4.619999885559082,0.1469999998807907,4.00600004196167,-1.569000005722046,-10.071000099182127,0.4149999916553497
1621845063707,-7.559999942779541,-2.711999893188477,3.2890000343322754,-2.118000030517578,-9.696000099182127,0.3219999969005584
1621845063717,-8.960000038146973,-1.4470000267028809,0.953000009059906,-2.6670000553131104,-9.366999626159668,0.2599999904632568
1621845063727,-8.329999923706055,2.680000066757202,-4.716000080108643,-3.059999942779541,-9.1850004196167,0.1330000013113021
1621845063737,-6.300000190734863,7.65399980545044,-12.369000434875488,-3.2950000762939453,-9.010000228881836,0.0439999997615814
1621845063747,-3.2200000286102295,13.12399959564209,-17.58799934387207,-3.2950000762939453,-8.803000450134277,0.0010000000474974
1621845063757,-0.1400000005960464,17.895999908447266,-20.868999481201172,-3.2950000762939453,-8.449000358581543,0.0240000002086162
1621845063767,3.1500000953674316,23.01300048828125,-24.09000015258789,-3.177000045776367,-8.326000213623047,0.006000000052154
1621845063771,,,,,,
1621845063777,6.789999961853027,28.368999481201172,-25.84600067138672,-3.059999942779541,-8.293999671936035,0.0509999990463256
1621845063787,10.289999961853027,32.40399932861328,-25.347999572753903,-2.864000082015991,-8.473999977111816,-0.0599999986588954
1621845063797,14.140000343322754,35.91999816894531,-23.520000457763672,-2.628000020980835,-8.595999717712402,-0.0419999994337558
1621845063807,18.34000015258789,38.073001861572266,-21.22100067138672,-2.3929998874664307,-8.642000198364258,-0.0099999997764825
1621845063817,22.260000228881836,39.32699966430664,-18.65399932861328,-2.0789999961853027,-8.668999671936035,0.1439999938011169
1621845063827,25.40999984741211,39.95600128173828,-16.979999542236328,-1.843999981880188,-8.70300006866455,0.3379999995231628
1621845063837,27.86000061035156,39.57899856567382,-16.051000595092773,-1.5299999713897705,-8.722999572753906,0.453000009059906
1621845063847,28.24499893188477,39.132999420166016,-15.73900032043457,-1.2940000295639038,-8.697999954223633,0.537000000476837
1621845063857,28.6299991607666,38.6870002746582,-15.427000045776367,-1.1380000114440918,-8.795999526977539,0.6399999856948853
1621845063867,27.440000534057617,38.04999923706055,-15.041000366210936,-1.0199999809265137,-8.932000160217285,0.7350000143051147
1621845063877,25.1299991607666,38.03799819946289,-16.180999755859375,-0.9020000100135804,-9.036999702453612,0.8759999871253967
1621845063887,22.049999237060547,37.46200180053711,-17.347999572753906,-0.8240000009536743,-9.17300033569336,0.9720000028610228
1621845063897,17.639999389648438,36.49300003051758,-17.093000411987305,-0.7450000047683715,-9.340999603271484,1.0219999551773071
1621845063907,12.739999771118164,34.97200012207031,-15.72599983215332,-0.6669999957084655,-9.373000144958496,0.9760000109672546
1621845063917,7.349999904632568,33.62200164794922,-14.116000175476074,-0.6280000209808348,-9.404999732971191,0.930999994277954
1621845063927,2.0299999713897705,31.64299964904785,-12.972000122070312,-0.5490000247955322,-9.43000030517578,0.847000002861023
1621845063937,-2.799999952316284,29.704999923706055,-11.253000259399414,-0.4309999942779541,-9.293999671936035,0.7509999871253967
1621845063947,-6.929999828338623,26.704999923706055,-9.152000427246092,-0.3529999852180481,-9.156999588012695,0.656000018119812
1621845063957,-10.149999618530272,23.315000534057617,-7.262000083923339,-0.3140000104904174,-9.013999938964846,0.5220000147819519
1621845063967,-12.949999809265137,20.104000091552734,-5.980000019073486,-0.4709999859333038,-8.83899974822998,0.4329999983310699
1621845063977,-14.699999809265137,17.172000885009766,-5.074999809265137,-0.5490000247955322,-8.734999656677246,0.2919999957084655
1621845063987,-15.960000038146973,15.387999534606934,-5.033999919891357,-0.7059999704360961,-8.545999526977539,0.1260000020265579
1621845063997,-16.520000457763672,14.239999771118164,-5.379000186920166,-0.8629999756813049,-8.487000465393066,0.0170000009238719
1621845064007,-16.450000762939453,13.45400047302246,-6.1570000648498535,-0.981000006198883,-8.4350004196167,-0.0529999993741512
1621845064017,-15.81999969482422,12.237000465393066,-6.513999938964844,-1.0590000152587893,-8.420999526977539,-0.1309999972581863
1621845064027,-14.699999809265137,11.060999870300291,-6.295000076293945,-1.0980000495910645,-8.413999557495117,-0.1689999997615814
1621845064037,-12.949999809265137,9.83199977874756,-6.583000183105469,-1.215999960899353,-8.446000099182129,-0.2150000035762786
1621845064047,-10.56999969482422,9.39400005340576,-7.72599983215332,-1.3730000257492063,-8.45300006866455,-0.1759999990463256
1621845064057,-8.1899995803833,8.960000038146973,-9.295000076293944,-1.4509999752044678,-8.460000038146973,-0.1369999945163726
1621845064067,-7.279999732971192,9.15049934387207,-9.97249984741211,-1.5299999713897705,-8.550999641418457,-0.0740000009536743
1621845064077,-6.369999885559082,9.340999603271484,-10.649999618530272,-1.6080000400543213,-8.711999893188477,-0.061999998986721
1621845064087,-5.880000114440918,10.074999809265137,-11.586999893188477,-1.7649999856948853,-8.951000213623047,-0.0649999976158142
1621845064097,-6.300000190734863,12.251999855041504,-13.050999641418455,-1.9220000505447388,-9.267000198364256,-0.0810000002384185
1621845064107,-7.489999771118165,14.916000366210938,-14.855999946594238,-2.0399999618530273,-9.58899974822998,-0.0579999983310699
1621845064117,-9.029999732971191,18.606000900268555,-16.834999084472656,-2.118000030517578,-9.925999641418455,0.0419999994337558
1621845064127,-11.340000152587892,22.0,-17.941999435424805,-2.118000030517578,-10.182000160217283,-0.0829999968409538
1621845064137,-13.4399995803833,25.933000564575195,-18.88400077819824,-2.1570000648498535,-10.52299976348877,-0.1829999983310699
1621845064147,-15.329999923706056,30.31599998474121,-19.958999633789062,-2.313999891281128,-10.845999717712402,-0.1599999964237213
1621845064157,-17.149999618530273,38.09400177001953,-22.142000198364254,-2.7070000171661377,-11.038999557495115,-0.1940000057220459
1621845064167,-18.690000534057617,49.95399856567382,-24.10199928283691,-3.2950000762939453,-11.20699977874756,-0.1439999938011169
1621845064177,-20.229999542236328,64.44999694824219,-26.094999313354492,-3.92300009727478,-11.890999794006348,-0.1049999967217445
1621845064187,-20.86000061035156,80.01300048828125,-26.47800064086914,-3.961999893188477,-12.192999839782717,-0.1979999989271163
1621845064197,-21.209999084472656,92.9250030517578,-25.125999450683594,-3.8440001010894775,-12.515999794006348,-0.1749999970197677
1621845064207,-21.6299991607666,104.51000213623048,-22.301000595092773,-3.8829998970031734,-12.61400032043457,-0.0729999989271163
1621845064217,-20.790000915527344,117.58399963378906,-21.062000274658203,-3.8829998970031734,-12.788999557495115,0.0149999996647238
1621845064227,-18.969999313354492,130.73399353027344,-20.66200065612793,-3.8829998970031734,-12.836000442504885,0.2860000133514404
1621845064237,-16.59000015258789,142.33099365234375,-21.531999588012695,-3.6089999675750737,-12.83199977874756,0.4860000014305114
1621845064247,-15.1899995803833,150.28700256347656,-20.69700050354004,-3.059999942779541,-12.685999870300291,0.7900000214576721
1621845064257,-15.889999389648438,152.5540008544922,-20.048500061035156,-2.3540000915527344,-12.41800022125244,1.0770000219345093
1621845064267,-16.59000015258789,154.8209991455078,-19.399999618530273,-1.6080000400543213,-12.097999572753906,1.2920000553131104
1621845064277,-22.260000228881836,155.07699584960935,-18.430999755859375,-0.9020000100135804,-11.88599967956543,1.4490000009536743
1621845064287,-33.18000030517578,152.33900451660156,-18.6299991607666,-0.3919999897480011,-11.734000205993652,1.7150000333786013
1621845064297,-49.70000076293945,148.0489959716797,-20.097000122070312,0.2349999994039535,-12.220000267028809,1.9880000352859497
1621845064307,-73.70999908447266,142.32699584960935,-22.31399917602539,0.7059999704360961,-12.779000282287598,2.447000026702881
1621845064317,-100.4499969482422,135.77000427246094,-26.243000030517575,1.1770000457763672,-12.317999839782717,2.7669999599456787
1621845064327,-120.54000091552734,128.95599365234375,-32.347999572753906,1.8040000200271609,-11.531999588012695,2.825999975204468
1621845064337,-132.08999633789062,119.81600189208984,-36.94499969482422,2.3929998874664307,-10.85200023651123,2.586999893188477
1621845064347,-136.57000732421875,108.12899780273436,-36.375999450683594,2.864000082015991,-9.949999809265137,1.9900000095367432
1621845064357,-134.19000244140625,94.7969970703125,-32.117000579833984,3.25600004196167,-8.519000053405762,1.3259999752044678
1621845064367,-122.36000061035156,79.9280014038086,-25.996000289916992,3.4519999027252197,-7.111999988555908,0.578000009059906
1621845064377,-103.25,65.37200164794922,-17.615999221801758,3.372999906539917,-6.066999912261963,-0.1539999991655349
1621845064387,-80.29000091552734,53.21599960327149,-8.741999626159668,3.059999942779541,-5.375999927520752,-0.9079999923706054
1621845064397,-54.880001068115234,44.479000091552734,-3.5299999713897705,2.7070000171661377,-5.310999870300293,-1.7330000400543213
1621845064406,-30.65999984741211,37.707000732421875,-0.6010000109672546,2.510999917984009,-5.749000072479248,-2.4079999923706055
1621845064416,-8.329999923706055,31.195999145507812,4.078999996185303,2.313999891281128,-6.236000061035156,-2.812000036239624
1621845064426,11.199999809265137,24.347999572753903,12.680999755859377,1.9609999656677248,-6.626999855041504,-3.0799999237060547
1621845064436,28.489999771118164,19.236000061035156,21.517000198364254,1.491000056266785,-6.916999816894531,-3.01200008392334
1621845064446,35.4900016784668,17.780500411987305,23.92599868774414,0.8629999756813049,-7.164999961853027,-2.736999988555908
1621845064456,42.4900016784668,16.325000762939453,26.334999084472656,0.2750000059604644,-7.683000087738037,-2.509999990463257
1621845064466,51.52000045776367,16.860000610351562,25.718000411987305,-0.1570000052452087,-8.536999702453613,-2.183000087738037
1621845064476,54.529998779296875,19.516000747680664,21.13999938964844,-0.3919999897480011,-9.15999984741211,-1.8140000104904177
1621845064486,51.2400016784668,23.32200050354004,14.064000129699709,-0.3919999897480011,-9.407999992370604,-1.5390000343322754
1621845064496,45.290000915527344,27.298999786376953,7.230000019073486,-0.1959999948740005,-9.564000129699709,-1.3279999494552612
1621845064506,37.939998626708984,30.01099967956543,2.7330000400543213,0.0,-9.598999977111816,-1.1349999904632568
1621845064516,30.940000534057617,32.26499938964844,-0.7789999842643737,0.2750000059604644,-9.418999671936035,-1.02400004863739
1621845064526,26.459999084472656,32.96200180053711,-3.9260001182556152,0.5879999995231628,-9.05799961090088,-1.0390000343322754
1621845064536,23.65999984741211,32.650001525878906,-6.184000015258789,0.8240000009536743,-8.786999702453613,-0.9919999837875366
1621845064546,23.239999771118164,31.274999618530273,-6.853000164031982,1.1380000114440918,-8.503000259399414,-1.0210000276565552
1621845064556,23.520000457763672,29.413999557495117,-8.390000343322754,1.4119999408721924,-8.342000007629395,-1.0329999923706057
1621845064566,24.709999084472656,26.82200050354004,-9.41499996185303,1.569000005722046,-8.342000007629395,-1.0329999923706057
1621845064576,26.459999084472656,26.035999298095703,-8.984999656677246,1.569000005722046,-8.342000007629395,-1.0329999923706057
1621845064586,27.510000228881836,26.39699935913086,-9.418999671936035,1.491000056266785,-8.38700008392334,-1.0010000467300415
1621845064596,28.84000015258789,28.820999145507812,-10.270999908447266,1.3339999914169312,-8.432999610900879,-0.968999981880188
1621845064606,29.959999084472656,31.785999298095703,-9.74899959564209,1.215999960899353,-8.60099983215332,-0.9190000295639038
1621845064616,30.170000076293945,35.43899917602539,-9.104000091552734,1.0980000495910645,-8.845999717712402,-0.8830000162124633
1621845064626,28.350000381469727,39.27899932861328,-8.711999893188477,1.1380000114440918,-9.130000114440918,-0.8529999852180481
1621845064636,26.915000915527344,40.62950134277344,-8.508999824523926,1.1770000457763672,-9.42099952697754,-0.7850000262260437
1621845064646,25.479999542236328,41.97999954223633,-8.305999755859375,1.1770000457763672,-9.538999557495115,-0.5669999718666076
1621845064656,21.84000015258789,44.55500030517578,-7.994999885559082,1.215999960899353,-9.444000244140623,-0.4300000071525573
1621845064666,18.549999237060547,46.91899871826172,-8.501999855041504,1.1380000114440918,-9.187000274658203,-0.3050000071525573
1621845064676,16.799999237060547,49.867000579833984,-8.692999839782715,0.981000006198883,-9.00100040435791,-0.2329999953508377
1621845064686,16.239999771118164,54.5099983215332,-8.015999794006348,0.7450000047683715,-8.892000198364258,-0.1739999949932098
1621845064696,16.799999237060547,60.904998779296875,-8.807999610900879,0.5879999995231628,-8.892000198364258,-0.1739999949932098
1621845064706,18.690000534057617,66.39900207519531,-9.33199977874756,0.5879999995231628,-8.982999801635742,-0.1099999994039535
1621845064716,22.1200008392334,70.63700103759766,-8.371000289916992,0.5879999995231628,-8.98900032043457,-0.0710000023245811
1621845064726,26.25,74.2220001220703,-4.113999843597412,0.3919999897480011,-9.241999626159668,0.0040000001899898
1621845064736,30.940000534057617,78.01799774169922,0.962000012397766,0.1570000052452087,-9.550999641418455,-0.0509999990463256
1621845064746,34.86000061035156,82.69400024414062,3.065999984741211,0.0,-9.897999763488768,-0.1120000034570694
1621845064756,37.45000076293945,87.08100128173828,2.7739999294281006,0.0,-10.13700008392334,-0.1140000000596046
