timestamp,gyro_x,gyro_y,gyro_z,acc_x,acc_y,acc_z
1621928817778,0.0,0.0,0.0,0.0,0.0,0.0
1621928817787,-2.5199999809265137,-143.57699584960935,-11.314000129699709,-1.2549999952316284,-9.543999671936035,0.5879999995231628
1621928817797,-1.399999976158142,-138.48399353027344,-10.770999908447266,-1.2549999952316284,-9.58199977874756,0.5809999704360961
1621928817807,-1.399999976158142,-133.51600646972656,-10.321999549865724,-1.215999960899353,-9.645999908447264,0.4900000095367431
1621928817817,-1.9600000381469729,-129.64300537109375,-9.710000038146973,-1.1770000457763672,-9.638999938964846,0.4510000050067901
1621928817827,-2.7300000190734863,-126.90599822998048,-9.512000083923342,-1.0199999809265137,-9.607000350952148,0.4970000088214874
1621928817837,-4.480000019073486,-125.21099853515624,-9.85200023651123,-0.8629999756813049,-9.67099952697754,0.4059999883174896
1621928817847,-5.739999771118164,-123.36199951171876,-9.454999923706056,-0.7450000047683715,-9.70300006866455,0.3600000143051147
1621928817857,-6.545000076293945,-122.6259994506836,-10.000499725341797,-0.5490000247955322,-9.836999893188477,0.2169999927282333
1621928817867,-7.349999904632568,-121.88999938964844,-10.54599952697754,-0.5490000247955322,-9.906999588012695,0.1650000065565109
1621928817877,-8.260000228881836,-120.01300048828124,-11.92099952697754,-0.5099999904632568,-9.906999588012695,0.1650000065565109
1621928817887,-7.630000114440918,-118.16000366210936,-13.157999992370604,-0.4309999942779541,-9.869000434875488,0.1720000058412551
1621928817897,-6.929999828338623,-116.6760025024414,-14.317999839782717,-0.3140000104904174,-9.829999923706056,0.1790000051259994
1621928817907,-5.53000020980835,-115.16799926757812,-15.616000175476074,-0.1570000052452087,-9.727999687194824,0.2759999930858612
1621928817917,-3.359999895095825,-114.93299865722656,-16.14299964904785,0.0,-9.541000366210936,0.3490000069141387
1621928817927,-1.399999976158142,-116.09300231933594,-16.41900062561035,0.1570000052452087,-9.477999687194824,0.4399999976158142
1621928817937,0.3499999940395355,-117.9499969482422,-15.96399974822998,0.2750000059604644,-9.413999557495115,0.531000018119812
1621928817947,1.6100000143051147,-120.75599670410156,-14.965999603271484,0.3529999852180481,-9.35099983215332,0.621999979019165
1621928817957,2.380000114440918,-123.13600158691406,-13.96399974822998,0.2750000059604644,-9.227999687194824,0.6029999852180481
1621928817967,2.5899999141693115,-124.31199645996094,-13.744999885559082,0.1959999948740005,-9.041999816894531,0.6759999990463256
1621928817977,3.6400001049041744,-124.16200256347656,-13.789999961853027,0.0,-8.701000213623047,0.7760000228881835
1621928817987,3.9200000762939458,-122.90499877929688,-14.065999984741213,-0.1959999948740005,-8.538999557495117,0.7649999856948853
1621928817997,4.269999980926514,-119.98899841308594,-14.47599983215332,-0.3529999852180481,-8.392000198364258,0.8309999704360961
1621928818001,,,,,,
1621928818007,2.5899999141693115,-116.80599975585936,-15.194000244140623,-0.4709999859333038,-8.15999984741211,0.8709999918937683
1621928818017,-1.5399999618530271,-113.03099822998048,-17.6560001373291,-0.5490000247955322,-7.843999862670899,0.887000024318695
1621928818027,-7.980000019073486,-109.2480010986328,-19.76099967956543,-0.5490000247955322,-7.676000118255616,0.8370000123977661
1621928818037,-12.179999351501465,-108.10250091552734,-19.20349884033203,-0.3919999897480011,-7.6620001792907715,0.7599999904632568
1621928818047,-16.3799991607666,-106.95700073242188,-18.645999908447266,-0.1959999948740005,-8.354999542236328,0.3989999890327453
1621928818057,-26.31999969482422,-106.51399993896484,-10.678000450134276,-0.0780000016093254,-9.977999687194824,0.1129999980330467
1621928818067,-31.56999969482422,-108.90000152587892,3.259000062942505,-0.1180000007152557,-11.102999687194824,0.3919999897480011
1621928818077,-29.329999923706055,-114.44200134277344,14.934000015258787,-0.5490000247955322,-11.086999893188477,0.7540000081062316
1621928818087,-26.11000061035156,-115.71499633789062,14.496000289916992,-1.4509999752044678,-10.418999671936035,1.031000018119812
1621928818097,-20.09000015258789,-110.6719970703125,5.6479997634887695,-1.491000056266785,-10.42099952697754,1.2690000534057615
1621928818107,-13.859999656677246,-104.56199645996094,3.2420001029968266,-1.687000036239624,-10.402999877929688,1.3919999599456787
1621928818117,-9.170000076293944,-99.23200225830078,9.300000190734863,-1.9609999656677248,-10.487000465393066,1.4170000553131104
1621928818127,-4.619999885559082,-93.50599670410156,12.300000190734863,-2.0399999618530273,-10.67300033569336,1.343999981880188
1621928818137,-0.2800000011920929,-88.14600372314453,10.116999626159668,-2.000999927520752,-10.859000205993652,1.2719999551773071
1621928818147,2.0999999046325684,-82.12899780273438,9.04599952697754,-1.9609999656677248,-10.961999893188477,1.1740000247955322
1621928818157,1.8200000524520872,-75.94100189208984,9.425999641418455,-1.843999981880188,-11.140999794006348,1.062999963760376
1621928818167,0.9800000190734864,-70.54000091552734,7.820000171661377,-1.6480000019073486,-11.366000175476074,0.9829999804496764
1621928818177,0.8399999737739563,-66.76499938964844,4.14900016784668,-1.5299999713897705,-11.48900032043457,1.0010000467300415
1621928818187,0.2800000011920929,-64.46600341796875,0.7879999876022338,-1.491000056266785,-11.42300033569336,0.8539999723434448
1621928818197,-0.3499999940395355,-62.55699920654297,-1.5770000219345093,-1.4509999752044678,-11.42300033569336,0.8539999723434448
1621928818207,-1.190000057220459,-61.09299850463867,-3.0250000953674316,-1.491000056266785,-11.215999603271484,0.8109999895095825
1621928818217,-1.6799999475479126,-59.904998779296875,-3.312999963760376,-1.5299999713897705,-10.892999649047852,0.7879999876022338
1621928818227,-1.8899998664855957,-59.30500030517578,-3.491499900817871,-1.4509999752044678,-10.602999687194824,0.7200000286102294
1621928818237,-2.0999999046325684,-58.70500183105469,-3.6700000762939458,-1.3339999914169312,-10.279999732971191,0.6970000267028807
1621928818247,-2.5899999141693115,-57.994998931884766,-4.468999862670898,-1.2940000295639038,-9.98900032043457,0.6290000081062316
1621928818257,-2.940000057220459,-57.26100158691406,-5.40500020980835,-1.2940000295639038,-9.75100040435791,0.6309999823570251
1621928818267,-3.2899999618530273,-57.39099884033203,-7.489999771118165,-1.2549999952316284,-9.498000144958496,0.5559999942779541
1621928818277,-3.1500000953674316,-57.35900115966797,-9.687000274658203,-1.1770000457763672,-9.29800033569336,0.5509999990463256
1621928818287,-2.940000057220459,-57.08000183105469,-11.27299976348877,-1.1770000457763672,-9.246000289916992,0.481000006198883
1621928818297,-3.359999895095825,-56.694000244140625,-11.845000267028809,-1.0980000495910645,-9.232000350952148,0.402999997138977
1621928818307,-2.799999952316284,-56.118999481201165,-11.885000228881836,-1.0590000152587893,-9.23900032043457,0.44200000166893
1621928818317,-0.9800000190734864,-56.292999267578125,-10.494999885559082,-1.1380000114440918,-9.135000228881836,0.3009999990463256
1621928818327,1.6100000143051147,-56.297000885009766,-8.859999656677246,-0.9409999847412108,-8.916999816894531,0.4189999997615814
1621928818337,4.340000152587891,-54.90599822998047,-8.685999870300293,-0.7450000047683715,-8.769000053405762,0.4850000143051147
1621928818347,7.980000019073486,-53.0,-9.416000366210936,-0.5490000247955322,-8.583000183105469,0.5580000281333923
1621928818357,11.0600004196167,-52.78499984741211,-10.232000350952148,-0.4709999859333038,-8.467000007629395,0.578000009059906
1621928818367,14.140000343322754,-53.619998931884766,-9.526000022888184,-0.4709999859333038,-8.428000450134277,0.5849999785423278
1621928818377,16.59000015258789,-54.722999572753906,-8.51200008392334,-0.5099999904632568,-8.472999572753906,0.6169999837875366
1621928818387,18.34000015258789,-55.801998138427734,-7.636000156402587,-0.6280000209808348,-8.550999641418457,0.6029999852180481
1621928818397,19.809999465942383,-56.5880012512207,-5.998000144958496,-0.7850000262260437,-8.97599983215332,0.527999997138977
1621928818407,20.579999923706055,-55.54600143432618,-4.25,-0.7450000047683715,-9.55500030517578,0.4259999990463256
1621928818417,20.86000061035156,-52.6619987487793,-1.2539999485015867,-0.7059999704360961,-10.064000129699709,0.3759999871253967
1621928818427,21.0,-51.19200134277344,-0.3194999694824218,-0.6669999957084655,-10.3100004196167,0.4129999876022338
1621928818437,21.13999938964844,-49.72200012207031,0.615000009536743,-0.6280000209808348,-10.399999618530272,0.4760000109672546
1621928818447,20.86000061035156,-47.1349983215332,-0.3499999940395355,-0.3529999852180481,-10.388999938964844,0.6380000114440918
1621928818457,20.229999542236328,-44.917999267578125,-4.863999843597412,-0.1959999948740005,-10.163999557495115,0.7170000076293945
1621928818467,16.520000457763672,-42.62300109863281,-10.217000007629396,0.0390000008046627,-9.998000144958496,0.906000018119812
1621928818477,11.130000114440918,-41.11100006103515,-13.14900016784668,0.2349999994039535,-9.960000038146973,0.9129999876022338
1621928818487,4.760000228881836,-42.189998626708984,-12.27299976348877,0.3529999852180481,-10.095999717712402,1.0080000162124634
1621928818497,-0.9800000190734864,-44.15599822998047,-9.98900032043457,0.4309999942779541,-10.328000068664553,0.9670000076293944
1621928818507,-5.460000038146973,-47.237998962402344,-7.831999778747559,0.5490000247955322,-10.597999572753906,0.9190000295639038
1621928818517,-8.470000267028809,-49.69900131225586,-6.7729997634887695,0.6280000209808348,-10.71399974822998,0.8989999890327453
1621928818527,-9.9399995803833,-51.47100067138672,-8.010000228881836,0.7059999704360961,-10.822999954223633,0.8399999737739563
1621928818537,-11.0600004196167,-52.5989990234375,-10.482999801635742,0.8629999756813049,-10.847999572753906,0.7559999823570251
1621928818547,-12.529999732971191,-54.95100021362305,-13.670000076293944,0.981000006198883,-10.590999603271484,0.8809999823570251
1621928818557,-14.140000343322754,-57.76900100708008,-15.020000457763672,0.981000006198883,-10.36400032043457,0.722000002861023
1621928818567,-14.909999847412108,-61.512001037597656,-13.546999931335447,0.9409999847412108,-10.131999969482422,0.7630000114440918
1621928818577,-15.399999618530272,-65.53800201416016,-11.272000312805176,0.9409999847412108,-9.803000450134276,0.7009999752044677
1621928818587,-14.840000152587892,-69.16699981689453,-9.637000083923342,0.8629999756813049,-9.553000450134276,0.865000009536743
1621928818597,-13.090000152587892,-72.49199676513672,-7.309000015258789,0.9020000100135804,-9.428000450134276,0.6079999804496765
1621928818607,-10.5,-75.25700378417967,-3.319000005722046,0.7850000262260437,-9.14400005340576,0.578000009059906
1621928818617,-7.0,-77.98999786376953,-0.3179999887943267,0.7059999704360961,-8.82800006866455,0.5939999818801879
1621928818627,-4.864999771118164,-79.33200073242188,1.0449999570846558,0.5490000247955322,-8.697999954223633,0.537000000476837
1621928818637,-2.7300000190734863,-80.67400360107422,2.4079999923706055,0.3919999897480011,-8.737000465393066,0.531000018119812
1621928818647,1.190000057220459,-83.15499877929688,4.38700008392334,0.3140000104904174,-8.782999992370605,0.5619999766349792
1621928818657,5.25,-83.98999786376953,6.301000118255615,0.1959999948740005,-8.821000099182129,0.5559999942779541
1621928818667,9.3100004196167,-84.77300262451172,6.304999828338623,0.0390000008046627,-8.89799976348877,0.5419999957084655
1621928818677,12.31999969482422,-85.86799621582033,6.4679999351501465,-0.1180000007152557,-9.03499984741211,0.6380000114440918
1621928818687,14.489999771118164,-86.0780029296875,6.85699987411499,-0.2750000059604644,-9.210000038146973,0.7260000109672546
1621928818697,15.960000038146973,-85.40499877929688,6.264999866485596,-0.3919999897480011,-9.42300033569336,0.8080000281333923
1621928818707,16.100000381469727,-84.68000030517578,4.9710001945495605,-0.5490000247955322,-9.637000083923342,0.8899999856948853
1621928818717,15.050000190734863,-83.01300048828125,5.193999767303467,-0.6280000209808348,-9.824999809265137,1.055999994277954
1621928818727,13.579999923706056,-80.35700225830078,5.448999881744385,-0.5879999995231628,-10.071000099182127,1.0920000076293943
1621928818737,11.409999847412108,-77.50199890136719,5.383999824523926,-0.6280000209808348,-10.199999809265137,1.14900004863739
1621928818747,8.050000190734863,-74.21800231933594,4.896999835968018,-0.6669999957084655,-10.258999824523926,1.2580000162124634
1621928818757,4.760000228881836,-71.22100067138672,4.429999828338623,-0.6669999957084655,-10.258999824523926,1.2580000162124634
1621928818767,1.190000057220459,-68.54499816894531,3.763999938964844,-0.6669999957084655,-10.227999687194824,1.3029999732971191
1621928818777,-2.380000114440918,-65.0250015258789,2.75,-0.6280000209808348,-10.149999618530272,1.3170000314712524
1621928818787,-5.949999809265137,-62.320999145507805,2.7300000190734863,-0.6669999957084655,-10.034000396728516,1.3380000591278076
1621928818797,-9.65999984741211,-59.742000579833984,2.615999937057495,-0.7450000047683715,-9.873000144958496,1.3259999752044678
1621928818807,-12.18000030517578,-57.507999420166016,2.440999984741211,-0.9020000100135804,-9.744000434875488,1.2690000534057615
1621928818817,-14.0,-55.43600082397461,1.1720000505447388,-0.9409999847412108,-9.58199977874756,1.2580000162124634
1621928818827,-15.119999885559082,-52.01300048828125,-0.5,-0.981000006198883,-9.536999702453612,1.22599995136261
1621928818837,-15.260000228881836,-49.72450256347656,-1.5889999866485596,-1.0199999809265137,-9.529999732971191,1.187000036239624
1621928818847,-15.399999618530272,-47.43600082397461,-2.677999973297119,-0.981000006198883,-9.755000114440918,1.1080000400543213
1621928818857,-16.100000381469727,-43.02000045776367,-4.742000102996826,-0.981000006198883,-9.755000114440918,1.1080000400543213
1621928818867,-17.43000030517578,-38.99800109863281,-6.5920000076293945,-1.0199999809265137,-9.895999908447264,1.003000020980835
1621928818877,-17.850000381469727,-34.946998596191406,-7.796999931335449,-0.8629999756813049,-9.960000038146973,0.9129999876022338
1621928818887,-17.56999969482422,-31.76799964904785,-8.08899974822998,-0.981000006198883,-9.932000160217283,0.7580000162124633
1621928818897,-18.200000762939453,-27.920000076293945,-9.755999565124512,-0.8629999756813049,-10.079999923706056,0.6919999718666076
1621928818907,-17.56999969482422,-24.368000030517575,-11.760000228881836,-0.7450000047683715,-10.112000465393066,0.6470000147819519
1621928818917,-17.920000076293945,-21.229999542236328,-13.836999893188477,-0.6669999957084655,-9.95699977874756,0.6740000247955322
1621928818927,-17.079999923706055,-18.334999084472656,-15.743000030517578,-0.6280000209808348,-9.82800006866455,0.6169999837875366
1621928818937,-16.729999542236328,-16.753000259399414,-15.038000106811523,-0.5490000247955322,-9.975000381469728,0.5509999990463256
1621928818947,-16.170000076293945,-15.553000450134276,-15.395000457763672,-0.4309999942779541,-10.097999572753906,0.5690000057220459
1621928818957,-15.960000038146973,-14.07699966430664,-15.703000068664553,-0.3919999897480011,-10.097999572753906,0.5690000057220459
1621928818967,-15.050000190734863,-13.505000114440918,-14.109000205993652,-0.4309999942779541,-10.065999984741213,0.615000009536743
1621928818977,-14.699999809265137,-14.30799961090088,-11.97599983215332,-0.3919999897480011,-9.904999732971191,0.6039999723434448
1621928818987,-14.350000381469728,-14.064000129699709,-10.937999725341797,-0.3529999852180481,-9.814000129699709,0.5400000214576721
1621928818997,-14.770000457763672,-13.517000198364258,-10.414999961853027,-0.3140000104904174,-9.6850004196167,0.4830000102519989
1621928819007,-15.81999969482422,-12.51099967956543,-9.668999671936035,-0.2750000059604644,-9.710000038146973,0.3989999890327453
1621928819009,,,,,,
1621928819017,-17.360000610351562,-12.258999824523926,-8.274999618530273,-0.2349999994039535,-9.734999656677246,0.3149999976158142
1621928819027,-19.25,-12.777999877929688,-6.943999767303467,-0.1570000052452087,-9.772999763488768,0.3079999983310699
1621928819037,-21.6299991607666,-13.531999588012695,-5.086999893188477,-0.1180000007152557,-9.812000274658203,0.3009999990463256
1621928819047,-23.520000457763672,-15.324000358581545,-2.986000061035156,-0.1570000052452087,-9.843999862670898,0.2560000121593475
1621928819057,-24.325000762939453,-16.465499877929688,-2.1570000648498535,-0.1959999948740005,-9.836999893188477,0.2169999927282333
1621928819067,-25.1299991607666,-17.60700035095215,-1.3279999494552612,-0.2349999994039535,-9.836999893188477,0.2169999927282333
1621928819077,-26.459999084472656,-19.76799964904785,-0.3580000102519989,-0.3529999852180481,-9.822999954223633,0.1400000005960464
1621928819087,-27.719999313354492,-21.7549991607666,0.4289999902248382,-0.4709999859333038,-9.854999542236328,0.0949999988079071
1621928819097,-28.770000457763672,-23.32799911499023,1.2890000343322754,-0.5490000247955322,-9.89400005340576,0.0879999995231628
1621928819107,-29.1200008392334,-24.301000595092773,0.762000024318695,-0.5879999995231628,-9.887000083923342,0.0489999987185001
1621928819117,-29.260000228881836,-25.25900077819824,-0.2599999904632568,-0.5490000247955322,-9.840999603271484,0.0170000009238719
1621928819127,-29.190000534057617,-25.847000122070312,-1.3589999675750732,-0.5490000247955322,-9.781999588012695,-0.0920000001788139
1621928819137,-29.190000534057617,-27.08799934387207,-1.5779999494552612,-0.4709999859333038,-9.781999588012695,-0.0920000001788139
1621928819147,-29.190000534057617,-28.916000366210938,-1.687000036239624,-0.5099999904632568,-9.729999542236328,-0.1620000004768371
1621928819157,-28.13999938964844,-31.670000076293945,-1.3910000324249268,-0.4709999859333038,-9.722999572753906,-0.2010000050067901
1621928819167,-26.8799991607666,-35.01900100708008,-0.1330000013113021,-0.4709999859333038,-9.6850004196167,-0.1940000057220459
1621928819177,-26.040000915527344,-39.09400177001953,1.2100000381469729,-0.5490000247955322,-9.6850004196167,-0.1940000057220459
1621928819187,-24.63999938964844,-43.042999267578125,2.6459999084472656,-0.6669999957084655,-9.69200038909912,-0.1550000011920929
1621928819197,-23.170000076293945,-46.347999572753906,4.052999973297119,-0.9409999847412108,-9.645999908447264,-0.1870000064373016
1621928819207,-21.700000762939453,-48.40800094604492,4.046000003814697,-1.1380000114440918,-9.522999763488768,-0.2049999982118606
1621928819217,-20.299999237060547,-49.28400039672851,4.175000190734863,-1.2549999952316284,-9.28499984741211,-0.2029999941587448
1621928819227,-19.31999969482422,-48.631000518798835,4.504000186920166,-1.3339999914169312,-9.123000144958496,-0.2150000035762786
1621928819237,-17.920000076293945,-46.32400131225586,3.9149999618530273,-1.2940000295639038,-9.04599952697754,-0.2010000050067901
1621928819247,-16.729999542236328,-43.26599884033203,1.8960000276565552,-1.1770000457763672,-8.961999893188477,-0.2259999960660934
1621928819257,-14.770000457763672,-40.13199996948242,-0.9639999866485596,-1.0199999809265137,-8.885000228881836,-0.2119999974966049
1621928819267,-13.300000190734863,-37.525001525878906,-4.058000087738037,-0.9020000100135804,-8.852999687194824,-0.1669999957084655
1621928819277,-12.530000686645508,-36.230003356933594,-5.357500076293945,-0.8240000009536743,-8.835000038146973,-0.0439999997615814
1621928819287,-11.760000228881836,-34.935001373291016,-6.6570000648498535,-0.7059999704360961,-8.904999732971191,-0.096000000834465
1621928819297,-10.220000267028809,-33.06999969482422,-9.171999931335447,-0.6280000209808348,-8.982999801635742,-0.1099999994039535
1621928819307,-9.029999732971191,-30.4950008392334,-11.277000427246094,-0.3919999897480011,-9.189000129699709,-0.06700000166893
1621928819317,-7.980000019073486,-28.10700035095215,-13.130000114440918,-0.1570000052452087,-9.319000244140623,-0.0099999997764825
1621928819327,-7.210000038146973,-25.965999603271484,-14.387999534606934,0.0780000016093254,-9.4350004196167,-0.0299999993294477
1621928819337,-7.420000076293945,-25.14299964904785,-15.02400016784668,0.2349999994039535,-9.472999572753906,-0.0370000004768371
1621928819347,-7.769999980926514,-25.597000122070312,-14.465000152587892,0.2750000059604644,-9.505000114440918,-0.0829999968409538
1621928819357,-8.609999656677246,-26.84199905395508,-14.258000373840332,0.2750000059604644,-9.58899974822998,-0.0579999983310699
1621928819366,-9.520000457763674,-27.652999877929688,-14.89799976348877,0.2750000059604644,-9.704999923706056,-0.0780000016093254
1621928819376,-9.520000457763674,-27.52300071716309,-15.230999946594238,0.2750000059604644,-9.76900005340576,-0.1689999997615814
1621928819386,-8.960000038146973,-26.902999877929688,-15.121000289916992,0.2750000059604644,-9.845999717712402,-0.1829999983310699
1621928819396,-8.1899995803833,-24.738000869750977,-15.30799961090088,0.2750000059604644,-9.89099979400635,-0.1509999930858612
1621928819406,-6.860000133514404,-22.11000061035156,-15.697999954223633,0.3529999852180481,-9.852999687194824,-0.1439999938011169
1621928819416,-4.96999979019165,-18.80500030517578,-15.897000312805176,0.3919999897480011,-9.885000228881836,-0.1889999955892562
1621928819426,-3.2200000286102295,-15.94200038909912,-15.604999542236328,0.3529999852180481,-9.92300033569336,-0.1959999948740005
1621928819436,-2.0299999713897705,-11.996999740600586,-15.406999588012695,0.3529999852180481,-9.961999893188477,-0.2029999941587448
1621928819446,-0.9100000262260436,-8.416000366210938,-15.55799961090088,0.3919999897480011,-9.954999923706056,-0.2419999986886978
1621928819456,0.2800000011920929,-4.28000020980835,-16.03700065612793,0.3919999897480011,-9.93000030517578,-0.1580000072717666
1621928819466,1.3300000429153442,0.6140000224113464,-16.381999969482422,0.4309999942779541,-9.897999763488768,-0.1120000034570694
1621928819476,2.450000047683716,5.507999897003174,-16.72800064086914,0.5099999904632568,-9.866000175476074,-0.06700000166893
1621928819486,3.2899999618530273,10.163000106811523,-17.327999114990234,0.6280000209808348,-9.718999862670898,-0.0010000000474974
1621928819496,4.409999847412109,13.637999534606934,-18.493000030517575,0.8240000009536743,-9.687000274658203,0.0450000017881393
1621928819506,5.880000114440918,16.56599998474121,-18.972000122070312,0.981000006198883,-9.647999763488768,0.0509999990463256
1621928819516,6.475000381469727,17.45600128173828,-18.77949905395508,1.1380000114440918,-9.654999732971191,0.0900000035762786
1621928819526,7.070000171661377,18.34600067138672,-18.586999893188477,1.215999960899353,-9.701000213623049,0.1220000013709068
1621928819536,8.329999923706055,18.743999481201172,-18.018999099731445,1.2940000295639038,-9.746000289916992,0.1539999991655349
1621928819546,9.239999771118164,19.117000579833984,-17.312999725341797,1.2940000295639038,-9.8100004196167,0.0630000010132789
1621928819556,9.029999732971191,19.562999725341797,-17.02199935913086,1.2940000295639038,-9.887000083923342,0.0489999987185001
1621928819566,8.260000228881836,20.451000213623047,-16.011999130249023,1.2549999952316284,-9.866000175476074,-0.06700000166893
1621928819576,6.929999828338623,21.871000289916992,-15.192999839782717,1.215999960899353,-9.904999732971191,-0.0740000009536743
1621928819586,5.389999866485596,23.208999633789062,-14.31700038909912,1.1380000114440918,-9.859999656677246,-0.1049999967217445
1621928819596,3.849999904632568,24.388999938964844,-13.753999710083008,1.0980000495910645,-9.814000129699709,-0.1369999945163726
1621928819606,2.450000047683716,25.350000381469727,-13.157999992370604,1.1380000114440918,-9.737000465393066,-0.123999997973442
1621928819616,2.240000009536743,26.67200088500977,-12.996000289916992,1.1770000457763672,-9.722999572753906,-0.2010000050067901
1621928819626,2.380000114440918,27.80699920654297,-12.58199977874756,1.2549999952316284,-9.762000083923342,-0.2080000042915344
1621928819636,2.0999999046325684,28.21299934387207,-11.657999992370604,1.2549999952316284,-9.755000114440918,-0.2460000067949295
1621928819646,1.9600000381469729,28.339000701904297,-10.355999946594238,1.2940000295639038,-9.663999557495115,-0.3100000023841857
1621928819656,1.8200000524520872,28.66699981689453,-9.800999641418455,1.2549999952316284,-9.656999588012695,-0.3490000069141387
1621928819666,1.3300000429153442,28.97599983215332,-9.532999992370604,1.2549999952316284,-9.682000160217283,-0.4329999983310699
1621928819676,1.0499999523162842,29.583999633789062,-9.354999542236328,1.2549999952316284,-9.604999542236328,-0.4189999997615814
1621928819686,0.8399999737739563,29.88800048828125,-8.661999702453613,1.2549999952316284,-9.5600004196167,-0.4510000050067901
1621928819696,1.3300000429153442,29.94099998474121,-8.154999732971191,1.215999960899353,-9.585000038146973,-0.5350000262260437
1621928819706,1.5399999618530271,30.679000854492188,-8.309000015258789,1.2940000295639038,-9.642000198364256,-0.6639999747276306
1621928819716,1.8899999856948853,31.229999542236328,-8.211999893188477,1.3730000257492063,-9.711999893188477,-0.7170000076293945
1621928819726,1.2599999904632568,31.28700065612793,-8.130999565124512,1.491000056266785,-9.737000465393066,-0.8009999990463256
1621928819736,0.7699999809265136,30.67099952697754,-7.456999778747559,1.5299999713897705,-9.729999542236328,-0.8389999866485595
1621928819746,-0.4199999868869781,30.60199928283691,-7.469999790191651,1.5299999713897705,-9.638999938964846,-0.902999997138977
1621928819756,-1.8899999856948853,30.74799919128418,-8.29699993133545,1.491000056266785,-9.55500030517578,-0.9279999732971193
1621928819766,-2.4149999618530273,31.055999755859375,-8.633500099182129,1.4119999408721924,-9.470999717712402,-0.953000009059906
1621928819776,-2.940000057220459,31.36400032043457,-8.970000267028809,1.3339999914169312,-9.425999641418455,-0.9850000143051147
1621928819786,-3.7799999713897705,32.59700012207031,-10.315999984741213,1.2940000295639038,-9.3100004196167,-0.9639999866485596
1621928819796,-3.990000009536743,33.7599983215332,-11.675000190734863,1.2940000295639038,-9.194000244140623,-0.944000005722046
1621928819806,-3.990000009536743,35.0369987487793,-12.871000289916992,1.3339999914169312,-9.085000038146973,-0.8849999904632568
1621928819816,-3.990000009536743,35.38600158691406,-13.236000061035156,1.3730000257492063,-8.994000434875488,-0.9490000009536744
1621928819826,-4.130000114440918,35.755001068115234,-13.312999725341797,1.3339999914169312,-8.857999801635742,-1.0440000295639038
1621928819836,-4.199999809265137,35.65299987792969,-14.753000259399414,1.3339999914169312,-8.74899959564209,-0.9850000143051147
1621928819846,-3.569999933242798,35.32500076293945,-16.517000198364258,1.2549999952316284,-8.60099983215332,-0.9190000295639038
1621928819856,-2.450000047683716,36.249000549316406,-19.339000701904297,1.1380000114440918,-8.467000007629395,-0.7760000228881835
1621928819866,-0.5600000023841857,39.03799819946289,-23.468000411987305,0.981000006198883,-8.357999801635742,-0.7170000076293945
1621928819876,1.9600000381469729,42.47200012207031,-28.83300018310547,0.8240000009536743,-8.300999641418457,-0.5870000123977661
1621928819886,4.340000152587891,46.95199966430664,-34.084999084472656,0.7450000047683715,-8.345999717712402,-0.5559999942779541
1621928819896,6.71999979019165,51.54199981689453,-37.540000915527344,0.7059999704360961,-8.289999961853027,-0.4259999990463256
1621928819906,10.010000228881836,55.85599899291992,-41.04399871826172,0.6280000209808348,-8.25100040435791,-0.4189999997615814
1621928819916,13.159999847412108,61.025001525878906,-44.96599960327149,0.5490000247955322,-8.73900032043457,-0.5849999785423278
1621928819926,14.210000038146973,66.25599670410156,-48.02399826049805,0.5879999995231628,-9.694000244140623,-0.5939999818801879
1621928819936,17.219999313354492,71.68099975585938,-49.76900100708008,0.5879999995231628,-9.689000129699709,-0.3939999938011169
1621928819946,21.13999938964844,74.92500305175781,-53.24800109863281,0.5490000247955322,-9.541999816894531,-0.328000009059906
1621928819956,21.700000762939453,78.88999938964844,-55.179000854492195,0.6280000209808348,-9.961999893188477,-0.2029999941587448
1621928819966,21.559999465942383,83.56600189208984,-53.07500076293945,0.5879999995231628,-10.253000259399414,-0.135000005364418
1621928819976,21.06999969482422,86.68900299072266,-51.03200149536133,0.4709999859333038,-10.61400032043457,-0.1190000027418136
1621928819986,19.670000076293945,88.54199981689453,-48.64400100708008,0.5099999904632568,-11.55500030517578,-0.2049999982118606
1621928819996,21.420000076293945,88.74199676513672,-42.922000885009766,0.5490000247955322,-11.88700008392334,0.0949999988079071
1621928820006,22.50500106811523,87.20549774169922,-39.24800109863281,0.4709999859333038,-11.92099952697754,0.2879999876022338
1621928820016,23.59000015258789,85.66899871826172,-35.57400131225586,0.4709999859333038,-12.246000289916992,0.5490000247955322
1621928820018,,,,,,
1621928820026,26.38999938964844,81.79299926757812,-27.301000595092773,0.3919999897480011,-12.373000144958496,1.0449999570846558
1621928820036,31.989999771118164,76.78299713134764,-19.441999435424805,0.1959999948740005,-12.20199966430664,1.4329999685287476
1621928820046,36.400001525878906,71.08999633789062,-14.972999572753906,0.0780000016093254,-12.119999885559082,1.6469999551773071
1621928820056,37.939998626708984,65.7699966430664,-11.005999565124512,0.0390000008046627,-12.263999938964844,1.781000018119812
1621928820066,36.04999923706055,60.62099838256836,-5.5879998207092285,-0.0780000016093254,-12.57900047302246,1.7649999856948853
1621928820076,31.709999084472656,55.66699981689453,-0.0649999976158142,-0.3140000104904174,-12.758999824523926,1.6540000438690186
1621928820086,27.020000457763672,51.65700149536133,2.924999952316284,-0.5879999995231628,-12.623000144958496,1.5579999685287476
1621928820096,22.75,49.202999114990234,0.7149999737739563,-0.7850000262260437,-12.267999649047852,1.5809999704360962
1621928820106,17.43000030517578,48.62300109863281,-4.861000061035156,-0.7450000047683715,-11.859000205993652,1.2949999570846558
1621928820116,12.25,49.77799987792969,-10.201000213623049,-0.7850000262260437,-11.248000144958496,1.4420000314712524
1621928820126,7.559999942779541,50.96500015258789,-15.322999954223633,-0.6669999957084655,-10.64799976348877,1.4290000200271606
1621928820136,2.380000114440918,52.301998138427734,-20.48900032043457,-0.6280000209808348,-10.286999702453612,1.412999987602234
1621928820146,-1.9600000381469729,54.21200180053711,-24.062000274658203,-0.4709999859333038,-9.840999603271484,1.371999979019165
1621928820156,-4.690000057220459,55.68399810791016,-26.361000061035156,-0.3529999852180481,-9.42099952697754,1.246999979019165
1621928820166,-7.489999771118165,56.67300033569336,-27.53700065612793,-0.1959999948740005,-9.201000213623049,1.1260000467300415
1621928820176,-10.289999961853027,57.32600021362305,-27.208999633789062,-0.1180000007152557,-9.01900005340576,0.9990000128746032
1621928820186,-12.880000114440918,57.72700119018555,-25.858999252319336,0.0,-8.906999588012695,0.8190000057220459
1621928820196,-15.050000190734863,57.42300033569336,-24.135000228881836,0.1570000052452087,-8.88700008392334,0.703000009059906
1621928820206,-16.170000076293945,56.60900115966797,-21.933000564575195,0.2750000059604644,-8.944000244140625,0.5740000009536743
1621928820216,-17.219999313354492,55.30699920654297,-19.391000747680664,0.4309999942779541,-8.937000274658203,0.5350000262260437
1621928820226,-17.43000030517578,53.202999114990234,-15.92300033569336,0.5099999904632568,-8.878000259399414,0.4259999990463256
1621928820236,-17.079999923706055,52.06600189208984,-14.311000823974608,0.5879999995231628,-8.748000144958496,0.3689999878406524
1621928820246,-16.729999542236328,50.92900085449219,-12.699000358581545,0.5879999995231628,-8.717000007629395,0.4149999916553497
1621928820256,-14.840000152587892,48.61000061035156,-9.625,0.5490000247955322,-8.697999954223633,0.537000000476837
1621928820266,-12.390000343322754,47.064998626708984,-6.9120001792907715,0.5099999904632568,-8.65999984741211,0.5440000295639038
1621928820276,-9.520000457763674,45.85300064086914,-5.2779998779296875,0.4709999859333038,-8.782999992370605,0.5619999766349792
1621928820286,-6.440000057220459,44.59600067138672,-3.7939999103546143,0.3919999897480011,-8.873000144958496,0.6259999871253967
1621928820296,-3.7799999713897705,44.207000732421875,-2.7960000038146973,0.3529999852180481,-8.72599983215332,0.6919999718666076
1621928820306,-2.6600000858306885,43.72100067138672,-2.4549999237060547,0.3529999852180481,-8.732000350952148,0.731000006198883
1621928820316,-2.940000057220459,42.520999908447266,-0.8899999856948853,0.3529999852180481,-8.817000389099121,0.7559999823570251
1621928820326,-3.6400001049041744,40.46099853515625,1.5190000534057615,0.3529999852180481,-8.894000053405762,0.7419999837875366
1621928820336,-4.690000057220459,38.345001220703125,3.8469998836517334,0.3140000104904174,-9.12600040435791,0.7009999752044677
1621928820346,-5.110000133514404,35.604000091552734,5.2829999923706055,0.1959999948740005,-9.279999732971191,0.6740000247955322
1621928820356,-6.090000152587891,32.638999938964844,5.9679999351501465,0.1570000052452087,-9.4350004196167,0.6470000147819519
1621928820366,-5.949999809265137,29.46500015258789,8.251999855041504,0.1570000052452087,-9.4350004196167,0.6470000147819519
1621928820376,-6.929999828338623,25.733999252319336,10.86400032043457,0.1180000007152557,-9.413999557495115,0.531000018119812
1621928820386,-8.890000343322754,22.45400047302246,13.342000007629396,0.0780000016093254,-9.55500030517578,0.4259999990463256
1621928820396,-9.869999885559082,20.094999313354492,14.631999969482422,0.0,-9.720999717712402,0.2380000054836273
1621928820406,-12.039999961853027,18.41200065612793,14.904000282287598,0.0,-9.854999542236328,0.0949999988079071
1621928820416,-14.699999809265137,17.009000778198242,14.79800033569336,0.0,-10.336999893188477,-0.1099999994039535
1621928820426,-15.960000038146973,16.753000259399414,13.82900047302246,0.0,-10.895999908447266,-0.328000009059906
1621928820436,-14.420000076293944,16.160999298095703,10.73900032043457,0.0390000008046627,-11.01200008392334,-0.3479999899864196
1621928820446,-12.529999732971191,15.986000061035156,6.0879998207092285,0.0780000016093254,-10.612000465393066,-0.3580000102519989
1621928820456,-11.760000228881836,15.10099983215332,3.444999933242798,0.1959999948740005,-10.232000350952148,-0.2509999871253967
1621928820466,-9.59000015258789,14.074999809265137,2.4110000133514404,0.3140000104904174,-9.904999732971191,-0.0740000009536743
1621928820476,-8.050000190734863,12.50100040435791,-0.3549999892711639,0.3919999897480011,-9.357000350952148,-0.0170000009238719
1621928820486,-6.860000133514404,11.633500099182127,-1.680500030517578,0.4709999859333038,-8.835000038146973,-0.0439999997615814
1621928820496,-5.670000076293945,10.765999794006348,-3.00600004196167,0.6280000209808348,-8.57800006866455,0.0810000002384185
1621928820506,-3.569999933242798,8.373000144958496,-3.1440000534057617,0.7450000047683715,-8.50100040435791,0.0939999967813491
1621928820516,-1.6100000143051147,5.9730000495910645,-2.430000066757202,0.7450000047683715,-8.545999526977539,0.1260000020265579
1621928820526,-0.4199999868869781,3.7790000438690186,-2.888000011444092,0.6669999957084655,-8.732999801635742,0.0529999993741512
1621928820536,-0.2800000011920929,2.765000104904175,-3.990000009536743,0.5879999995231628,-8.932999610900879,0.0579999983310699
1621928820546,-0.699999988079071,2.696000099182129,-5.210999965667725,0.6280000209808348,-9.279999732971191,-0.003000000026077
1621928820556,-1.4700000286102295,3.628000020980835,-6.4679999351501465,0.6280000209808348,-9.647999763488768,0.0509999990463256
1621928820566,-2.6600000858306885,4.178999900817871,-8.788000106811523,0.6280000209808348,-9.901000022888184,0.1260000020265579
1621928820576,-3.6400001049041744,4.986000061035156,-12.55500030517578,0.7850000262260437,-10.086999893188477,0.0540000014007091
1621928820586,-4.760000228881836,5.419000148773193,-15.819000244140623,0.8629999756813049,-10.293999671936035,0.0970000028610229
1621928820596,-5.389999866485596,5.061999797821045,-18.22800064086914,1.0199999809265137,-10.409999847412108,0.0759999975562095
1621928820606,-5.599999904632568,5.184000015258789,-20.125999450683594,1.1380000114440918,-10.416000366210936,0.1150000020861625
1621928820616,-4.269999980926514,4.611999988555908,-20.51099967956543,1.1770000457763672,-10.352999687194824,0.2060000002384185
1621928820626,-2.869999885559082,4.007999897003174,-18.697999954223633,1.1770000457763672,-10.237000465393066,0.2259999960660934
1621928820636,-1.2599999904632568,3.3959999084472656,-14.826000213623049,1.215999960899353,-10.095999717712402,0.3310000002384185
1621928820646,0.209999993443489,3.3919999599456787,-11.982999801635742,1.1770000457763672,-10.024999618530272,0.3829999864101409
1621928820656,1.3300000429153442,2.7070000171661377,-10.11400032043457,1.0980000495910645,-9.83899974822998,0.4560000002384185
1621928820666,1.9600000381469729,3.0160000324249268,-8.637999534606934,1.0199999809265137,-9.6850004196167,0.4830000102519989
1621928820676,2.309999942779541,3.6809999942779545,-5.960999965667725,0.981000006198883,-9.562000274658203,0.4650000035762786
1621928820686,2.1700000762939453,4.191999912261963,-4.0229997634887695,0.8240000009536743,-9.484999656677246,0.4790000021457672
1621928820696,1.75,4.420000076293945,-2.490000009536743,0.8240000009536743,-9.543999671936035,0.5879999995231628
1621928820706,1.5049999952316284,4.760499954223633,-2.003499984741211,0.7850000262260437,-9.543999671936035,0.5879999995231628
1621928820716,1.2599999904632568,5.10099983215332,-1.5169999599456787,0.7059999704360961,-9.576000213623049,0.5419999957084655
1621928820726,0.1400000005960464,6.123000144958496,-1.2660000324249268,0.6669999957084655,-9.645999908447264,0.4900000095367431
1621928820736,-1.1200000047683716,7.51800012588501,-1.5180000066757202,0.6669999957084655,-9.715999603271484,0.4379999935626983
1621928820746,-1.9600000381469729,8.402000427246094,-1.2910000085830688,0.6669999957084655,-9.748000144958496,0.3919999897480011
1621928820756,-2.6600000858306885,9.4399995803833,-1.534000039100647,0.6280000209808348,-9.786999702453612,0.3849999904632568
1621928820766,-2.6600000858306885,10.510000228881836,-2.7669999599456787,0.6669999957084655,-9.871000289916992,0.4099999964237213
1621928820776,-3.2899999618530273,11.321000099182127,-4.543000221252441,0.7450000047683715,-9.902999877929688,0.3650000095367431
1621928820786,-3.7100000381469727,11.421999931335447,-5.519999980926514,0.7850000262260437,-9.9350004196167,0.3199999928474426
1621928820796,-3.7799999713897705,11.394000053405762,-4.956999778747559,0.8240000009536743,-9.9350004196167,0.3199999928474426
1621928820806,-3.9200000762939458,11.482999801635742,-4.6570000648498535,0.8629999756813049,-9.895999908447264,0.3260000050067901
1621928820816,-3.990000009536743,11.017000198364258,-5.236999988555908,0.8629999756813049,-9.812000274658203,0.3009999990463256
1621928820826,-3.2899999618530273,10.550000190734863,-4.607999801635742,0.9020000100135804,-9.812000274658203,0.3009999990463256
1621928820836,-3.009999990463257,9.736000061035156,-3.614000082015991,0.8240000009536743,-9.79800033569336,0.2240000069141387
1621928820846,-2.799999952316284,8.940999984741211,-3.5409998893737793,0.7450000047683715,-9.80500030517578,0.2630000114440918
1621928820856,-2.5199999809265137,9.237000465393066,-4.413000106811523,0.6280000209808348,-9.760000228881836,0.231000006198883
1621928820866,-2.309999942779541,9.763999938964846,-4.177999973297119,0.5879999995231628,-9.791000366210936,0.1850000023841857
1621928820876,-2.1700000762939453,10.35200023651123,-3.0789999961853027,0.4709999859333038,-9.79800033569336,0.2240000069141387
1621928820886,-2.1700000762939453,11.166999816894531,-2.864000082015991,0.4309999942779541,-9.791000366210936,0.1850000023841857
1621928820896,-2.0999999046325684,11.791000366210938,-3.180999994277954,0.3919999897480011,-9.720999717712402,0.2380000054836273
1621928820906,-2.1700000762939453,13.027999877929688,-3.744999885559082,0.3140000104904174,-9.720999717712402,0.2380000054836273
1621928820916,-1.7850000858306885,14.153499603271484,-4.079500198364258,0.3140000104904174,-9.76599979400635,0.2689999938011169
1621928820926,-1.399999976158142,15.279000282287598,-4.414000034332275,0.2750000059604644,-9.727999687194824,0.2759999930858612
1621928820936,-1.0499999523162842,17.01799964904785,-5.813000202178955,0.3140000104904174,-9.689000129699709,0.2829999923706054
1621928820946,-0.6299999952316284,18.32799911499023,-6.790999889373779,0.3919999897480011,-9.612000465393066,0.2969999909400939
1621928820956,-0.3499999940395355,19.540000915527344,-7.217000007629395,0.4709999859333038,-9.64400005340576,0.2509999871253967
1621928820966,-0.3499999940395355,19.98200035095215,-7.706999778747559,0.5879999995231628,-9.682000160217283,0.2440000027418136
1621928820976,-0.5600000023841857,19.482999801635746,-8.505999565124512,0.6669999957084655,-9.720999717712402,0.2380000054836273
1621928820986,-0.699999988079071,18.82200050354004,-9.190999984741213,0.8240000009536743,-9.682000160217283,0.2440000027418136
1621928820996,-0.7699999809265136,17.496000289916992,-10.13599967956543,0.8629999756813049,-9.682000160217283,0.2440000027418136
1621928821006,-0.7699999809265136,16.327999114990234,-10.767999649047852,0.9020000100135804,-9.675999641418455,0.2060000002384185
1621928821016,-0.699999988079071,14.973999977111816,-11.14900016784668,0.981000006198883,-9.637000083923342,0.2129999995231628
1621928821025,-0.6299999952316284,13.420000076293944,-11.210000038146973,1.0199999809265137,-9.630000114440918,0.1739999949932098
1621928821035,-0.3499999940395355,11.789999961853027,-10.430999755859377,1.0199999809265137,-9.623000144958496,0.135000005364418
1621928821045,0.209999993443489,9.84000015258789,-9.85099983215332,1.0199999809265137,-9.616999626159668,0.0970000028610229
1621928821055,0.1400000005960464,8.097000122070312,-9.234000205993652,0.981000006198883,-9.647999763488768,0.0509999990463256
1621928821065,0.2800000011920929,7.252999782562256,-8.885000228881836,0.9409999847412108,-9.687000274658203,0.0450000017881393
1621928821075,0.2800000011920929,6.093999862670898,-7.953000068664551,0.8240000009536743,-9.770999908447264,0.0700000002980232
1621928821085,-0.1400000005960464,5.857999801635742,-7.426000118255616,0.8240000009536743,-9.847999572753906,0.0560000017285346
1621928821095,-0.4199999868869781,5.86299991607666,-6.64300012588501,0.7450000047683715,-9.803000450134276,0.0240000002086162
1621928821105,-0.5600000023841857,5.49399995803833,-6.565999984741211,0.7450000047683715,-9.777999877929688,0.1080000028014183
1621928821115,-0.3499999940395355,5.425000190734863,-6.578000068664551,0.7059999704360961,-9.701000213623049,0.1220000013709068
1621928821125,-0.1400000005960464,5.515999794006348,-6.491000175476074,0.7850000262260437,-9.637000083923342,0.2129999995231628
1621928821135,0.0700000002980232,5.60699987411499,-6.4039998054504395,0.8240000009536743,-9.71399974822998,0.1990000009536743
1621928821145,0.2800000011920929,5.107999801635742,-5.99399995803833,0.8629999756813049,-9.682000160217283,0.2440000027418136
1621928821155,0.9800000190734864,4.086999893188477,-5.0370001792907715,0.9020000100135804,-9.71399974822998,0.1990000009536743
1621928821165,0.9800000190734864,3.4830000400543213,-3.2239999771118164,0.9409999847412108,-9.791000366210936,0.1850000023841857
1621928821175,0.0700000002980232,2.4210000038146973,-0.4259999990463256,0.981000006198883,-9.862000465393066,0.1330000013113021
1621928821185,-1.190000057220459,1.11899995803833,0.9079999923706054,0.9020000100135804,-9.701000213623049,0.1220000013709068
1621928821195,-1.6100000143051147,-0.2759999930858612,1.1599999666213987,0.981000006198883,-9.701000213623049,0.1220000013709068
1621928821205,-1.75,-1.2690000534057615,1.5529999732971191,0.9409999847412108,-9.71399974822998,0.1990000009536743
1621928821215,-1.9600000381469729,-1.991000056266785,1.2130000591278076,0.9020000100135804,-9.71399974822998,0.1990000009536743
1621928821225,-1.6100000143051147,-2.586999893188477,0.9649999737739564,0.7450000047683715,-9.829999923706056,0.1790000051259994
1621928821235,-1.4700000286102295,-2.5950000286102295,0.609000027179718,0.6669999957084655,-9.78499984741211,0.1469999998807907
1621928821245,-1.3300000429153442,-2.9149999618530273,0.4099999964237213,0.6280000209808348,-9.822999954223633,0.1400000005960464
1621928821255,-1.8200000524520872,-2.700999975204468,0.8029999732971191,0.5879999995231628,-9.89400005340576,0.0879999995231628
1621928821265,-2.0999999046325684,-2.586999893188477,0.9649999737739564,0.5879999995231628,-9.906999588012695,0.1650000065565109
1621928821275,-2.7300000190734863,-2.680000066757202,-0.1169999986886978,0.5879999995231628,-9.939000129699709,0.1199999973177909
1621928821285,-3.569999933242798,-3.174999952316284,-0.1330000013113021,0.5879999995231628,-10.015999794006348,0.1059999987483024
1621928821295,-4.480000019073486,-4.189000129699707,-0.0280000008642673,0.6280000209808348,-10.02299976348877,0.1449999958276748
1621928821305,-5.949999809265137,-5.311999797821045,0.6980000138282775,0.6669999957084655,-10.069000244140623,0.1759999990463256
1621928821315,-7.420000076293945,-7.019000053405762,1.1080000400543213,0.6669999957084655,-10.05500030517578,0.0989999994635581
1621928821325,-8.085000038146973,-7.769000053405762,1.3310000896453855,0.6669999957084655,-10.015999794006348,0.1059999987483024
1621928821335,-8.75,-8.519000053405762,1.5540000200271606,0.7059999704360961,-9.89400005340576,0.0879999995231628
1621928821345,-9.65999984741211,-10.550999641418455,3.4000000953674316,0.6280000209808348,-9.8100004196167,0.0630000010132789
1621928821355,-9.800000190734863,-12.071000099182127,4.765999794006348,0.5490000247955322,-9.72599983215332,0.0379999987781047
1621928821365,-9.59000015258789,-13.324000358581545,5.824999809265137,0.4709999859333038,-9.687000274658203,0.0450000017881393
1621928821375,-9.3100004196167,-14.661999702453612,6.1579999923706055,0.5099999904632568,-9.697999954223633,-0.1169999986886978
1621928821385,-8.539999961853027,-15.574000358581545,5.285999774932861,0.5099999904632568,-9.704999923706056,-0.0780000016093254
1621928821395,-8.119999885559082,-17.39900016784668,3.5420000553131104,0.5879999995231628,-9.697999954223633,-0.1169999986886978
1621928821405,-8.119999885559082,-20.180999755859375,1.9859999418258667,0.5879999995231628,-9.744000434875488,-0.0850000008940696
1621928821415,-9.029999732971191,-23.51499938964844,1.5399999618530271,0.5490000247955322,-9.729999542236328,-0.1620000004768371
1621928821425,-9.869999885559082,-26.260000228881836,0.9850000143051147,0.5490000247955322,-9.76900005340576,-0.1689999997615814
1621928821435,-10.710000038146973,-29.746999740600582,1.0099999904632568,0.5099999904632568,-9.697999954223633,-0.1169999986886978
1621928821445,-11.270000457763672,-33.4370002746582,0.5720000267028807,0.4709999859333038,-9.628000259399414,-0.0649999976158142
1621928821455,-11.199999809265137,-35.915000915527344,-0.2910000085830688,0.3529999852180481,-9.51900005340576,-0.0049999998882412
1621928821465,-10.5,-36.9370002746582,-1.7510000467300415,0.1959999948740005,-9.479999542236328,0.0010000000474974
1621928821475,-9.449999809265137,-36.70600128173828,-4.269000053405762,0.0780000016093254,-9.447999954223633,0.0469999983906745
1621928821485,-8.1899995803833,-35.972999572753906,-7.622000217437744,0.0780000016093254,-9.557000160217283,-0.0120000001043081
1621928821495,-8.119999885559082,-34.808998107910156,-10.189000129699709,0.1180000007152557,-9.647999763488768,0.0509999990463256
1621928821505,-8.329999923706055,-33.650001525878906,-12.331000328063965,0.1180000007152557,-9.68000030517578,0.006000000052154
1621928821515,-8.329999923706055,-33.05799865722656,-14.074000358581545,0.1959999948740005,-9.694000244140623,0.0829999968409538
1621928821525,-8.469999313354492,-32.60199737548828,-14.24250030517578,0.1959999948740005,-9.687000274658203,0.0450000017881393
1621928821535,-8.609999656677246,-32.145999908447266,-14.41100025177002,0.1959999948740005,-9.687000274658203,0.0450000017881393
1621928821545,-9.100000381469728,-31.03499984741211,-13.859999656677246,0.2349999994039535,-9.571000099182127,0.0649999976158142
1621928821555,-8.539999961853027,-30.38599967956543,-13.105999946594238,0.3140000104904174,-9.40999984741211,0.0540000014007091
1621928821565,-7.559999942779541,-29.566999435424805,-12.107999801635742,0.3919999897480011,-9.300999641418455,0.1129999980330467
1621928821575,-6.440000057220459,-28.531999588012695,-10.717000007629396,0.4709999859333038,-9.217000007629396,0.0879999995231628
1621928821585,-5.320000171661377,-27.77400016784668,-9.375,0.5879999995231628,-9.222999572753906,0.1260000020265579
1621928821595,-4.690000057220459,-27.156999588012695,-7.631999969482423,0.6669999957084655,-9.255000114440918,0.0810000002384185
1621928821605,-4.199999809265137,-26.917999267578125,-6.168000221252441,0.7850000262260437,-9.286999702453612,0.0350000001490116
1621928821615,-4.619999885559082,-25.961000442504883,-5.145999908447266,0.7850000262260437,-9.395999908447264,-0.0240000002086162
1621928821625,-5.320000171661377,-25.20599937438965,-4.586999893188477,0.8240000009536743,-9.44200038909912,0.0080000003799796
1621928821635,-6.230000019073486,-24.423999786376953,-4.591000080108643,0.8240000009536743,-9.557000160217283,-0.0120000001043081
1621928821645,-7.559999942779541,-24.32200050354004,-4.360000133514404,0.9020000100135804,-9.58199977874756,-0.096000000834465
1621928821655,-8.470000267028809,-23.856000900268555,-3.7799999713897705,0.9409999847412108,-9.697999954223633,-0.1169999986886978
1621928821665,-10.010000228881836,-23.13800048828125,-3.013999938964844,0.9409999847412108,-9.878000259399414,-0.2280000001192092
1621928821675,-10.850000381469728,-22.95599937438965,-2.8389999866485596,0.9409999847412108,-9.987000465393066,-0.2870000004768371
1621928821685,-10.640000343322754,-22.695999145507812,-3.503999948501587,0.9409999847412108,-10.057000160217283,-0.3389999866485595
1621928821695,-10.850000381469728,-22.45299911499023,-3.674999952316284,1.0590000152587893,-10.159999847412108,-0.4370000064373016
1621928821705,-10.640000343322754,-21.572999954223633,-4.230000019073486,1.0199999809265137,-10.300999641418455,-0.5419999957084655
1621928821715,-10.325000762939451,-20.87350082397461,-4.569000244140625,1.0199999809265137,-10.33199977874756,-0.5870000123977661
1621928821725,-10.010000228881836,-20.173999786376953,-4.9079999923706055,1.0199999809265137,-10.35099983215332,-0.7099999785423278
1621928821735,-9.449999809265137,-18.179000854492188,-6.546000003814697,0.981000006198883,-10.336999893188477,-0.787000000476837
1621928821745,-8.75,-16.562000274658203,-7.256000041961671,0.981000006198883,-10.253000259399414,-0.8119999766349792
1621928821755,-7.980000019073486,-14.895000457763672,-7.0329999923706055,0.9409999847412108,-10.130000114440918,-0.8299999833106994
1621928821765,-7.699999809265136,-12.644000053405762,-6.49399995803833,0.9020000100135804,-10.085000038146973,-0.8619999885559082
1621928821775,-7.0,-10.640999794006348,-5.359000205993652,0.8240000009536743,-9.968999862670898,-0.8420000076293945
1621928821785,-5.880000114440918,-8.329999923706055,-3.9570000171661377,0.7850000262260437,-9.845999717712402,-0.8600000143051147
1621928821795,-5.039999961853027,-6.317999839782715,-2.4649999141693115,0.7059999704360961,-9.593999862670898,-0.9350000023841856
1621928821805,-3.2899999618530273,-4.861999988555908,-0.6439999938011169,0.6669999957084655,-9.401000022888184,-0.9010000228881836
1621928821815,-1.5399999618530271,-3.7260000705718994,0.977999985218048,0.5490000247955322,-9.253000259399414,-0.8349999785423278
1621928821825,0.9800000190734864,-2.2909998893737793,2.509999990463257,0.4709999859333038,-9.208000183105469,-0.8669999837875366
1621928821835,3.359999895095825,-1.0499999523162842,3.937999963760376,0.4709999859333038,-9.116999626159668,-0.9300000071525572
1621928821845,5.809999942779541,0.4629999995231628,4.63100004196167,0.4309999942779541,-9.109999656677246,-0.968999981880188
1621928821855,8.329999923706055,1.4320000410079956,5.584000110626221,0.4709999859333038,-9.064000129699709,-1.0010000467300415
1621928821865,10.5,2.5510001182556152,6.492000102996826,0.5099999904632568,-9.032999992370604,-0.9549999833106994
1621928821875,13.020000457763672,3.1029999256134033,6.589000225067139,0.4709999859333038,-9.116999626159668,-0.9300000071525572
1621928821885,14.210000038146973,3.3499999046325684,7.201000213623047,0.5099999904632568,-9.23900032043457,-0.9120000004768372
1621928821895,14.979999542236328,2.937000036239624,8.336999893188477,0.5099999904632568,-9.28499984741211,-0.8799999952316284
1621928821905,15.470000267028809,2.3940000534057617,9.80500030517578,0.4309999942779541,-9.45300006866455,-0.8299999833106994
1621928821915,15.539999961853027,2.2905001640319824,10.391000747680664,0.3529999852180481,-9.583000183105469,-0.7739999890327453
1621928821925,15.609999656677246,2.187000036239624,10.97700023651123,0.2750000059604644,-9.666999816894531,-0.7490000128746032
1621928821935,14.979999542236328,2.2160000801086426,11.621000289916992,0.2750000059604644,-9.694000244140623,-0.5939999818801879
1621928821945,14.210000038146973,2.990000009536743,11.260000228881836,0.2349999994039535,-9.694000244140623,-0.5939999818801879
1621928821955,13.579999923706056,4.511000156402588,9.89400005340576,0.1959999948740005,-9.73900032043457,-0.5619999766349792
1621928821965,12.8100004196167,5.673999786376953,7.327000141143799,0.2750000059604644,-9.791999816894531,-0.492000013589859
1621928821975,12.600000381469728,7.039999961853027,4.013000011444092,0.2750000059604644,-9.791999816894531,-0.492000013589859
1621928821985,12.949999809265137,8.305000305175781,0.4690000116825103,0.2750000059604644,-9.760000228881836,-0.4460000097751617
1621928821995,13.93000030517578,9.345999717712402,-2.6170001029968266,0.3140000104904174,-9.779999732971191,-0.3300000131130218
1621928822005,14.909999847412108,10.517999649047852,-4.827000141143799,0.3529999852180481,-9.663999557495115,-0.3100000023841857
1621928822015,16.520000457763672,11.142000198364258,-6.3520002365112305,0.3529999852180481,-9.529999732971191,-0.1669999957084655
1621928822025,17.639999389648438,11.807000160217283,-7.301000118255616,0.3529999852180481,-9.498000144958496,-0.1209999993443489
1621928822033,,,,,,
1621928822035,18.200000762939453,12.36299991607666,-7.629000186920166,0.3529999852180481,-9.428000450134276,-0.0689999982714653
1621928822045,18.549999237060547,13.088000297546388,-7.71400022506714,0.3529999852180481,-9.428000450134276,-0.0689999982714653
1621928822055,18.969999313354492,13.821999549865724,-7.442999839782715,0.3140000104904174,-9.479999542236328,0.0010000000474974
1621928822065,18.969999313354492,14.29300022125244,-7.289000034332275,0.3140000104904174,-9.557000160217283,-0.0120000001043081
1621928822075,18.899999618530273,14.503999710083008,-6.46999979019165,0.3529999852180481,-9.557000160217283,-0.0120000001043081
1621928822085,18.969999313354492,14.357999801635742,-5.642000198364258,0.2750000059604644,-9.602999687194824,0.0199999995529651
1621928822095,18.200000762939453,13.777999877929688,-5.176000118255615,0.3140000104904174,-9.840999603271484,0.0170000009238719
1621928822105,17.780000686645508,12.809000015258787,-4.920000076293945,0.3919999897480011,-10.010000228881836,0.06700000166893
1621928822115,17.744998931884766,12.145999908447266,-4.78849983215332,0.3919999897480011,-10.05500030517578,0.0989999994635581
1621928822125,17.709999084472656,11.482999801635742,-4.6570000648498535,0.4309999942779541,-10.107000350952148,0.1700000017881393
1621928822135,17.360000610351562,10.55799961090088,-5.459000110626221,0.3529999852180481,-10.095999717712402,0.3310000002384185
1621928822145,16.729999542236328,9.621999740600586,-6.192999839782715,0.2750000059604644,-9.954999923706056,0.4350000023841857
1621928822155,16.170000076293945,9.163000106811523,-7.625,0.1959999948740005,-9.885000228881836,0.4880000054836273
1621928822165,16.3799991607666,9.220000267028809,-9.960000038146973,0.1570000052452087,-9.859999656677246,0.5720000267028807
1621928822175,16.520000457763672,10.090999603271484,-12.081000328063965,0.1570000052452087,-9.866000175476074,0.6100000143051147
1621928822185,16.3799991607666,11.161999702453612,-13.314000129699709,0.1180000007152557,-9.918999671936035,0.6809999942779541
1621928822195,16.3799991607666,11.741000175476074,-13.779999732971191,0.1180000007152557,-9.932000160217283,0.7580000162124633
1621928822205,16.239999771118164,12.00100040435791,-13.237000465393066,0.1570000052452087,-9.970999717712402,0.7509999871253967
1621928822215,16.170000076293945,12.147000312805176,-11.64799976348877,0.1570000052452087,-9.991000175476074,0.8669999837875366
1621928822225,15.81999969482422,11.161999702453612,-9.689000129699709,0.1180000007152557,-9.95300006866455,0.8740000128746032
1621928822235,15.960000038146973,10.3149995803833,-7.705999851226807,0.0390000008046627,-9.95300006866455,0.8740000128746032
1621928822245,16.3799991607666,9.135000228881836,-5.853000164031982,0.0390000008046627,-9.928000450134276,0.9580000042915344
1621928822255,17.079999923706055,8.218999862670898,-5.090000152587891,0.0,-9.9350004196167,0.996999979019165
1621928822265,17.709999084472656,7.124000072479248,-4.927999973297119,-0.0390000008046627,-9.994000434875488,1.1059999465942385
1621928822275,17.989999771118164,6.735000133514404,-5.138999938964844,-0.0390000008046627,-9.994000434875488,1.1059999465942385
1621928822285,17.989999771118164,5.86299991607666,-5.434999942779541,-0.0390000008046627,-9.968999862670898,1.190000057220459
1621928822295,17.920000076293945,6.190999984741211,-6.086999893188477,-0.0390000008046627,-9.897999763488768,1.2419999837875366
1621928822305,17.43000030517578,5.699999809265137,-6.5289998054504395,-0.0390000008046627,-9.821000099182127,1.25600004196167
1621928822315,17.325000762939453,5.511499881744385,-6.668999671936035,-0.0390000008046627,-9.67300033569336,1.3220000267028809
1621928822325,17.219999313354492,5.322999954223633,-6.809000015258789,-0.0780000016093254,-9.628000259399414,1.2899999618530271
1621928822335,16.520000457763672,4.480000019073486,-7.669000148773193,-0.0780000016093254,-9.550000190734863,1.3029999732971191
1621928822345,15.890000343322754,3.7699999809265137,-8.07800006866455,-0.1180000007152557,-9.487000465393066,1.3940000534057615
1621928822355,15.260000228881836,3.571000099182129,-8.965999603271484,-0.0780000016093254,-9.416000366210936,1.4470000267028809
1621928822365,14.840000152587892,2.869999885559082,-10.22700023651123,-0.1180000007152557,-9.33899974822998,1.4600000381469729
1621928822375,14.350000381469728,2.9830000400543213,-11.27299976348877,-0.0780000016093254,-9.33199977874756,1.4220000505447388
1621928822385,13.579999923706056,3.2790000438690186,-12.145000457763672,-0.1180000007152557,-9.416000366210936,1.4470000267028809
1621928822395,12.739999771118164,2.812000036239624,-12.725000381469728,-0.1180000007152557,-9.40999984741211,1.4079999923706057
1621928822405,11.829999923706056,2.38700008392334,-12.729000091552734,-0.1570000052452087,-9.487000465393066,1.3940000534057615
1621928822415,10.56999969482422,1.7910000085830688,-11.767999649047852,-0.2349999994039535,-9.571000099182127,1.4190000295639038
1621928822425,9.239999771118164,1.6200000047683716,-10.803000450134276,-0.2750000059604644,-9.654999732971191,1.444000005722046
1621928822435,7.699999809265136,1.4579999446868896,-10.689000129699709,-0.3140000104904174,-9.590999603271484,1.5349999666213987
1621928822445,6.510000228881836,1.491000056266785,-10.470000267028809,-0.3140000104904174,-9.696000099182127,1.6759999990463257
1621928822455,5.599999904632568,1.133999943733215,-9.253999710083008,-0.3140000104904174,-9.715999603271484,1.7920000553131104
1621928822465,5.179999828338623,0.9399999976158142,-6.941999912261963,-0.3919999897480011,-9.75699996948242,2.0239999294281006
1621928822475,4.96999979019165,0.7009999752044677,-4.781000137329102,-0.4309999942779541,-9.725000381469728,2.069000005722046
1621928822485,4.619999885559082,0.847000002861023,-4.400000095367432,-0.4709999859333038,-9.70699977874756,2.191999912261963
1621928822495,3.7100000381469727,0.7860000133514404,-5.263000011444092,-0.4709999859333038,-9.720999717712402,2.2690000534057617
1621928822505,3.6400001049041744,1.2400000095367432,-5.822999954223633,-0.5099999904632568,-9.71399974822998,2.2309999465942383
1621928822515,3.5350000858306885,1.2685000896453855,-5.782500267028809,-0.5099999904632568,-9.720999717712402,2.2690000534057617
1621928822525,3.430000066757202,1.2970000505447388,-5.742000102996826,-0.5490000247955322,-9.791000366210936,2.2170000076293945
1621928822535,3.569999933242798,1.569000005722046,-5.26800012588501,-0.5879999995231628,-9.829999923706056,2.2100000381469727
1621928822545,3.7100000381469727,1.7549999952316284,-4.310999870300293,-0.5879999995231628,-9.843000411987305,2.2869999408721924
1621928822555,3.9200000762939458,2.2950000762939453,-4.144999980926514,-0.5879999995231628,-9.895999908447264,2.3580000400543213
1621928822565,4.480000019073486,2.3389999866485596,-3.9939999580383305,-0.6669999957084655,-9.812000274658203,2.3329999446868896
1621928822575,4.829999923706055,2.7929999828338623,-4.553999900817871,-0.7059999704360961,-9.734000205993652,2.3459999561309814
1621928822585,5.460000038146973,3.319999933242798,-5.5269999504089355,-0.7059999704360961,-9.741000175476074,2.384999990463257
1621928822595,6.019999980926514,4.484000205993652,-6.886000156402588,-0.7450000047683715,-9.812000274658203,2.3329999446868896
1621928822605,6.369999885559082,5.571000099182129,-7.405000209808349,-0.7450000047683715,-9.888999938964846,2.319000005722046
1621928822615,6.579999923706055,6.385000228881836,-8.39900016784668,-0.7450000047683715,-9.857000350952148,2.365000009536743
1621928822625,6.090000152587891,7.01800012588501,-8.357999801635742,-0.6669999957084655,-9.850000381469728,2.325999975204468
1621928822635,5.670000076293945,7.655000209808349,-8.744000434875488,-0.6669999957084655,-9.80500030517578,2.2939999103546143
1621928822645,4.619999885559082,8.404999732971191,-8.967000007629395,-0.7450000047683715,-9.76599979400635,2.3010001182556152
1621928822655,3.430000066757202,8.737000465393066,-8.836999893188477,-0.7450000047683715,-9.76599979400635,2.3010001182556152
1621928822665,2.0299999713897705,9.215999603271484,-8.326000213623047,-0.7059999704360961,-9.758999824523924,2.26200008392334
1621928822675,0.7699999809265136,9.633999824523924,-7.47100019454956,-0.7450000047683715,-9.71399974822998,2.2309999465942383
1621928822685,-1.1200000047683716,10.553999900817873,-7.449999809265136,-0.7450000047683715,-9.862000465393066,2.1649999618530273
1621928822694,-3.6400001049041744,11.157999992370604,-6.8460001945495605,-0.7450000047683715,-9.862000465393066,2.1649999618530273
1621928822704,-5.039999961853027,11.795000076293944,-7.23199987411499,-0.7850000262260437,-9.763999938964846,2.062000036239624
1621928822714,-6.650000095367432,11.916999816894531,-7.921000003814697,-0.7850000262260437,-9.770999908447264,2.1010000705718994
1621928822724,-7.630000114440918,12.20400047302246,-7.940999984741211,-0.7850000262260437,-9.718000411987305,2.0309998989105225
1621928822734,-7.980000019073486,12.342000007629396,-7.916999816894531,-0.8629999756813049,-9.524999618530272,2.065000057220459
1621928822744,-8.329999923706055,12.479999542236328,-7.89300012588501,-0.9020000100135804,-9.279999732971191,2.0280001163482666
1621928822754,-8.539999961853027,12.967000007629396,-8.232999801635742,-0.8629999756813049,-9.38199996948242,1.930999994277954
1621928822764,-10.289999961853027,13.972000122070312,-8.696000099182129,-0.7850000262260437,-9.737000465393066,1.9079999923706057
1621928822774,-11.619999885559082,14.211999893188477,-7.23199987411499,-0.7450000047683715,-9.814000129699709,1.8940000534057615
1621928822784,-12.8100004196167,13.031999588012695,-4.170000076293945,-0.7850000262260437,-9.600000381469728,1.812000036239624
1621928822794,-12.949999809265137,10.777999877929688,-3.075000047683716,-0.7059999704360961,-9.432000160217283,1.7619999647140503
1621928822804,-13.020000457763672,9.211999893188477,-4.275000095367432,-0.6280000209808348,-9.387000083923342,1.7309999465942385
1621928822814,-12.949999809265137,8.303999900817871,-5.572999954223633,-0.5490000247955322,-9.373000144958496,1.6529999971389773
1621928822824,-12.600000381469728,6.742000102996826,-7.198999881744385,-0.4709999859333038,-9.39099979400635,1.531000018119812
1621928822834,-12.739999771118164,4.442999839782715,-8.670000076293945,-0.3919999897480011,-9.416000366210936,1.4470000267028809
1621928822844,-12.390000343322754,1.8519999980926511,-8.487000465393066,-0.3919999897480011,-9.279999732971191,1.35099995136261
1621928822854,-11.479999542236328,-0.3339999914169311,-8.588000297546387,-0.4309999942779541,-9.26599979400635,1.27400004863739
1621928822864,-10.850000381469728,-2.4100000858306885,-9.3100004196167,-0.4309999942779541,-9.20699977874756,1.1649999618530271
1621928822874,-10.079999923706056,-3.4600000381469727,-10.206000328063965,-0.4309999942779541,-9.128000259399414,0.9399999976158142
1621928822884,-9.3100004196167,-5.078000068664551,-10.70400047302246,-0.3919999897480011,-9.069000244140623,0.8309999704360961
1621928822894,-8.819999694824219,-6.935999870300293,-11.458000183105469,-0.3140000104904174,-8.984999656677246,0.8059999942779541
1621928822904,-8.539999961853027,-8.90999984741211,-11.949000358581545,-0.3919999897480011,-8.847999572753906,0.7099999785423278
1621928822914,-8.050000190734863,-11.210000038146973,-11.003999710083008,-0.4309999942779541,-8.666999816894531,0.5830000042915344
1621928822924,-8.119999885559082,-13.46399974822998,-9.909000396728516,-0.4309999942779541,-8.543999671936035,0.5649999976158142
1621928822934,-7.980000019073486,-15.439000129699709,-9.190999984741213,-0.4709999859333038,-8.413999557495117,0.5080000162124633
1621928822944,-7.420000076293945,-16.51300048828125,-8.739999771118164,-0.4309999942779541,-8.324000358581543,0.4440000057220459
1621928822954,-6.579999923706055,-16.801000595092773,-8.720000267028809,-0.3529999852180481,-8.277999877929688,0.4120000004768371
1621928822964,-6.230000019073486,-16.74850082397461,-8.817500114440918,-0.2349999994039535,-8.232999801635742,0.3810000121593475
1621928822974,-5.880000114440918,-16.695999145507812,-8.914999961853027,-0.1180000007152557,-8.194000244140625,0.3869999945163726
1621928822984,-4.619999885559082,-16.972000122070312,-10.171999931335447,0.0390000008046627,-8.085000038146973,0.4469999969005584
1621928822994,-3.569999933242798,-18.50900077819824,-11.9350004196167,0.1570000052452087,-8.008000373840332,0.4600000083446502
1621928823004,-3.0799999237060547,-20.68600082397461,-12.887999534606934,0.1570000052452087,-8.092000007629395,0.4850000143051147
1621928823014,-2.450000047683716,-22.465999603271484,-13.27299976348877,0.1570000052452087,-8.220999717712402,0.5419999957084655
1621928823024,-2.309999942779541,-23.816999435424805,-14.079999923706056,0.1959999948740005,-8.324000358581543,0.4440000057220459
1621928823034,-1.6799999475479126,-24.356000900268555,-14.246000289916992,0.2349999994039535,-8.550999641418457,0.6029999852180481
1621928823040,,,,,,
1621928823044,-0.4900000095367431,-23.844999313354492,-14.723999977111816,0.3919999897480011,-8.72599983215332,0.6919999718666076
1621928823054,1.3300000429153442,-22.836000442504883,-16.820999145507812,0.5490000247955322,-8.906999588012695,0.8190000057220459
1621928823064,2.7300000190734863,-21.566999435424805,-18.374000549316406,0.7059999704360961,-9.043999671936035,0.915000021457672
1621928823074,3.009999990463257,-21.489999771118164,-19.214000701904297,0.9020000100135804,-9.01900005340576,0.9990000128746032
1621928823084,1.9600000381469729,-21.409000396728516,-19.270000457763672,1.0590000152587893,-8.90999984741211,1.0579999685287476
1621928823094,0.8399999737739563,-21.643999099731445,-19.95199966430664,1.0980000495910645,-8.92300033569336,1.1349999904632568
1621928823104,0.4199999868869781,-21.35300064086914,-21.606000900268555,1.215999960899353,-9.104999542236328,1.2619999647140503
1621928823114,0.9100000262260436,-20.80900001525879,-23.073999404907227,1.2940000295639038,-9.222999572753906,1.4809999465942385
1621928823124,4.130000114440918,-19.974000930786133,-23.780000686645508,1.3730000257492063,-9.404999732971191,1.6080000400543213
1621928823134,8.399999618530273,-19.55299949645996,-24.558000564575195,1.4119999408721924,-9.67099952697754,1.7599999904632568
1621928823144,11.130000114440918,-18.149999618530273,-25.66200065612793,1.4509999752044678,-9.968000411987305,1.8669999837875368
1621928823154,12.109999656677246,-16.503000259399414,-25.72699928283691,1.5299999713897705,-10.182000160217283,1.9490000009536743
1621928823164,11.550000190734863,-15.177000045776367,-24.781999588012695,1.6080000400543213,-10.465999603271484,1.9780000448226929
1621928823174,10.359999656677246,-13.944000244140623,-23.711999893188477,1.6080000400543213,-10.704999923706056,1.97599995136261
1621928823184,8.329999923706055,-12.81700038909912,-22.44700050354004,1.6480000019073486,-10.788999557495115,2.000999927520752
1621928823194,7.034999847412109,-12.388999938964844,-22.05150032043457,1.72599995136261,-10.880000114440918,2.065000057220459
1621928823204,5.739999771118164,-11.961000442504885,-21.656000137329105,1.843999981880188,-10.91800022125244,2.058000087738037
1621928823214,3.1500000953674316,-11.677000045776367,-20.04199981689453,1.8830000162124632,-10.892999649047852,2.1419999599456787
1621928823224,0.0,-11.77400016784668,-17.073999404907227,1.843999981880188,-10.809000015258787,2.1170001029968266
1621928823234,-2.7300000190734863,-12.770999908447266,-13.838000297546388,1.8040000200271609,-10.79599952697754,2.0399999618530273
1621928823244,-4.409999847412109,-13.69499969482422,-12.223999977111816,1.8040000200271609,-10.718000411987305,2.052999973297119
1621928823254,-6.090000152587891,-14.571000099182127,-10.88599967956543,1.8040000200271609,-10.666000366210938,1.9830000400543213
1621928823264,-7.489999771118165,-15.682000160217283,-9.020000457763674,1.72599995136261,-10.697999954223633,1.937999963760376
1621928823274,-8.539999961853027,-16.39900016784668,-7.369999885559082,1.6480000019073486,-10.715999603271484,1.815000057220459
1621928823284,-10.010000228881836,-17.433000564575195,-6.343999862670898,1.72599995136261,-10.741000175476074,1.7309999465942385
1621928823294,-12.460000038146973,-18.187000274658203,-5.695000171661377,1.9220000505447388,-10.734000205993652,1.6920000314712524
1621928823304,-15.609999656677246,-20.722000122070312,-5.431000232696533,2.118000030517578,-10.765999794006348,1.6469999551773071
1621928823314,-19.600000381469727,-24.143999099731445,-4.9679999351501465,2.313999891281128,-10.758999824523926,1.6080000400543213
1621928823324,-23.030000686645508,-29.50900077819824,-4.7769999504089355,2.3540000915527344,-10.675000190734863,1.5829999446868896
1621928823334,-24.920000076293945,-35.0890007019043,-6.186999797821045,2.3929998874664307,-10.66800022125244,1.5440000295639038
1621928823344,-26.38999938964844,-40.665000915527344,-9.232000350952148,2.4709999561309814,-10.66800022125244,1.5440000295639038
1621928823354,-27.719999313354492,-46.20800018310547,-12.057000160217283,2.549999952316284,-10.64799976348877,1.4290000200271606
1621928823364,-29.1200008392334,-51.78799819946289,-13.468000411987305,2.628000020980835,-10.633999824523926,1.35099995136261
1621928823374,-30.239999771118164,-57.97600173950195,-15.055999755859377,2.746000051498413,-10.666000366210938,1.305999994277954
1621928823384,-32.20000076293945,-65.56700134277344,-15.541999816894531,2.7850000858306885,-10.659000396728516,1.2669999599456787
1621928823394,-34.5099983215332,-72.85800170898438,-14.907999992370604,2.746000051498413,-10.58199977874756,1.281000018119812
1621928823404,-35.665000915527344,-76.47100067138672,-14.372499465942385,2.6670000553131104,-10.498000144958496,1.25600004196167
1621928823414,-36.81999969482422,-80.08399963378906,-13.836999893188477,2.510999917984009,-10.354999542236328,1.121999979019165
1621928823424,-38.290000915527344,-86.072998046875,-12.121000289916992,2.2750000953674316,-10.256999969482422,1.0190000534057615
1621928823434,-39.7599983215332,-90.71099853515624,-9.597999572753906,1.8830000162124632,-10.08199977874756,0.930999994277954
1621928823444,-40.66999816894531,-93.72799682617188,-7.001999855041504,1.491000056266785,-9.78499984741211,0.8240000009536743
1621928823454,-40.25,-95.0500030517578,-4.747000217437744,1.0199999809265137,-9.50100040435791,0.7940000295639038
1621928823464,-38.36000061035156,-94.14900207519533,-2.5980000495910645,0.5490000247955322,-9.12600040435791,0.7009999752044677
1621928823474,-35.77000045776367,-91.21700286865236,-1.0859999656677246,0.1570000052452087,-8.835000038146973,0.6330000162124633
1621928823484,-32.34000015258789,-85.77899932861328,-0.4830000102519989,-0.1570000052452087,-8.821000099182129,0.5559999942779541
1621928823494,-28.280000686645508,-78.58999633789062,-0.1389999985694885,-0.4709999859333038,-8.878000259399414,0.4259999990463256
1621928823504,-24.920000076293945,-70.58899688720703,0.8450000286102294,-0.6280000209808348,-8.987000465393066,0.367000013589859
1621928823514,-22.81999969482422,-62.52399826049805,1.0590000152587893,-0.7850000262260437,-9.102999687194824,0.3470000028610229
1621928823524,-21.280000686645508,-54.345001220703125,0.2269999980926513,-0.7850000262260437,-9.204999923706056,0.248999997973442
1621928823534,-20.93000030517578,-46.327999114990234,-0.492000013589859,-0.7450000047683715,-9.19200038909912,0.1720000058412551
1621928823544,-20.579999923706055,-38.93199920654297,-1.3209999799728394,-0.6669999957084655,-9.178000450134276,0.0939999967813491
1621928823554,-20.3700008392334,-33.21099853515625,-1.5199999809265137,-0.5490000247955322,-9.241999626159668,0.0040000001899898
1621928823564,-20.440000534057617,-28.15800094604492,-1.5529999732971191,-0.3140000104904174,-9.35099983215332,-0.0560000017285346
1621928823574,-20.020000457763672,-23.822999954223633,-2.3529999256134033,-0.1570000052452087,-9.42099952697754,-0.1080000028014183
1621928823584,-20.3700008392334,-21.138999938964844,-2.6610000133514404,0.0390000008046627,-9.58199977874756,-0.096000000834465
1621928823594,-20.649999618530273,-19.094999313354492,-3.3670001029968266,0.1959999948740005,-9.6850004196167,-0.1940000057220459
1621928823604,-21.420000076293945,-17.023000717163086,-3.427999973297119,0.2750000059604644,-9.793999671936035,-0.2529999911785125
1621928823614,-22.469999313354492,-15.506999969482422,-3.1610000133514404,0.3529999852180481,-9.812000274658203,-0.3759999871253967
1621928823624,-22.75,-14.842000007629396,-3.505499839782715,0.4309999942779541,-9.812000274658203,-0.3759999871253967
1621928823634,-23.030000686645508,-14.177000045776367,-3.849999904632568,0.4709999859333038,-9.843999862670898,-0.4210000038146972
1621928823644,-22.959999084472656,-12.291000366210938,-4.868000030517578,0.6669999957084655,-9.92099952697754,-0.4350000023841857
1621928823654,-22.75,-10.609000205993652,-5.139999866485596,0.7850000262260437,-9.95300006866455,-0.4799999892711639
1621928823664,-22.329999923706055,-9.197999954223633,-5.88700008392334,0.9409999847412108,-10.017000198364258,-0.5709999799728394
1621928823674,-22.190000534057617,-8.237000465393066,-6.499000072479248,1.0590000152587893,-9.970999717712402,-0.6029999852180481
1621928823684,-21.90999984741211,-7.280000209808349,-6.685999870300293,1.1380000114440918,-9.932000160217283,-0.5960000157356262
1621928823694,-21.84000015258789,-6.508999824523926,-6.620999813079834,1.1770000457763672,-9.873000144958496,-0.7049999833106994
1621928823704,-21.979999542236328,-5.807000160217285,-5.360000133514404,1.215999960899353,-9.803000450134276,-0.652999997138977
1621928823714,-21.350000381469727,-5.145999908447266,-3.4660000801086426,1.215999960899353,-9.758000373840332,-0.6850000023841857
1621928823724,-20.719999313354492,-4.61899995803833,-2.0230000019073486,1.215999960899353,-9.821000099182127,-0.7760000228881835
1621928823734,-19.809999465942383,-3.7060000896453857,-1.1510000228881836,1.1770000457763672,-9.944000244140623,-0.7580000162124633
1621928823744,-19.600000381469727,-2.121000051498413,0.3370000123977661,1.1380000114440918,-10.085000038146973,-0.8619999885559082
1621928823754,-20.440000534057617,-0.4819999933242797,2.3320000171661377,1.0980000495910645,-10.142000198364258,-0.9919999837875366
1621928823764,-21.559999465942383,1.7200000286102295,3.1459999084472656,1.0590000152587893,-10.18000030517578,-0.9980000257492064
1621928823774,-22.88999938964844,3.7309999465942383,3.430000066757202,1.0590000152587893,-10.142000198364258,-0.9919999837875366
1621928823784,-23.65999984741211,5.5269999504089355,3.319999933242798,1.1380000114440918,-9.994000434875488,-0.9259999990463256
1621928823794,-23.65999984741211,5.933000087738037,4.244999885559082,1.1770000457763672,-9.878000259399414,-0.9049999713897704
1621928823804,-23.170000076293945,6.638999938964844,5.079999923706055,1.1770000457763672,-9.916999816894531,-0.9120000004768372
1621928823814,-22.190000534057617,7.639999866485595,6.251999855041504,1.0980000495910645,-9.994000434875488,-0.9259999990463256
1621928823824,-21.559999465942383,9.092000007629396,6.080999851226807,0.981000006198883,-10.071000099182127,-0.9390000104904174
1621928823834,-21.24499893188477,10.423999786376951,5.7829999923706055,0.981000006198883,-10.071000099182127,-0.9390000104904174
1621928823844,-20.93000030517578,11.755999565124512,5.485000133514404,0.8629999756813049,-10.078000068664553,-0.9010000228881836
1621928823854,-20.020000457763672,15.03600025177002,4.215000152587891,0.7850000262260437,-10.109999656677246,-0.9459999799728392
1621928823864,-19.18000030517578,18.224000930786133,3.071000099182129,0.7850000262260437,-10.071000099182127,-0.9390000104904174
1621928823874,-18.6200008392334,20.58799934387207,3.7720000743865967,0.8240000009536743,-10.064000129699709,-0.977999985218048
1621928823884,-18.200000762939453,22.052000045776367,5.949999809265137,0.8629999756813049,-10.019000053405762,-1.0099999904632568
1621928823894,-17.290000915527344,23.36599922180176,8.17199993133545,0.8629999756813049,-9.972999572753906,-1.0420000553131104
1621928823904,-16.3799991607666,24.64299964904785,9.392000198364256,0.9020000100135804,-9.902999877929688,-0.9890000224113464
1621928823914,-15.260000228881836,25.909000396728516,9.472999572753906,0.8240000009536743,-9.812000274658203,-1.0529999732971191
1621928823924,-13.649999618530272,27.18600082397461,9.484999656677246,0.7059999704360961,-9.772999763488768,-1.0460000038146973
1621928823934,-12.25,29.006999969482425,9.237000465393066,0.5879999995231628,-9.734999656677246,-1.0390000343322754
1621928823944,-10.5,31.99099922180176,8.83899974822998,0.3919999897480011,-9.663999557495115,-0.9869999885559082
1621928823954,-8.680000305175781,35.16600036621094,10.180999755859377,0.2349999994039535,-9.586999893188477,-0.9729999899864196
1621928823964,-7.210000038146973,38.540000915527344,12.41100025177002,0.1180000007152557,-9.62600040435791,-0.9800000190734864
1621928823974,-5.599999904632568,42.132999420166016,14.607999801635742,0.0780000016093254,-9.70300006866455,-0.9940000176429749
1621928823984,-4.690000057220459,45.417999267578125,15.329999923706056,0.0,-9.85099983215332,-1.059999942779541
1621928823994,-3.990000009536743,48.60499954223633,14.185999870300291,-0.0390000008046627,-10.069000244140623,-1.1779999732971191
1621928824004,-3.7100000381469727,51.625999450683594,12.373000144958496,-0.0390000008046627,-10.248000144958496,-1.2890000343322754
1621928824014,-2.940000057220459,54.922000885009766,8.192000389099121,-0.0390000008046627,-10.467000007629396,-1.406999945640564
1621928824024,-2.450000047683716,57.33000183105469,4.209000110626221,0.1959999948740005,-10.60099983215332,-1.5509999990463257
1621928824034,-1.8900001049041748,57.90350341796875,3.1730000972747803,0.4709999859333038,-10.645999908447266,-1.5190000534057615
1621928824044,-1.3300000429153442,58.47700119018555,2.13700008392334,0.7059999704360961,-10.678000450134276,-1.5640000104904177
1621928824049,,,,,,
1621928824054,-0.5600000023841857,58.27899932861328,2.4570000171661377,0.8240000009536743,-10.710000038146973,-1.6100000143051147
1621928824064,-0.4199999868869781,57.71900177001953,4.420000076293945,0.7450000047683715,-10.710000038146973,-1.6100000143051147
1621928824074,0.4900000095367431,57.54499816894531,4.603000164031982,0.5490000247955322,-10.631999969482422,-1.5959999561309814
1621928824084,0.9800000190734864,58.10900115966797,4.63100004196167,0.3919999897480011,-10.491999626159668,-1.491000056266785
1621928824094,2.240000009536743,59.632999420166016,4.046999931335449,0.3529999852180481,-10.21399974822998,-1.4819999933242798
1621928824104,3.0799999237060547,60.41600036621094,5.250999927520752,0.3529999852180481,-10.0600004196167,-1.4550000429153442
1621928824114,3.6400001049041744,60.86199951171875,6.750999927520752,0.3529999852180481,-9.866999626159668,-1.4210000038146973
1621928824124,3.7100000381469727,60.9640007019043,6.98199987411499,0.4709999859333038,-9.835000038146973,-1.3760000467300415
1621928824134,3.6400001049041744,59.95000076293945,8.295999526977539,0.5099999904632568,-9.718999862670898,-1.3550000190734863
1621928824144,3.5,58.604000091552734,9.480999946594238,0.4709999859333038,-9.532999992370604,-1.2829999923706057
1621928824154,3.2200000286102295,57.76900100708008,8.977999687194824,0.3140000104904174,-9.371000289916992,-1.2940000295639038
1621928824164,3.2899999618530273,57.930999755859375,6.447000026702881,0.1570000052452087,-9.229999542236328,-1.1890000104904177
1621928824174,3.2899999618530273,57.999000549316406,5.250999927520752,0.0390000008046627,-9.083000183105469,-1.1239999532699585
1621928824184,3.2200000286102295,58.57099914550781,5.636000156402588,-0.0390000008046627,-9.043999671936035,-1.1169999837875366
1621928824194,3.2899999618530273,58.95600128173828,6.2729997634887695,-0.0780000016093254,-9.012000083923342,-1.0709999799728394
1621928824204,3.6400001049041744,58.52299880981445,7.120999813079834,-0.1180000007152557,-9.08899974822998,-1.0850000381469729
1621928824214,3.9200000762939458,58.26800155639648,9.777000427246092,-0.1180000007152557,-9.276000022888184,-1.1579999923706057
1621928824224,4.059999942779541,57.810001373291016,13.178999900817873,-0.1180000007152557,-9.54599952697754,-1.2050000429153442
1621928824234,4.550000190734863,57.72700119018555,14.05299949645996,-0.1570000052452087,-9.54599952697754,-1.2050000429153442
1621928824244,5.039999961853027,57.64400100708008,14.927000045776367,-0.1959999948740005,-9.321000099182127,-1.1260000467300415
1621928824254,6.159999847412109,58.21500015258789,14.102999687194824,-0.2349999994039535,-9.050999641418455,-1.0779999494552612
1621928824264,6.789999961853027,59.67100143432618,12.298999786376951,-0.2750000059604644,-8.890000343322754,-1.0889999866485596
1621928824274,6.369999885559082,61.24800109863281,9.80500030517578,-0.3140000104904174,-8.77400016784668,-1.069000005722046
1621928824284,5.460000038146973,63.08399963378906,6.644999980926514,-0.3529999852180481,-8.6899995803833,-1.093999981880188
1621928824294,4.480000019073486,64.4469985961914,3.7579998970031734,-0.3529999852180481,-8.604999542236328,-1.11899995803833
1621928824304,3.849999904632568,65.50900268554688,2.1679999828338623,-0.3140000104904174,-8.515000343322754,-1.1829999685287476
1621928824314,2.7300000190734863,66.08799743652344,1.7020000219345093,-0.1959999948740005,-8.449000358581543,-1.3300000429153442
1621928824324,1.8899999856948853,65.63800048828125,1.8359999656677248,-0.0780000016093254,-8.473999977111816,-1.4140000343322754
1621928824333,1.0499999523162842,63.46900177001953,2.447999954223633,0.0390000008046627,-8.428000450134277,-1.4459999799728394
1621928824343,0.9800000190734864,61.61199951171875,2.9030001163482666,0.0780000016093254,-8.383000373840332,-1.4780000448226929
1621928824353,1.399999976158142,60.13999938964844,1.5770000219345093,0.0780000016093254,-8.383000373840332,-1.4780000448226929
1621928824363,2.0999999046325684,59.30799865722656,-0.5600000023841857,0.1180000007152557,-8.420999526977539,-1.4850000143051147
1621928824373,3.2899999618530273,58.391998291015625,-2.2139999866485596,0.1180000007152557,-8.51200008392334,-1.4210000038146973
1621928824383,4.480000019073486,57.069000244140625,-3.5840001106262207,0.1570000052452087,-8.711999893188477,-1.4170000553131104
1621928824393,4.619999885559082,55.41899871826172,-4.302000045776367,0.2349999994039535,-8.848999977111816,-1.3209999799728394
1621928824403,4.760000228881836,53.35900115966797,-4.309999942779541,0.3529999852180481,-8.932999610900879,-1.2960000038146973
1621928824413,4.619999885559082,50.2130012512207,-2.5899999141693115,0.4309999942779541,-8.970999717712402,-1.3029999732971191
1621928824423,3.7100000381469727,45.654998779296875,1.0839999914169312,0.5879999995231628,-9.048999786376951,-1.3170000314712524
1621928824433,1.75,41.082000732421875,5.254000186920166,0.6669999957084655,-9.16499996185303,-1.337000012397766
1621928824443,0.4900000095367431,39.18250274658203,6.553500175476074,0.5879999995231628,-9.253000259399414,-1.5119999647140503
1621928824453,-0.7699999809265136,37.28300094604492,7.853000164031982,0.5490000247955322,-9.470999717712402,-1.6299999952316284
1621928824463,-3.430000066757202,33.68199920654297,8.923999786376953,0.5490000247955322,-9.67099952697754,-1.6260000467300415
1621928824473,-7.349999904632568,29.89900016784668,8.61299991607666,0.3529999852180481,-9.901000022888184,-1.9049999713897705
1621928824483,-10.920000076293944,26.21699905395508,8.531999588012695,0.2750000059604644,-9.925999641418455,-1.9889999628067017
1621928824493,-13.510000228881836,23.00900077819824,8.180000305175781,0.1570000052452087,-10.041999816894531,-2.009999990463257
1621928824503,-15.609999656677246,19.44499969482422,9.043999671936035,0.0390000008046627,-10.189000129699709,-2.075000047683716
1621928824513,-17.010000228881836,16.48900032043457,10.086999893188477,-0.1570000052452087,-10.151000022888184,-2.069000005722046
1621928824523,-17.43000030517578,14.222000122070312,10.041999816894531,-0.3529999852180481,-10.048999786376951,-1.9709999561309817
1621928824533,-16.100000381469727,13.041999816894531,8.270000457763672,-0.5099999904632568,-9.907999992370604,-1.866000056266785
1621928824543,-14.350000381469728,13.102999687194824,6.7170000076293945,-0.6669999957084655,-9.760000228881836,-1.8009999990463257
1621928824553,-12.109999656677246,13.75100040435791,6.263000011444092,-0.7450000047683715,-9.574000358581545,-1.7280000448226929
1621928824563,-10.640000343322754,14.968000411987305,5.410999774932861,-0.8240000009536743,-9.451000213623049,-1.7460000514984133
1621928824573,-9.100000381469728,16.80900001525879,4.243000030517578,-0.8240000009536743,-9.335000038146973,-1.72599995136261
1621928824583,-7.769999980926514,18.256000518798828,3.2899999618530273,-0.7059999704360961,-9.258000373840332,-1.712000012397766
1621928824593,-6.789999961853027,18.76300048828125,2.0290000438690186,-0.5879999995231628,-9.29599952697754,-1.718999981880188
1621928824603,-5.880000114440918,19.049999237060547,0.800000011920929,-0.5099999904632568,-9.303000450134276,-1.6799999475479126
1621928824613,-5.389999866485596,18.426000595092773,-0.0920000001788139,-0.3919999897480011,-9.348999977111816,-1.6480000019073486
1621928824623,-6.019999980926514,17.70800018310547,-0.8579999804496765,-0.3140000104904174,-9.354999542236328,-1.6100000143051147
1621928824633,-6.440000057220459,16.312999725341797,-1.815000057220459,-0.2349999994039535,-9.324000358581545,-1.5640000104904177
1621928824643,-6.860000133514404,14.718999862670898,-2.450999975204468,-0.1959999948740005,-9.28499984741211,-1.5579999685287476
1621928824653,-7.105000019073486,14.026000022888184,-2.1470000743865967,-0.1570000052452087,-9.324000358581545,-1.5640000104904177
1621928824663,-7.349999904632568,13.333000183105469,-1.843000054359436,-0.1570000052452087,-9.329999923706056,-1.5260000228881836
1621928824673,-8.050000190734863,11.609000205993652,-0.9380000233650208,-0.2349999994039535,-9.401000022888184,-1.5779999494552612
1621928824683,-8.819999694824219,10.562999725341797,-1.0520000457763672,-0.2750000059604644,-9.55500030517578,-1.6050000190734863
1621928824693,-9.3100004196167,10.368000030517578,-1.156999945640564,-0.2750000059604644,-9.651000022888184,-1.7419999837875366
1621928824703,-9.9399995803833,10.55500030517578,-1.409000039100647,-0.2750000059604644,-9.689000129699709,-1.7480000257492063
1621928824713,-10.359999656677246,10.218000411987305,-1.1119999885559082,-0.2750000059604644,-9.71399974822998,-1.8320000171661377
1621928824723,-10.850000381469728,9.28600025177002,-1.0640000104904177,-0.2349999994039535,-9.71399974822998,-1.8320000171661377
1621928824733,-11.0600004196167,8.329000473022461,-0.8769999742507933,-0.2750000059604644,-9.708000183105469,-1.8710000514984133
1621928824743,-11.340000152587892,7.348000049591064,-0.5529999732971191,-0.3140000104904174,-9.694000244140623,-1.9479999542236328
1621928824753,-11.0600004196167,6.703000068664551,-1.7319999933242798,-0.3140000104904174,-9.654999732971191,-1.9420000314712524
1621928824763,-10.5,6.451000213623047,-3.127000093460083,-0.3529999852180481,-9.654999732971191,-1.9420000314712524
1621928824773,-10.640000343322754,6.357999801635742,-4.210000038146973,-0.2750000059604644,-9.694000244140623,-1.9479999542236328
1621928824783,-10.43000030517578,5.679999828338623,-4.400000095367432,-0.2750000059604644,-9.609999656677246,-1.9730000495910645
1621928824793,-9.029999732971191,5.51800012588501,-5.494999885559082,-0.2750000059604644,-9.616999626159668,-1.934999942779541
1621928824803,-8.329999923706055,4.706999778747559,-6.136000156402588,-0.1570000052452087,-9.68000030517578,-2.0260000228881836
1621928824813,-7.630000114440918,3.713000059127808,-6.951000213623047,-0.1570000052452087,-9.75100040435791,-2.078000068664551
1621928824823,-7.489999771118165,2.9059998989105225,-6.809000015258789,-0.1959999948740005,-9.704999923706056,-2.109999895095825
1621928824833,-7.699999809265136,1.9739999771118164,-7.967999935150147,-0.1959999948740005,-9.595999717712402,-2.0510001182556152
1621928824843,-7.769999980926514,1.5110000371932983,-8.973999977111816,-0.1959999948740005,-9.479999542236328,-2.0299999713897705
1621928824853,-7.420000076293945,1.1749999523162842,-9.88599967956543,-0.1959999948740005,-9.364999771118164,-2.009999990463257
1621928824863,-6.860000133514404,1.0144999027252195,-9.98550033569336,-0.2349999994039535,-9.293999671936035,-1.9570000171661377
1621928824873,-6.300000190734863,0.8539999723434448,-10.085000038146973,-0.2349999994039535,-9.20300006866455,-2.0209999084472656
1621928824883,-5.039999961853027,0.3720000088214874,-10.170000076293944,-0.2349999994039535,-9.210000038146973,-1.98199999332428
1621928824893,-3.9200000762939458,-0.2119999974966049,-9.277999877929688,-0.2349999994039535,-9.223999977111816,-1.9049999713897705
1621928824903,-2.240000009536743,-0.597000002861023,-8.706000328063965,-0.2349999994039535,-9.178000450134276,-1.937000036239624
1621928824913,-0.1400000005960464,-1.22599995136261,-9.171999931335447,-0.2349999994039535,-9.10099983215332,-1.9229999780654907
1621928824923,1.75,-1.3109999895095823,-9.897999763488768,-0.1959999948740005,-9.031000137329102,-1.8710000514984133
1621928824933,2.940000057220459,-1.753000020980835,-10.616000175476074,-0.1570000052452087,-8.984999656677246,-1.9029999971389773
1621928824943,4.059999942779541,-2.5889999866485596,-11.118000030517578,-0.1570000052452087,-9.062000274658203,-1.9170000553131104
1621928824953,5.25,-3.2780001163482666,-11.239999771118164,-0.1570000052452087,-9.133000373840332,-1.968999981880188
1621928824963,5.949999809265137,-3.5209999084472656,-11.06999969482422,-0.1570000052452087,-9.364999771118164,-2.009999990463257
1621928824973,6.440000057220459,-3.634999990463257,-11.232000350952148,-0.1180000007152557,-9.59000015258789,-2.0889999866485596
1621928824983,6.369999885559082,-4.0279998779296875,-11.017000198364258,-0.1180000007152557,-9.75100040435791,-2.078000068664551
1621928824993,6.019999980926514,-4.331999778747559,-10.501999855041504,-0.1570000052452087,-9.821000099182127,-2.130000114440918
1621928825003,5.460000038146973,-4.243000030517578,-10.20199966430664,-0.1959999948740005,-9.82800006866455,-2.0910000801086426
1621928825013,4.690000057220459,-4.205999851226807,-9.199999809265137,-0.2349999994039535,-9.82800006866455,-2.0910000801086426
1621928825023,3.2899999618530273,-3.48799991607666,-8.434000015258789,-0.2750000059604644,-9.821000099182127,-2.130000114440918
1621928825033,1.8200000524520872,-2.25600004196167,-7.363999843597413,-0.2750000059604644,-9.82800006866455,-2.0910000801086426
1621928825043,0.0700000002980232,-1.2339999675750732,-5.9039998054504395,-0.3140000104904174,-9.821000099182127,-2.130000114440918
1621928825053,-1.6100000143051147,0.0640000030398368,-5.604000091552734,-0.3140000104904174,-9.744000434875488,-2.115999937057495
1621928825058,,,,,,
1621928825063,-2.450000047683716,1.6719999313354492,-5.8535003662109375,-0.3919999897480011,-9.673999786376951,-2.063999891281128
1621928825073,-3.2899999618530273,3.2799999713897705,-6.103000164031982,-0.4309999942779541,-9.550999641418455,-2.0820000171661377
1621928825083,-3.359999895095825,5.184999942779541,-6.833000183105469,-0.4309999942779541,-9.44200038909912,-2.0230000019073486
1621928825093,-2.5899999141693115,6.479000091552734,-6.107999801635742,-0.4309999942779541,-9.333000183105469,-1.9639999866485596
1621928825103,-1.190000057220459,7.400000095367432,-4.879000186920166,-0.4309999942779541,-9.300999641418455,-1.919000029563904
1621928825113,0.4900000095367431,7.335000038146973,-4.109000205993652,-0.5099999904632568,-9.26900005340576,-1.8730000257492063
1621928825123,2.799999952316284,7.435999870300293,-3.878000020980835,-0.5490000247955322,-9.26900005340576,-1.8730000257492063
1621928825133,4.550000190734863,8.473999977111816,-4.120999813079834,-0.6280000209808348,-9.43000030517578,-1.861999988555908
1621928825143,5.670000076293945,9.135000228881836,-4.644000053405762,-0.6669999957084655,-9.585000038146973,-1.8890000581741333
1621928825153,6.019999980926514,10.038999557495115,-5.3379998207092285,-0.6669999957084655,-9.73900032043457,-1.9160000085830688
1621928825163,5.809999942779541,11.060999870300291,-6.295000076293945,-0.7059999704360961,-9.81700038909912,-1.9299999475479128
1621928825173,4.690000057220459,11.49899959564209,-7.567999839782715,-0.6669999957084655,-9.8100004196167,-1.968999981880188
1621928825183,3.2899999618530273,11.71399974822998,-8.383000373840332,-0.5490000247955322,-9.72599983215332,-1.99399995803833
1621928825193,1.5399999618530271,12.215999603271484,-9.218999862670898,-0.5490000247955322,-9.72599983215332,-1.99399995803833
1621928825203,0.0,12.666000366210938,-9.352999687194824,-0.4709999859333038,-9.687000274658203,-1.986999988555908
1621928825213,-1.190000057220459,12.175999641418455,-8.586000442504883,-0.4309999942779541,-9.64900016784668,-1.9800000190734863
1621928825223,-1.75,11.640999794006348,-7.969999790191651,-0.4309999942779541,-9.654999732971191,-1.9420000314712524
1621928825233,-1.8899999856948853,10.68000030517578,-7.35699987411499,-0.3919999897480011,-9.62399959564209,-1.8960000276565552
1621928825243,-1.8899999856948853,10.027000427246094,-6.4770002365112305,-0.4309999942779541,-9.54599952697754,-1.881999969482422
1621928825253,-1.75,9.905500411987305,-6.392000198364258,-0.5099999904632568,-9.468999862670898,-1.86899995803833
1621928825263,-1.6100000143051147,9.784000396728516,-6.307000160217285,-0.5490000247955322,-9.411999702453612,-1.7389999628067017
1621928825273,-0.9100000262260436,9.857000350952148,-6.71999979019165,-0.6280000209808348,-9.28999996185303,-1.756999969482422
1621928825283,-0.8399999737739563,10.541999816894531,-7.381999969482423,-0.5879999995231628,-9.29599952697754,-1.718999981880188
1621928825293,-0.9100000262260436,10.270000457763672,-6.6479997634887695,-0.6669999957084655,-9.29599952697754,-1.718999981880188
1621928825303,-1.399999976158142,10.383999824523926,-6.485000133514404,-0.6280000209808348,-9.244000434875488,-1.7890000343322754
1621928825313,-1.399999976158142,10.100000381469728,-6.890999794006348,-0.5490000247955322,-9.3149995803833,-1.8420000076293943
1621928825323,-1.190000057220459,9.616999626159668,-6.97599983215332,-0.5099999904632568,-9.359999656677246,-1.809999942779541
1621928825333,-0.9100000262260436,9.442999839782717,-6.793000221252441,-0.4309999942779541,-9.437000274658203,-1.8229999542236328
1621928825343,-0.4900000095367431,8.689000129699707,-6.144999980926514,-0.3919999897480011,-9.437000274658203,-1.8229999542236328
1621928825353,0.0,7.736000061035157,-6.383999824523926,-0.3529999852180481,-9.437000274658203,-1.8229999542236328
1621928825363,0.699999988079071,6.556000232696533,-6.947000026702881,-0.3140000104904174,-9.404999732971191,-1.7779999971389773
1621928825373,1.1200000047683716,5.368000030517578,-6.658999919891357,-0.3140000104904174,-9.437000274658203,-1.8229999542236328
1621928825383,1.4700000286102295,4.317999839782715,-6.3470001220703125,-0.3919999897480011,-9.482999801635742,-1.7920000553131104
1621928825393,1.9600000381469729,3.319999933242798,-6.736000061035156,-0.3529999852180481,-9.520999908447264,-1.7979999780654907
1621928825403,1.8899999856948853,2.638999938964844,-6.500999927520752,-0.3919999897480011,-9.637000083923342,-1.819000005722046
1621928825413,1.9600000381469729,1.5279999971389773,-5.8429999351501465,-0.4709999859333038,-9.637000083923342,-1.819000005722046
1621928825423,2.0999999046325684,0.5220000147819519,-5.38100004196167,-0.5099999904632568,-9.637000083923342,-1.819000005722046
1621928825433,2.0299999713897705,0.2930000126361846,-5.49250030517578,-0.5490000247955322,-9.657999992370604,-1.7029999494552612
1621928825443,1.9600000381469729,0.0640000030398368,-5.604000091552734,-0.6280000209808348,-9.612000465393066,-1.7350000143051147
1621928825453,1.8200000524520872,0.1169999986886978,-6.306000232696533,-0.7059999704360961,-9.612000465393066,-1.7350000143051147
1621928825463,1.75,0.6759999990463256,-7.059999942779541,-0.7850000262260437,-9.56700038909912,-1.7669999599456787
1621928825473,1.8899999856948853,1.3289999961853027,-7.940000057220459,-0.8240000009536743,-9.604999542236328,-1.7730000019073486
1621928825483,1.5399999618530271,1.9570000171661377,-8.682000160217285,-0.8629999756813049,-9.668999671936035,-1.8639999628067017
1621928825493,0.9800000190734864,2.8329999446868896,-10.020000457763672,-0.9020000100135804,-9.668999671936035,-1.8639999628067017
1621928825503,0.4900000095367431,4.061999797821045,-10.940999984741213,-0.8629999756813049,-9.675999641418455,-1.825999975204468
1621928825513,0.209999993443489,5.427999973297119,-11.836999893188477,-0.8629999756813049,-9.637000083923342,-1.819000005722046
1621928825523,0.0700000002980232,6.340000152587891,-12.173999786376951,-0.7850000262260437,-9.527999877929688,-1.7599999904632568
1621928825533,0.209999993443489,7.013999938964844,-11.55799961090088,-0.7450000047683715,-9.53499984741211,-1.7209999561309814
1621928825543,0.0,7.698999881744384,-11.010000228881836,-0.7059999704360961,-9.482999801635742,-1.7920000553131104
1621928825553,0.3499999940395355,7.929999828338623,-11.112000465393066,-0.5879999995231628,-9.46500015258789,-1.6690000295639038
1621928825563,0.699999988079071,7.748000144958496,-11.28600025177002,-0.5490000247955322,-9.458000183105469,-1.7070000171661377
1621928825573,1.399999976158142,7.686999797821045,-10.940999984741213,-0.5099999904632568,-9.451000213623049,-1.7460000514984133
1621928825583,2.0299999713897705,7.156000137329102,-10.75100040435791,-0.4709999859333038,-9.489999771118164,-1.753000020980835
1621928825593,2.240000009536743,6.546999931335449,-10.928999900817873,-0.4709999859333038,-9.527999877929688,-1.7599999904632568
1621928825603,2.450000047683716,6.173999786376953,-11.030500411987305,-0.3919999897480011,-9.482999801635742,-1.7920000553131104
1621928825613,2.6600000858306885,5.801000118255615,-11.131999969482422,-0.3919999897480011,-9.496000289916992,-1.7139999866485596
1621928825623,2.940000057220459,5.192999839782715,-11.3100004196167,-0.4309999942779541,-9.56700038909912,-1.7669999599456787
1621928825633,2.6600000858306885,4.122000217437744,-11.28600025177002,-0.3919999897480011,-9.56700038909912,-1.7669999599456787
1621928825643,2.0299999713897705,3.822000026702881,-11.196000099182127,-0.4309999942779541,-9.64400005340576,-1.7799999713897705
1621928825653,1.6100000143051147,3.559000015258789,-11.314000129699709,-0.4309999942779541,-9.604999542236328,-1.7730000019073486
1621928825663,1.3300000429153442,3.3440001010894775,-11.70699977874756,-0.4309999942779541,-9.612000465393066,-1.7350000143051147
1621928825673,1.0499999523162842,3.299000024795532,-11.857000350952148,-0.3529999852180481,-9.604999542236328,-1.7730000019073486
1621928825683,0.699999988079071,3.299000024795532,-11.857000350952148,-0.3529999852180481,-9.604999542236328,-1.7730000019073486
1621928825693,0.4900000095367431,2.8529999256134033,-12.14900016784668,-0.3140000104904174,-9.64400005340576,-1.7799999713897705
1621928825703,0.6299999952316284,2.694999933242798,-12.461000442504885,-0.2349999994039535,-9.598999977111816,-1.812000036239624
1621928825713,0.7699999809265136,2.1589999198913574,-13.053000450134276,-0.1959999948740005,-9.630000114440918,-1.85699999332428
1621928825723,-0.209999993443489,1.85099995136261,-13.321000099182127,-0.1180000007152557,-9.630000114440918,-1.85699999332428
1621928825733,-1.2599999904632568,1.2960000038146973,-12.991999626159668,-0.0780000016093254,-9.668999671936035,-1.8639999628067017
1621928825743,-1.4700000286102295,0.3149999976158142,-12.66800022125244,-0.0390000008046627,-9.71399974822998,-1.8320000171661377
1621928825753,-2.6600000858306885,-0.8939999938011169,-12.66800022125244,-0.0390000008046627,-9.708000183105469,-1.8710000514984133
1621928825763,-3.115000009536743,-1.4940000772476196,-12.489500045776367,0.0,-9.668999671936035,-1.8639999628067017
1621928825773,-3.569999933242798,-2.0940001010894775,-12.310999870300291,0.0390000008046627,-9.62399959564209,-1.8960000276565552
1621928825783,-4.480000019073486,-3.0230000019073486,-11.479000091552734,0.0390000008046627,-9.585000038146973,-1.8890000581741333
1621928825793,-4.96999979019165,-4.007999897003174,-10.729000091552734,0.0390000008046627,-9.461999893188477,-1.906999945640564
1621928825803,-5.179999828338623,-4.388999938964844,-10.583000183105469,0.0,-9.378000259399414,-1.9320000410079956
1621928825813,-5.809999942779541,-5.026000022888184,-10.197999954223633,-0.0390000008046627,-9.34000015258789,-1.9259999990463257
1621928825823,-5.320000171661377,-5.326000213623047,-10.107999801635742,-0.0390000008046627,-9.30799961090088,-1.8799999952316284
1621928825833,-5.179999828338623,-5.3420000076293945,-9.61400032043457,-0.0390000008046627,-9.30799961090088,-1.8799999952316284
1621928825843,-4.619999885559082,-5.264999866485596,-9.244999885559082,-0.0780000016093254,-9.30799961090088,-1.8799999952316284
1621928825853,-3.2899999618530273,-4.551000118255615,-9.26099967956543,-0.1180000007152557,-9.30799961090088,-1.8799999952316284
1621928825863,-1.9600000381469729,-3.663000106811523,-9.460000038146973,-0.1180000007152557,-9.282999992370604,-1.7960000038146973
1621928825873,-0.6299999952316284,-2.1670000553131104,-9.479999542236328,-0.1570000052452087,-9.32800006866455,-1.7640000581741333
1621928825883,0.8399999737739563,-0.6340000033378601,-9.708000183105469,-0.1570000052452087,-9.335000038146973,-1.72599995136261
1621928825893,2.240000009536743,0.6389999985694885,-9.270000457763674,-0.1959999948740005,-9.458000183105469,-1.7070000171661377
1621928825903,3.6400001049041744,1.7549999952316284,-9.14400005340576,-0.1959999948740005,-9.541999816894531,-1.6820000410079956
1621928825913,4.269999980926514,3.424999952316284,-9.347000122070312,-0.1959999948740005,-9.619000434875488,-1.6959999799728394
1621928825923,4.30500030517578,4.2804999351501465,-9.160499572753906,-0.1570000052452087,-9.651000022888184,-1.7419999837875366
1621928825933,4.340000152587891,5.136000156402588,-8.973999977111816,-0.0780000016093254,-9.727999687194824,-1.7549999952316284
1621928825943,4.340000152587891,6.336999893188477,-9.331000328063965,-0.0390000008046627,-9.767000198364256,-1.7619999647140503
1621928825953,4.340000152587891,7.2129998207092285,-9.461000442504885,0.0390000008046627,-9.767000198364256,-1.7619999647140503
1621928825963,3.849999904632568,7.593999862670899,-9.607000350952148,0.0780000016093254,-9.767000198364256,-1.7619999647140503
1621928825973,3.0799999237060547,8.052000045776367,-9.383999824523924,0.1180000007152557,-9.696000099182127,-1.7100000381469729
1621928825983,2.380000114440918,8.0600004196167,-9.027999877929688,0.0780000016093254,-9.741999626159668,-1.6779999732971191
1621928825993,2.0299999713897705,7.47599983215332,-8.135000228881836,0.0780000016093254,-9.71399974822998,-1.8320000171661377
1621928826002,1.399999976158142,7.204999923706055,-7.401000022888184,0.0780000016093254,-9.727999687194824,-1.7549999952316284
1621928826012,0.9100000262260436,7.01800012588501,-7.150000095367432,0.0780000016093254,-9.734999656677246,-1.7170000076293943
1621928826022,0.9100000262260436,7.447999954223632,-7.572000026702882,0.1180000007152557,-9.77400016784668,-1.7230000495910645
1621928826032,0.7699999809265136,7.979000091552734,-7.762000083923339,0.0780000016093254,-9.812000274658203,-1.7300000190734863
1621928826042,0.2800000011920929,8.274999618530273,-7.426000118255616,0.0780000016093254,-9.767000198364256,-1.7619999647140503
1621928826052,-0.6299999952316284,8.32800006866455,-6.919000148773193,0.0780000016093254,-9.71399974822998,-1.8320000171661377
1621928826062,-1.6100000143051147,8.267000198364258,-6.573999881744385,0.1570000052452087,-9.71399974822998,-1.8320000171661377
1621928826064,,,,,,
1621928826072,-2.309999942779541,7.942999839782715,-6.3470001220703125,0.1570000052452087,-9.708000183105469,-1.8710000514984133
1621928826082,-3.009999990463257,8.081000328063965,-6.322999954223633,0.1570000052452087,-9.701000213623049,-1.9099999666213987
1621928826092,-3.429999828338623,8.0,-6.265999794006348,0.1959999948740005,-9.661999702453612,-1.9029999971389773
1621928826102,-3.849999904632568,7.919000148773193,-6.209000110626221,0.2750000059604644,-9.62399959564209,-1.8960000276565552
1621928826112,-4.550000190734863,7.241000175476073,-6.400000095367432,0.2750000059604644,-9.494000434875488,-1.9529999494552612
1621928826122,-4.619999885559082,6.775000095367432,-6.980000019073486,0.2750000059604644,-9.494000434875488,-1.9529999494552612
1621928826132,-4.340000152587891,6.394000053405762,-6.834000110626221,0.2349999994039535,-9.454999923706056,-1.9459999799728391
1621928826142,-4.059999942779541,5.656000137329102,-6.678999900817871,0.2349999994039535,-9.423999786376951,-1.9010000228881836
1621928826152,-3.569999933242798,5.140999794006348,-6.982999801635742,0.2349999994039535,-9.416999816894531,-1.9390000104904177
1621928826162,-2.7300000190734863,4.7230000495910645,-7.83900022506714,0.2349999994039535,-9.416999816894531,-1.9390000104904177
1621928826172,-1.6100000143051147,3.8350000381469727,-7.639999866485595,0.1959999948740005,-9.416999816894531,-1.9390000104904177
1621928826182,-0.9100000262260436,3.2709999084472656,-7.668000221252441,0.1570000052452087,-9.449000358581545,-1.9850000143051147
1621928826192,-0.7699999809265136,2.9790000915527344,-7.222000122070312,0.0780000016093254,-9.50100040435791,-1.9140000343322752
1621928826202,-0.3499999940395355,2.805000066757202,-7.039999961853027,0.0780000016093254,-9.532999992370604,-1.9600000381469729
1621928826212,-0.4900000095367431,2.683000087738037,-7.559000015258789,0.0780000016093254,-9.532999992370604,-1.9600000381469729
1621928826222,-0.8399999737739563,2.7890000343322754,-7.754000186920166,0.0780000016093254,-9.53999996185303,-1.9210000038146973
1621928826232,-0.9100000262260436,2.874000072479248,-8.236000061035156,0.0390000008046627,-9.54599952697754,-1.881999969482422
1621928826242,-0.9100000262260436,3.2909998893737793,-8.58899974822998,0.0390000008046627,-9.592000007629396,-1.85099995136261
1621928826252,-1.1200000047683716,3.359999895095825,-8.57699966430664,0.0390000008046627,-9.598999977111816,-1.812000036239624
1621928826262,-1.190000057220459,3.79800009727478,-8.642000198364258,0.0,-9.56700038909912,-1.7669999599456787
1621928826272,-1.225000023841858,4.014999866485596,-8.46150016784668,0.0,-9.5600004196167,-1.8049999475479128
1621928826282,-1.2599999904632568,4.23199987411499,-8.281000137329102,-0.0390000008046627,-9.5600004196167,-1.8049999475479128
1621928826292,-0.7699999809265136,5.002999782562256,-8.215999603271484,0.0,-9.553000450134276,-1.843999981880188
1621928826302,-0.3499999940395355,5.2870001792907715,-7.810999870300293,0.0,-9.527999877929688,-1.7599999904632568
1621928826312,-0.0700000002980232,5.894999980926514,-7.631999969482423,0.0,-9.520999908447264,-1.7979999780654907
1621928826322,0.2800000011920929,5.744999885559082,-7.5879998207092285,0.0,-9.520999908447264,-1.7979999780654907
1621928826332,0.3499999940395355,6.251999855041504,-7.639999866485595,0.0390000008046627,-9.527999877929688,-1.7599999904632568
1621928826342,0.5600000023841857,6.75,-8.050000190734863,0.0390000008046627,-9.53499984741211,-1.7209999561309814
1621928826352,0.8399999737739563,6.888000011444092,-8.026000022888184,0.0390000008046627,-9.579999923706056,-1.6890000104904177
1621928826362,1.0499999523162842,6.763000011444092,-8.119000434875488,0.0780000016093254,-9.579999923706056,-1.6890000104904177
1621928826372,1.190000057220459,6.843999862670898,-8.175999641418457,0.0780000016093254,-9.619000434875488,-1.6959999799728394
1621928826382,1.0499999523162842,6.276000022888184,-7.777999877929688,0.1570000052452087,-9.663999557495115,-1.6640000343322754
1621928826392,0.8399999737739563,6.020999908447266,-7.539000034332275,0.1959999948740005,-9.710000038146973,-1.631999969482422
1621928826402,1.190000057220459,5.488999843597412,-7.348000049591064,0.2750000059604644,-9.767000198364256,-1.7619999647140503
1621928826412,0.4900000095367431,4.454999923706055,-7.531000137329101,0.3140000104904174,-9.779999732971191,-1.684999942779541
1621928826422,0.2800000011920929,3.4089999198913574,-7.644000053405762,0.3140000104904174,-9.710000038146973,-1.631999969482422
1621928826432,0.0700000002980232,1.6619999408721924,-6.6020002365112305,0.2349999994039535,-9.678000450134276,-1.587000012397766
1621928826442,-0.699999988079071,0.4900000095367431,-5.599999904632568,0.1570000052452087,-9.6850004196167,-1.5479999780654907
1621928826452,-1.0499999523162842,-0.6859999895095825,-5.38100004196167,0.1180000007152557,-9.737000465393066,-1.4780000448226929
1621928826462,-1.2249999046325684,-0.809499979019165,-5.687000274658203,0.0390000008046627,-9.737000465393066,-1.4780000448226929
1621928826472,-1.399999976158142,-0.9330000281333924,-5.993000030517578,0.0,-9.782999992370604,-1.4459999799728394
1621928826482,-1.8899999856948853,-0.7229999899864196,-6.381999969482422,-0.0390000008046627,-9.75100040435791,-1.4010000228881836
1621928826492,-1.9600000381469729,-0.4670000076293945,-6.622000217437744,-0.0390000008046627,-9.711999893188477,-1.3940000534057615
1621928826502,-2.1700000762939453,-0.3860000073909759,-6.678999900817871,-0.0390000008046627,-9.704999923706056,-1.4320000410079956
1621928826512,-1.9600000381469729,-0.5360000133514404,-6.633999824523926,-0.0390000008046627,-9.652999877929688,-1.503000020980835
1621928826522,-2.309999942779541,-0.2689999938011169,-6.941999912261963,-0.0780000016093254,-9.61400032043457,-1.4960000514984133
1621928826532,-2.240000009536743,0.1689999997615814,-7.006999969482422,-0.0780000016093254,-9.673999786376951,-1.3869999647140503
1621928826542,-1.75,0.2949999868869781,-6.914000034332275,-0.0390000008046627,-9.621000289916992,-1.4570000171661377
1621928826552,-1.190000057220459,0.3149999976158142,-6.625999927520752,-0.0390000008046627,-9.621000289916992,-1.4570000171661377
1621928826562,-0.8399999737739563,0.1729999929666519,-6.223999977111816,0.0,-9.569000244140623,-1.5279999971389773
1621928826572,-0.4900000095367431,-0.0700000002980232,-6.053999900817871,0.0,-9.576000213623049,-1.4889999628067017
1621928826582,0.209999993443489,-0.774999976158142,-5.681000232696533,0.0,-9.61400032043457,-1.4960000514984133
1621928826592,0.8399999737739563,-1.0099999904632568,-5.1539998054504395,-0.0390000008046627,-9.652999877929688,-1.503000020980835
1621928826602,0.9800000190734864,-0.9409999847412108,-5.142000198364258,-0.0780000016093254,-9.6850004196167,-1.5479999780654907
1621928826612,1.190000057220459,-1.00600004196167,-5.579999923706055,-0.0390000008046627,-9.723999977111816,-1.5549999475479126
1621928826622,1.0499999523162842,-1.180999994277954,-5.396999835968018,-0.0390000008046627,-9.723999977111816,-1.5549999475479126
1621928826632,0.4199999868869781,-1.1729999780654907,-5.039999961853027,-0.0780000016093254,-9.723999977111816,-1.5549999475479126
1621928826642,-0.209999993443489,-1.508999943733215,-4.74399995803833,-0.0780000016093254,-9.723999977111816,-1.5549999475479126
1621928826652,-0.699999988079071,-1.3789999485015867,-5.077000141143799,-0.1180000007152557,-9.6850004196167,-1.5479999780654907
1621928826662,-1.190000057220459,-1.1729999780654907,-5.039999961853027,-0.1959999948740005,-9.678000450134276,-1.587000012397766
1621928826672,-1.295000076293945,-0.7954999804496765,-5.364500045776367,-0.2349999994039535,-9.638999938964846,-1.5800000429153442
1621928826682,-1.399999976158142,-0.4180000126361846,-5.689000129699707,-0.2750000059604644,-9.604999542236328,-1.7730000019073486
1621928826692,-1.4700000286102295,-0.1870000064373016,-5.790999889373779,-0.2750000059604644,-9.612000465393066,-1.7350000143051147
1621928826702,-1.4700000286102295,1.0369999408721924,-6.284999847412109,-0.3140000104904174,-9.60099983215332,-1.5729999542236328
1621928826712,-1.4700000286102295,1.9579999446868896,-6.264999866485596,-0.3140000104904174,-9.55500030517578,-1.6050000190734863
1621928826722,-1.399999976158142,2.371000051498413,-6.191999912261963,-0.3140000104904174,-9.55500030517578,-1.6050000190734863
1621928826732,-1.399999976158142,2.7039999961853027,-6.063000202178955,-0.3140000104904174,-9.517000198364256,-1.5980000495910645
1621928826742,-1.190000057220459,3.937000036239624,-6.201000213623047,-0.3529999852180481,-9.55500030517578,-1.6050000190734863
1621928826752,-0.9100000262260436,4.548999786376953,-6.447999954223633,-0.3529999852180481,-9.541999816894531,-1.6820000410079956
1621928826762,-0.5600000023841857,5.485000133514404,-6.922999858856201,-0.2750000059604644,-9.53499984741211,-1.7209999561309814
1621928826772,-0.2800000011920929,6.110000133514404,-7.238999843597413,-0.2750000059604644,-9.489999771118164,-1.753000020980835
1621928826782,-0.1400000005960464,6.7829999923706055,-6.623000144958496,-0.2750000059604644,-9.520999908447264,-1.7979999780654907
1621928826792,0.0,7.598000049591064,-6.4079999923706055,-0.3140000104904174,-9.489999771118164,-1.753000020980835
1621928826802,0.0700000002980232,8.288000106811523,-6.285999774932861,-0.3140000104904174,-9.496000289916992,-1.7139999866485596
1621928826812,0.4199999868869781,9.053999900817873,-5.796000003814697,-0.3140000104904174,-9.548999786376951,-1.6440000534057615
1621928826822,0.9100000262260436,9.60099983215332,-6.480999946594238,-0.2750000059604644,-9.586999893188477,-1.6510000228881836
1621928826832,0.7699999809265136,10.22599983215332,-6.797999858856201,-0.2349999994039535,-9.619000434875488,-1.6959999799728394
1621928826842,0.3499999940395355,10.720000267028809,-6.781000137329102,-0.1959999948740005,-9.619000434875488,-1.6959999799728394
1621928826852,0.1400000005960464,11.211000442504885,-7.547999858856201,-0.1959999948740005,-9.619000434875488,-1.6959999799728394
1621928826862,0.0,11.333000183105469,-8.237000465393066,-0.1570000052452087,-9.619000434875488,-1.6959999799728394
1621928826872,-0.0700000002980232,10.857999801635742,-7.9660000801086435,-0.0390000008046627,-9.586999893188477,-1.6510000228881836
1621928826882,-0.0700000002980232,9.921999931335447,-7.491000175476073,-0.0390000008046627,-9.503000259399414,-1.6759999990463257
1621928826892,0.0,9.277000427246092,-7.461999893188477,-0.0390000008046627,-9.458000183105469,-1.7070000171661377
1621928826902,0.2450000047683715,8.794500350952148,-7.547499656677246,-0.0390000008046627,-9.503000259399414,-1.6759999990463257
1621928826912,0.4900000095367431,8.312000274658203,-7.632999897003175,-0.0390000008046627,-9.470999717712402,-1.6299999952316284
1621928826922,1.3300000429153442,8.015999794006348,-7.968999862670899,-0.0780000016093254,-9.55500030517578,-1.6050000190734863
1621928826932,1.8899999856948853,7.801000118255616,-8.362000465393066,-0.0780000016093254,-9.517000198364256,-1.5980000495910645
1621928826942,2.380000114440918,7.630000114440918,-8.605999946594238,-0.1180000007152557,-9.55500030517578,-1.6050000190734863
1621928826952,3.0799999237060547,7.76800012588501,-8.581000328063965,-0.1180000007152557,-9.562000274658203,-1.5670000314712524
1621928826962,3.1500000953674316,8.156999588012695,-8.371000289916992,-0.1570000052452087,-9.562000274658203,-1.5670000314712524
1621928826972,3.430000066757202,8.420999526977539,-8.253000259399414,-0.1570000052452087,-9.60099983215332,-1.5729999542236328
1621928826982,3.2899999618530273,8.984999656677246,-8.225000381469727,-0.1959999948740005,-9.60099983215332,-1.5729999542236328
1621928826992,3.359999895095825,9.901000022888184,-7.77899980545044,-0.2750000059604644,-9.62600040435791,-1.656999945640564
1621928827002,3.2200000286102295,10.635000228881836,-7.506999969482423,-0.2750000059604644,-9.633000373840332,-1.61899995803833
1621928827012,2.799999952316284,11.44200038909912,-7.64900016784668,-0.2750000059604644,-9.638999938964846,-1.5800000429153442
1621928827022,2.7300000190734863,12.289999961853027,-7.2160000801086435,-0.2349999994039535,-9.633000373840332,-1.61899995803833
1621928827032,2.5199999809265137,13.079999923706056,-6.86299991607666,-0.1959999948740005,-9.67099952697754,-1.6260000467300415
1621928827042,2.7300000190734863,13.55500030517578,-7.135000228881836,-0.1959999948740005,-9.62600040435791,-1.656999945640564
1621928827052,2.380000114440918,14.31700038909912,-7.427000045776368,-0.1180000007152557,-9.62600040435791,-1.656999945640564
1621928827062,2.1700000762939453,14.223999977111816,-7.301000118255616,-0.1180000007152557,-9.633000373840332,-1.61899995803833
1621928827072,2.240000009536743,14.244000434875488,-7.013000011444092,-0.1180000007152557,-9.607999801635742,-1.5349999666213987
1621928827074,,,,,,
1621928827082,2.309999942779541,14.366000175476074,-6.49399995803833,-0.0780000016093254,-9.652999877929688,-1.503000020980835
1621928827092,2.309999942779541,14.333000183105469,-6.7129998207092285,-0.0390000008046627,-9.61400032043457,-1.4960000514984133
1621928827102,2.240000009536743,14.08199977874756,-6.900000095367432,-0.0390000008046627,-9.645999908447264,-1.5420000553131104
1621928827112,2.240000009536743,14.126999855041504,-6.749000072479248,0.0,-9.638999938964846,-1.5800000429153442
1621928827122,2.0299999713897705,13.477999687194824,-6.295000076293945,-0.0390000008046627,-9.607999801635742,-1.5349999666213987
1621928827132,2.240000009536743,12.970999717712402,-6.242000102996826,0.0,-9.607999801635742,-1.5349999666213987
1621928827142,2.1700000762939453,12.736000061035156,-5.715000152587891,-0.0390000008046627,-9.638999938964846,-1.5800000429153442
1621928827152,2.134999990463257,12.656999588012695,-5.871000289916992,-0.0390000008046627,-9.607999801635742,-1.5349999666213987
