timestamp,gyro_x,gyro_y,gyro_z,acc_x,acc_y,acc_z
1621585516819,0.0,0.0,0.0,0.0,0.0,0.0
1621585516828,-7.139999866485596,74.55899810791016,-58.430999755859375,0.5879999995231628,-9.72700023651123,3.661999940872192
1621585516838,-7.8400001525878915,72.38500213623047,-59.80899810791016,0.6280000209808348,-9.682000160217283,3.630000114440918
1621585516848,-8.470000267028809,70.97000122070312,-61.054000854492195,0.6280000209808348,-9.597999572753906,3.6050000190734863
1621585516858,-8.819999694824219,69.79000091552734,-60.40900039672851,0.6280000209808348,-9.45699977874756,3.7100000381469727
1621585516868,-8.539999961853027,68.71199798583984,-59.53300094604492,0.6280000209808348,-9.340999603271484,3.7300000190734863
1621585516878,-7.8400001525878915,68.1240005493164,-58.21500015258789,0.7850000262260437,-9.218000411987305,3.711999893188477
1621585516888,-7.070000171661377,67.11399841308594,-56.11800003051758,0.9020000100135804,-9.116000175476074,3.809999942779541
1621585516898,-6.300000190734863,66.20700073242188,-52.582000732421875,0.9409999847412108,-9.006999969482422,3.8689999580383305
1621585516908,-5.670000076293945,64.33000183105469,-48.79100036621094,0.981000006198883,-8.85200023651123,3.8959999084472656
1621585516918,-5.53000020980835,62.529998779296875,-45.8380012512207,1.0199999809265137,-8.814000129699707,3.9030001163482666
1621585516928,-5.53000020980835,60.757999420166016,-43.45000076293945,1.0199999809265137,-8.690999984741211,3.884999990463257
1621585516938,-5.949999809265137,58.78300094604492,-41.52299880981445,1.0199999809265137,-8.645999908447266,3.8529999256134033
1621585516948,-6.860000133514404,56.69900131225586,-40.185001373291016,1.0590000152587893,-8.593000411987305,3.7820000648498535
1621585516958,-8.260000228881836,54.57899856567382,-39.847999572753906,1.0199999809265137,-8.586999893188477,3.7439999580383305
1621585516968,-8.75,54.06999969482422,-40.186500549316406,1.0199999809265137,-8.534000396728516,3.67300009727478
1621585516978,-9.239999771118164,53.56100082397461,-40.525001525878906,1.1380000114440918,-8.48900032043457,3.6410000324249263
1621585516988,-9.800000190734863,52.3120002746582,-41.10100173950195,1.2549999952316284,-8.333999633789062,3.6689999103546143
1621585516998,-10.5,50.62900161743164,-40.82899856567382,1.4119999408721924,-8.288999557495117,3.63700008392334
1621585517008,-10.220000267028809,48.66999816894531,-40.60499954223633,1.5299999713897705,-8.244000434875488,3.6050000190734863
1621585517018,-9.3100004196167,46.631000518798835,-39.117000579833984,1.687000036239624,-8.17300033569336,3.6570000648498535
1621585517028,-8.260000228881836,44.5880012512207,-37.202999114990234,1.72599995136261,-8.218999862670898,3.688999891281128
1621585517038,-7.280000209808349,42.48699951171875,-35.36899948120117,1.72599995136261,-8.263999938964844,3.7209999561309814
1621585517048,-6.71999979019165,41.4900016784668,-34.54999923706055,1.6080000400543213,-8.446000099182129,3.848000049591065
1621585517058,-6.440000057220459,41.948001861572266,-35.5359992980957,1.5299999713897705,-8.652999877929688,3.8910000324249263
1621585517068,-6.789999961853027,42.970001220703125,-36.49300003051758,1.5299999713897705,-8.859000205993652,3.934999942779541
1621585517078,-7.489999771118165,44.250999450683594,-36.90700149536133,1.5299999713897705,-9.142999649047852,3.96399998664856
1621585517088,-8.680000305175781,45.34199905395508,-36.64300155639648,1.569000005722046,-9.258999824523924,3.9440000057220455
1621585517098,-10.149999618530272,46.09199905395508,-35.65800094604492,1.687000036239624,-9.291000366210936,3.8980000019073486
1621585517108,-11.829999923706056,46.57899856567382,-34.790000915527344,1.7649999856948853,-9.329999923706056,3.8919999599456783
1621585517118,-12.949999809265137,46.91999816894531,-34.30400085449219,1.8830000162124632,-9.322999954223633,3.8529999256134033
1621585517128,-12.949999809265137,46.8380012512207,-34.24700164794922,2.000999927520752,-9.199999809265137,3.8350000381469727
1621585517138,-12.460000038146973,46.194000244140625,-34.21799850463867,2.236000061035156,-9.04599952697754,3.861999988555908
1621585517148,-11.130000114440918,45.32600021362305,-33.731998443603516,2.313999891281128,-8.993000030517578,3.7920000553131104
1621585517158,-9.520000457763674,44.40999984741211,-34.178001403808594,2.3929998874664307,-8.940999984741211,3.7209999561309814
1621585517168,-8.78499984741211,44.13800048828125,-34.652000427246094,2.431999921798706,-8.928000450134277,3.6440000534057617
1621585517178,-8.050000190734863,43.86600112915039,-35.125999450683594,2.4709999561309814,-8.946000099182129,3.5209999084472656
1621585517188,-7.070000171661377,43.314998626708984,-35.2239990234375,2.4709999561309814,-8.932000160217285,3.444000005722046
1621585517198,-6.860000133514404,43.618999481201165,-35.73899841308594,2.4709999561309814,-8.880000114440918,3.372999906539917
1621585517208,-7.0,44.45000076293945,-36.01900100708008,2.510999917984009,-8.866000175476074,3.2960000038146973
1621585517218,-7.349999904632568,45.435001373291016,-36.76900100708008,2.549999952316284,-8.729999542236328,3.200999975204468
1621585517228,-7.280000209808349,46.40399932861328,-37.02399826049805,2.628000020980835,-8.638999938964844,3.13700008392334
1621585517238,-6.929999828338623,47.38999938964844,-36.56600189208984,2.746000051498413,-8.541000366210938,3.0350000858306885
1621585517248,-5.53000020980835,47.72200012207031,-36.4370002746582,2.8239998817443848,-8.527999877929688,2.9570000171661377
1621585517258,-4.550000190734863,47.814998626708984,-36.5620002746582,2.9030001163482666,-8.559000015258789,2.9119999408721924
1621585517268,-3.9200000762939458,47.11399841308594,-35.40700149536133,3.0199999809265137,-8.630000114440918,2.859999895095825
1621585517278,-3.7799999713897705,46.429000854492195,-33.5369987487793,3.0199999809265137,-8.675000190734863,2.8919999599456787
1621585517288,-4.059999942779541,46.012001037597656,-31.97599983215332,3.138000011444092,-8.699999809265137,2.808000087738037
1621585517298,-4.619999885559082,45.946998596191406,-29.996999740600582,3.138000011444092,-8.765999794006348,2.9549999237060547
1621585517308,-4.900000095367432,46.571998596191406,-27.89699935913086,3.0989999771118164,-8.741000175476074,3.0390000343322754
1621585517318,-5.039999961853027,47.13199996948242,-26.233999252319336,3.0199999809265137,-8.715999603271484,3.122999906539917
1621585517328,-4.690000057220459,48.17399978637695,-24.48699951171875,2.9809999465942383,-8.600000381469727,3.1440000534057617
1621585517338,-4.199999809265137,49.5369987487793,-22.540000915527344,2.9809999465942383,-8.529999732971191,3.196000099182129
1621585517348,-3.1500000953674316,50.542999267578125,-20.586000442504883,2.941999912261963,-8.498000144958496,3.2420001029968266
1621585517358,-2.380000114440918,51.53200149536133,-19.344999313354492,2.941999912261963,-8.505000114440918,3.2799999713897705
1621585517368,-1.2599999904632568,52.19300079345703,-18.65999984741211,2.941999912261963,-8.550000190734863,3.312000036239624
1621585517378,-1.1200000047683716,52.30899810791016,-18.10649871826172,3.0199999809265137,-8.633999824523926,3.336999893188477
1621585517388,-0.9800000190734864,52.42499923706055,-17.55299949645996,3.0199999809265137,-8.756999969482422,3.3550000190734863
1621585517398,-1.0499999523162842,52.06399917602539,-15.91100025177002,3.0199999809265137,-8.833999633789062,3.3420000076293945
1621585517408,-2.1700000762939453,51.39099884033203,-14.109999656677246,3.0199999809265137,-8.906999588012695,3.5280001163482666
1621585517418,-4.900000095367432,50.08599853515625,-12.350000381469728,3.0989999771118164,-8.946000099182129,3.5209999084472656
1621585517428,-7.980000019073486,48.68299865722656,-11.246999740600586,3.0989999771118164,-8.817999839782715,3.7030000686645503
1621585517438,-10.779999732971191,46.448001861572266,-11.072999954223633,3.0199999809265137,-8.631999969482422,3.776000022888184
1621585517448,-13.090000152587892,44.810001373291016,-10.651000022888184,2.941999912261963,-8.477999687194824,3.802999973297119
1621585517458,-15.1899995803833,43.902000427246094,-10.739999771118164,2.864000082015991,-8.406999588012695,3.8550000190734863
1621585517468,-16.8700008392334,43.1349983215332,-11.229999542236328,2.7850000858306885,-8.368000030517578,3.861999988555908
1621585517478,-17.56999969482422,41.926998138427734,-10.022000312805176,2.746000051498413,-8.529999732971191,3.872999906539917
1621585517488,-18.34000015258789,40.79600143432618,-8.444000244140625,2.5889999866485596,-8.722999572753906,3.83899998664856
1621585517498,-19.25,40.29800033569336,-6.826000213623047,2.4709999561309814,-8.890999794006348,3.888999938964844
1621585517508,-19.8799991607666,40.75199890136719,-6.177000045776367,2.4709999561309814,-9.0,3.8299999237060542
1621585517518,-21.0,40.869998931884766,-5.232999801635742,2.4709999561309814,-9.55500030517578,3.812000036239624
1621585517528,-21.06999969482422,41.65599822998047,-4.453999996185303,2.3540000915527344,-9.722999572753906,3.861999988555908
1621585517538,-20.86000061035156,43.45199966430664,-6.980999946594238,2.2750000953674316,-9.288999557495115,3.660000085830689
1621585517548,-21.90999984741211,43.979000091552734,-7.953999996185303,2.3929998874664307,-9.376999855041506,3.484999895095825
1621585517558,-23.59000015258789,43.38399887084961,-2.1589999198913574,2.431999921798706,-9.91100025177002,3.3510000705718994
1621585517568,-24.010000228881836,43.04399871826172,-0.2290000021457672,2.2750000953674316,-10.21399974822998,3.2579998970031734
1621585517578,-23.309999465942383,43.33100128173828,-5.083000183105469,2.197000026702881,-10.109000205993652,3.1170001029968266
1621585517588,-23.520000457763672,43.22949981689453,-5.314000129699707,2.2750000953674316,-10.03600025177002,2.930000066757202
1621585517598,-23.729999542236328,43.12799835205078,-5.545000076293945,2.236000061035156,-9.95699977874756,2.7049999237060547
1621585517608,-25.760000228881836,43.14500045776367,0.0020000000949949,2.0399999618530273,-9.843000411987305,2.2869999408721924
1621585517618,-27.579999923706055,43.12099838256836,1.3480000495910645,2.000999927520752,-9.977999687194824,2.1440000534057617
1621585517628,-28.489999771118164,42.99100112915039,-0.7360000014305114,1.9220000505447388,-9.880000114440918,2.0420000553131104
1621585517638,-28.770000457763672,43.73699951171875,-0.5329999923706054,1.9220000505447388,-9.781999588012695,1.940000057220459
1621585517648,-27.440000534057617,44.707000732421875,1.628000020980835,1.8830000162124632,-9.814000129699709,1.8940000534057615
1621585517658,-24.63999938964844,45.23400115966797,3.071000099182129,1.843999981880188,-9.76900005340576,1.861999988555908
1621585517668,-21.90999984741211,45.02399826049805,7.085999965667725,1.72599995136261,-9.63199996948242,1.7669999599456787
1621585517678,-19.670000076293945,43.354000091552734,13.331000328063965,1.687000036239624,-9.649999618530272,1.6440000534057615
1621585517688,-17.780000686645508,40.881000518798835,20.5,1.6080000400543213,-9.746000289916992,1.5080000162124634
1621585517698,-16.100000381469727,37.59000015258789,27.881000518798828,1.3730000257492063,-9.833999633789062,1.3329999446868896
1621585517708,-15.1899995803833,33.742000579833984,34.38199996948242,1.1380000114440918,-9.944000244140623,1.27400004863739
1621585517718,-14.5600004196167,30.417999267578125,39.125999450683594,0.981000006198883,-10.013999938964844,1.2220000028610227
1621585517728,-14.489999771118164,27.660999298095703,42.26499938964844,0.7450000047683715,-9.93000030517578,1.1970000267028809
1621585517738,-15.119999885559082,24.55500030517578,44.56100082397461,0.4709999859333038,-9.916000366210936,1.11899995803833
1621585517748,-16.309999465942383,22.25200080871582,44.722999572753906,0.2349999994039535,-9.940999984741213,1.0349999666213987
1621585517758,-17.290000915527344,20.93000030517578,43.35300064086914,0.0,-9.850000381469728,0.9720000028610228
1621585517768,-18.200000762939453,20.082000732421875,40.50299835205078,-0.1959999948740005,-9.88199996948242,0.9259999990463256
1621585517778,-18.270000457763672,19.92300033569336,37.77399826049805,-0.3140000104904174,-9.906999588012695,0.8420000076293945
1621585517788,-18.059999465942383,19.68000030517578,36.73500061035156,-0.4709999859333038,-9.906999588012695,0.8420000076293945
1621585517798,-18.165000915527344,19.590499877929688,36.43499755859375,-0.5879999995231628,-9.8100004196167,0.740000009536743
1621585517808,-18.270000457763672,19.500999450683594,36.1349983215332,-0.6669999957084655,-9.64099979400635,0.6899999976158142
1621585517818,-18.479999542236328,19.655000686645508,34.457000732421875,-0.7059999704360961,-9.512000083923342,0.6330000162124633
1621585517828,-18.479999542236328,19.45199966430664,32.7859992980957,-0.7850000262260437,-9.42099952697754,0.5690000057220459
1621585517838,-18.6200008392334,19.378999710083008,30.78300094604492,-0.8629999756813049,-9.42099952697754,0.5690000057220459
1621585517848,-19.040000915527344,19.582000732421875,28.82799911499023,-0.9409999847412108,-9.460000038146973,0.5630000233650208
1621585517858,-19.38999938964844,19.844999313354492,26.52899932861328,-0.9409999847412108,-9.369000434875488,0.4990000128746032
1621585517868,-19.600000381469727,20.392000198364254,24.635000228881836,-1.0590000152587893,-9.232000350952148,0.402999997138977
1621585517878,-19.530000686645508,20.347000122070312,23.277000427246097,-1.0980000495910645,-9.071000099182127,0.3919999897480011
1621585517888,-19.670000076293945,20.854000091552734,22.016000747680664,-1.1770000457763672,-8.961999893188477,0.4510000050067901
1621585517898,-19.8799991607666,21.47800064086914,20.49099922180176,-1.2940000295639038,-8.961999893188477,0.4510000050067901
1621585517908,-19.809999465942383,21.916000366210938,19.218000411987305,-1.491000056266785,-9.031999588012695,0.3989999890327453
1621585517918,-19.600000381469727,22.81999969482422,17.31599998474121,-1.6480000019073486,-9.038999557495115,0.4379999935626983
1621585517928,-19.31999969482422,24.513999938964844,14.55799961090088,-1.7649999856948853,-9.07800006866455,0.4309999942779541
1621585517938,-19.11000061035156,25.87299919128418,12.095999717712402,-1.843999981880188,-9.194000244140623,0.4099999964237213
1621585517948,-18.40999984741211,27.96500015258789,9.906999588012695,-1.9220000505447388,-9.263999938964846,0.3580000102519989
1621585517958,-18.549999237060547,29.371000289916992,8.378000259399414,-1.9609999656677248,-9.211999893188477,0.2879999876022338
1621585517968,-18.899999618530273,30.37700080871582,6.706999778747559,-2.0399999618530273,-9.204999923706056,0.248999997973442
1621585517978,-18.829999923706055,30.899999618530273,4.951000213623047,-2.118000030517578,-9.15999984741211,0.2169999927282333
1621585517988,-18.270000457763672,31.301000595092773,2.6760001182556152,-2.1570000648498535,-9.076000213623049,0.19200000166893
1621585517998,-17.954999923706055,31.35950088500977,1.3360000848770142,-2.197000026702881,-9.076000213623049,0.19200000166893
1621585518008,-17.639999389648438,31.417999267578125,-0.0040000001899898,-2.197000026702881,-9.029999732971191,0.1599999964237213
1621585518018,-16.65999984741211,31.417999267578125,-3.630000114440918,-2.197000026702881,-8.883000373840332,0.2259999960660934
1621585518028,-14.630000114440918,31.704999923706055,-7.275000095367432,-2.118000030517578,-8.883000373840332,0.2259999960660934
1621585518038,-12.739999771118164,31.083999633789062,-9.800999641418455,-2.0789999961853027,-8.960000038146973,0.2129999995231628
1621585518048,-11.270000457763672,30.350000381469727,-11.281000137329102,-2.0789999961853027,-9.043999671936035,0.2380000054836273
1621585518058,-9.800000190734863,28.930999755859375,-13.30799961090088,-2.000999927520752,-9.276000022888184,0.1969999969005584
1621585518068,-9.029999732971191,28.049999237060547,-15.170000076293944,-2.000999927520752,-9.42300033569336,0.1309999972581863
1621585518078,-9.029999732971191,27.231000900268555,-17.375,-1.9609999656677248,-9.623000144958496,0.135000005364418
1621585518088,-10.149999618530272,26.167999267578125,-19.410999298095703,-1.9609999656677248,-9.73900032043457,0.1150000020861625
1621585518098,-11.760000228881836,24.91900062561035,-21.19499969482422,-2.000999927520752,-9.78499984741211,0.1469999998807907
1621585518108,-13.300000190734863,23.95800018310547,-22.999000549316406,-2.0399999618530273,-9.869000434875488,0.1720000058412551
1621585518118,-14.0,23.847999572753903,-26.003999710083008,-2.0789999961853027,-9.869000434875488,0.1720000058412551
1621585518128,-14.5600004196167,23.708999633789062,-29.652999877929688,-2.000999927520752,-9.87600040435791,0.209999993443489
1621585518138,-14.5600004196167,24.555999755859375,-34.053001403808594,-1.9609999656677248,-9.836999893188477,0.2169999927282333
1621585518148,-14.630000114440918,24.535999298095703,-36.757999420166016,-1.8830000162124632,-9.836999893188477,0.2169999927282333
1621585518158,-14.489999771118164,24.349000930786133,-38.92300033569336,-1.7649999856948853,-9.79800033569336,0.2240000069141387
1621585518168,-14.350000381469728,24.344999313354492,-40.91400146484375,-1.72599995136261,-9.682000160217283,0.2440000027418136
1621585518178,-14.210000038146973,24.54700088500977,-42.868999481201165,-1.6080000400543213,-9.597999572753906,0.2189999967813491
1621585518188,-14.0,25.357999801635746,-45.85300064086914,-1.4509999752044678,-9.48900032043457,0.2790000140666961
1621585518198,-13.965000152587892,25.704500198364254,-47.2135009765625,-1.2940000295639038,-9.366999626159668,0.2599999904632568
1621585518208,-13.93000030517578,26.051000595092773,-48.57400131225586,-1.0980000495910645,-9.32800006866455,0.2669999897480011
1621585518218,-13.579999923706056,27.209999084472656,-50.71599960327149,-0.6280000209808348,-9.211999893188477,0.2879999876022338
1621585518228,-13.369999885559082,28.11400032043457,-52.617000579833984,-0.3919999897480011,-9.592000007629396,0.1809999942779541
1621585518238,-13.159999847412108,28.899999618530273,-54.256000518798835,-0.1570000052452087,-10.08199977874756,0.2540000081062316
1621585518248,-12.670000076293944,29.35099983215332,-54.38999938964844,-0.0390000008046627,-10.345999717712402,0.1669999957084655
1621585518258,-12.039999961853027,29.979000091552734,-52.71500015258789,0.1180000007152557,-10.616000175476074,0.1199999973177909
1621585518268,-11.409999847412108,30.113000869750977,-52.26499938964844,0.3529999852180481,-11.003000259399414,0.0520000010728836
1621585518278,-10.920000076293944,30.308000564575195,-52.15999984741211,0.5099999904632568,-11.75,-0.0010000000474974
1621585518288,-10.5,31.163999557495117,-50.1609992980957,0.6280000209808348,-12.258999824523926,-0.0509999990463256
1621585518298,-10.989999771118164,31.951000213623047,-46.96500015258789,0.7450000047683715,-12.413999557495115,-0.0780000016093254
1621585518308,-10.56999969482422,32.51499938964844,-44.52000045776367,0.981000006198883,-12.30500030517578,-0.0189999993890523
1621585518318,-8.75,32.46200180053711,-42.61000061035156,1.1380000114440918,-11.718000411987305,0.0450000017881393
1621585518328,-6.300000190734863,31.732999801635746,-38.4739990234375,1.2549999952316284,-11.029999732971191,0.2060000002384185
1621585518338,-3.1500000953674316,30.30299949645996,-31.974000930786133,1.3339999914169312,-10.453000068664553,0.5469999909400939
1621585518347,0.5600000023841857,28.246999740600582,-26.364999771118164,1.4119999408721924,-10.138999938964844,0.8009999990463256
1621585518357,5.25,26.07799911499023,-23.336000442504883,1.4119999408721924,-9.762000083923342,1.1469999551773071
1621585518367,11.479999542236328,24.461000442504883,-22.625999450683594,1.491000056266785,-9.248000144958496,1.3969999551773071
1621585518377,17.780000686645508,23.292999267578125,-24.46699905395508,1.5299999713897705,-8.946000099182129,1.4900000095367432
1621585518387,20.405000686645508,22.980499267578125,-25.516998291015625,1.491000056266785,-8.793999671936035,1.7549999952316284
1621585518397,23.030000686645508,22.667999267578125,-26.566999435424805,1.491000056266785,-8.729999542236328,1.8459999561309817
1621585518407,25.899999618530273,22.777000427246097,-27.187999725341797,1.5299999713897705,-8.944000244140625,1.9279999732971191
1621585518417,25.899999618530273,23.388999938964844,-27.434999465942383,1.5299999713897705,-9.279999732971191,2.0280001163482666
1621585518427,24.010000228881836,24.53300094604492,-26.665000915527344,1.5299999713897705,-9.633999824523924,2.00600004196167
1621585518437,21.0,25.486000061035156,-25.21699905395508,1.5299999713897705,-9.79599952697754,2.0169999599456787
1621585518447,17.989999771118164,26.42300033569336,-23.274999618530273,1.5299999713897705,-9.840999603271484,2.049000024795532
1621585518457,15.050000190734863,27.18600082397461,-21.150999069213867,1.5299999713897705,-9.763999938964846,2.062000036239624
1621585518467,12.25,27.839000701904297,-17.19700050354004,1.491000056266785,-9.803000450134276,2.055999994277954
1621585518477,9.9399995803833,27.656999588012695,-12.538000106811523,1.4509999752044678,-9.763999938964846,2.062000036239624
1621585518487,7.9099998474121085,27.496000289916992,-8.798999786376953,1.4509999752044678,-9.633999824523924,2.00600004196167
1621585518497,6.510000228881836,27.24099922180176,-6.14300012588501,1.4509999752044678,-9.505000114440918,1.9490000009536743
1621585518507,5.809999942779541,25.988000869750977,-3.875999927520752,1.3730000257492063,-9.395999908447264,2.0079998970031734
1621585518517,5.809999942779541,24.492000579833984,-2.6470000743865967,1.2940000295639038,-9.241000175476074,2.0350000858306885
1621585518527,7.0,23.45400047302246,-2.4040000438690186,1.2549999952316284,-9.13199996948242,2.0940001010894775
1621585518537,8.609999656677246,22.707000732421875,-3.815000057220459,1.2549999952316284,-9.184000015258787,2.1649999618530273
1621585518547,9.9399995803833,22.50900077819824,-4.703000068664551,1.2549999952316284,-9.190999984741213,2.203000068664551
1621585518557,10.5,21.90399932861328,-5.307000160217285,1.2549999952316284,-9.166000366210936,2.2869999408721924
1621585518567,11.0600004196167,20.927000045776367,-6.617000102996826,1.3339999914169312,-9.18000030517578,2.365000009536743
1621585518577,11.199999809265137,19.38999938964844,-7.171999931335449,1.2940000295639038,-9.218999862670898,2.3580000400543213
1621585518587,10.989999771118164,18.822498321533203,-7.378499984741211,1.2940000295639038,-9.309000015258787,2.4210000038146973
1621585518597,10.779999732971191,18.2549991607666,-7.585000038146973,1.2940000295639038,-9.347999572753906,2.4149999618530273
1621585518607,9.869999885559082,17.2450008392334,-7.906000137329101,1.3339999914169312,-9.354999542236328,2.453000068664551
1621585518617,8.119999885559082,16.656999588012695,-9.003999710083008,1.2940000295639038,-9.354999542236328,2.453000068664551
1621585518627,6.300000190734863,16.583999633789062,-9.798999786376951,1.3339999914169312,-9.392999649047852,2.446000099182129
1621585518637,4.480000019073486,16.742000579833984,-9.487000465393066,1.3730000257492063,-9.354999542236328,2.453000068664551
1621585518647,2.380000114440918,17.04599952697754,-8.793999671936035,1.3730000257492063,-9.29599952697754,2.3440001010894775
1621585518657,1.1200000047683716,17.427000045776367,-8.9399995803833,1.4119999408721924,-9.263999938964846,2.390000104904175
1621585518667,0.0,18.54599952697754,-9.239999771118164,1.4509999752044678,-9.322999954223633,2.499000072479248
1621585518677,-0.9100000262260436,20.10300064086914,-9.604999542236328,1.5299999713897705,-9.263999938964846,2.390000104904175
1621585518687,-2.5199999809265137,21.725000381469727,-9.531999588012695,1.569000005722046,-9.17300033569336,2.325999975204468
1621585518697,-3.569999933242798,23.850000381469727,-9.086999893188477,1.6480000019073486,-9.133999824523924,2.3329999446868896
1621585518707,-4.900000095367432,26.104999542236328,-8.972999572753906,1.72599995136261,-9.005000114440918,2.2760000228881836
1621585518717,-5.739999771118164,27.81599998474121,-7.392000198364258,1.843999981880188,-8.850000381469727,2.302999973297119
1621585518727,-6.579999923706055,29.24799919128418,-5.434000015258789,1.8830000162124632,-8.734999656677246,2.3239998817443848
1621585518737,-6.440000057220459,30.42799949645996,-3.661999940872192,1.9220000505447388,-8.663999557495117,2.375999927520752
1621585518747,-5.179999828338623,31.628999710083008,-2.809999942779541,1.9220000505447388,-8.593999862670898,2.427999973297119
1621585518757,-3.9200000762939458,32.784000396728516,-2.1089999675750732,1.843999981880188,-8.477999687194824,2.447999954223633
1621585518767,-1.9600000381469729,33.85900115966797,-1.35099995136261,1.8040000200271609,-8.52299976348877,2.4800000190734863
1621585518777,0.0,35.03099822998047,-1.1440000534057615,1.843999981880188,-8.729999542236328,2.5239999294281006
1621585518787,0.8399999737739563,35.59649658203125,-0.7245000600814819,1.72599995136261,-8.968999862670898,2.5209999084472656
1621585518797,1.6799999475479126,36.1619987487793,-0.3050000071525573,1.6080000400543213,-9.291000366210936,2.5439999103546143
1621585518807,3.009999990463257,37.71500015258789,-1.4529999494552612,1.6080000400543213,-9.762000083923342,2.500999927520752
1621585518817,3.7100000381469727,39.72600173950195,-3.5859999656677246,1.491000056266785,-10.140999794006348,2.3940000534057617
1621585518827,3.990000009536743,42.22800064086914,-5.2769999504089355,1.4509999752044678,-10.281999588012695,2.2899999618530273
1621585518837,3.849999904632568,44.141998291015625,-6.859000205993652,1.3730000257492063,-10.383999824523926,2.191999912261963
1621585518847,2.5199999809265137,44.77399826049805,-6.818999767303467,1.3339999914169312,-10.29300022125244,2.128000020980835
1621585518857,0.7699999809265136,44.85200119018555,-5.241000175476074,1.2549999952316284,-10.125,2.078000068664551
1621585518867,-1.75,44.15800094604492,-3.7290000915527344,1.1770000457763672,-9.892999649047852,2.11899995803833
1621585518877,-2.940000057220459,42.722999572753906,-2.8440001010894775,1.0590000152587893,-9.687000274658203,2.075999975204468
1621585518887,-3.6400001049041744,40.40399932861328,-0.9789999723434448,0.9409999847412108,-9.479999542236328,2.0329999923706055
1621585518897,-3.569999933242798,37.80099868774414,0.481000006198883,0.8629999756813049,-9.428000450134276,1.962000012397766
1621585518907,-2.940000057220459,35.06800079345703,1.0659999847412107,0.7059999704360961,-9.472999572753906,1.99399995803833
1621585518917,-2.309999942779541,32.566001892089844,1.5490000247955322,0.5879999995231628,-9.574999809265137,1.8960000276565552
1621585518927,-1.2599999904632568,30.347999572753903,1.2280000448226929,0.4309999942779541,-9.607000350952148,1.85099995136261
1621585518937,0.1400000005960464,28.035999298095703,-0.1739999949932098,0.3140000104904174,-9.708999633789062,1.753000020980835
1621585518947,0.8399999737739563,25.886999130249023,-1.690000057220459,0.1959999948740005,-9.779999732971191,1.7009999752044678
1621585518957,1.6799999475479126,24.589000701904297,-3.1989998817443848,0.0780000016093254,-9.824999809265137,1.7330000400543213
1621585518967,2.450000047683716,23.55900001525879,-3.8069999217987065,-0.0390000008046627,-9.748000144958496,1.746999979019165
1621585518977,3.2200000286102295,23.079999923706055,-4.317999839782715,-0.1570000052452087,-9.678000450134276,1.7990000247955322
1621585518987,3.569999933242798,22.152000427246097,-3.486000061035156,-0.2349999994039535,-9.729999542236328,1.86899995803833
1621585518997,3.744999885559082,21.874500274658203,-2.7174999713897705,-0.3140000104904174,-9.814000129699709,1.8940000534057615
1621585519007,3.9200000762939458,21.597000122070312,-1.9490000009536743,-0.3919999897480011,-9.666000366210936,1.9600000381469729
1621585519017,4.130000114440918,21.27199935913086,-0.5139999985694885,-0.3919999897480011,-9.557000160217283,2.0190000534057617
1621585519027,4.199999809265137,20.7450008392334,0.4589999914169311,-0.4709999859333038,-9.494000434875488,2.109999895095825
1621585519037,3.9200000762939458,20.732999801635746,1.7369999885559082,-0.5490000247955322,-9.461999893188477,2.1549999713897705
1621585519047,3.0799999237060547,20.45400047302246,2.114000082015991,-0.5490000247955322,-9.416000366210936,2.124000072479248
1621585519057,2.240000009536743,20.920000076293945,1.4850000143051147,-0.6280000209808348,-9.42300033569336,2.1619999408721924
1621585519067,1.3300000429153442,20.891000747680664,0.8410000205039978,-0.6280000209808348,-9.454999923706056,2.1170001029968266
1621585519077,0.1400000005960464,21.138999938964844,0.2440000027418136,-0.6280000209808348,-9.479999542236328,2.0329999923706055
1621585519087,-1.399999976158142,21.774999618530273,-0.1410000026226043,-0.6669999957084655,-9.472999572753906,1.99399995803833
1621585519097,-3.2200000286102295,21.690000534057617,-0.8669999837875366,-0.7450000047683715,-9.434000015258787,2.000999927520752
1621585519107,-4.550000190734863,21.694000244140625,-1.2929999828338623,-0.7059999704360961,-9.458999633789062,1.9170000553131104
1621585519117,-5.809999942779541,21.95400047302246,-0.7490000128746032,-0.7059999704360961,-9.484000205993652,1.8329999446868896
1621585519127,-7.210000038146973,21.48699951171875,-0.1209999993443489,-0.6669999957084655,-9.425000190734863,1.7239999771118164
1621585519137,-7.210000038146973,20.437000274658203,0.19200000166893,-0.6669999957084655,-9.218999862670898,1.680999994277954
1621585519147,-6.300000190734863,20.117000579833984,-0.0070000002160668,-0.7059999704360961,-9.102999687194824,1.7009999752044678
1621585519157,-5.039999961853027,19.5,-0.5419999957084655,-0.6669999957084655,-9.08899974822998,1.6239999532699585
1621585519167,-3.430000066757202,18.82699966430664,-1.1579999923706057,-0.6669999957084655,-9.095999717712402,1.6619999408721924
1621585519177,-1.75,18.207000732421875,-1.2680000066757202,-0.6669999957084655,-9.17300033569336,1.64900004863739
1621585519187,0.0,17.549999237060547,-1.1699999570846558,-0.6669999957084655,-9.288999557495115,1.628000020980835
1621585519197,1.9600000381469729,16.767000198364258,-1.1660000085830688,-0.6669999957084655,-9.46399974822998,1.7170000076293943
1621585519207,3.1500000953674316,16.503999710083008,-1.284000039100647,-0.7059999704360961,-9.534000396728516,1.6649999618530271
1621585519217,3.7799999713897705,16.586999893188477,-1.5534999370574951,-0.6280000209808348,-9.541000366210936,1.7029999494552612
1621585519227,4.409999847412109,16.670000076293945,-1.8229999542236328,-0.6669999957084655,-9.572999954223633,1.6579999923706057
1621585519237,5.25,16.860000610351562,-2.5,-0.6280000209808348,-9.612000465393066,1.6510000228881836
1621585519247,5.389999866485596,17.115999221801758,-2.740000009536743,-0.6280000209808348,-9.70300006866455,1.7150000333786013
1621585519257,5.599999904632568,16.933000564575195,-2.9140000343322754,-0.6280000209808348,-9.734000205993652,1.6690000295639038
1621585519267,5.53000020980835,16.499000549316406,-3.2750000953674316,-0.5879999995231628,-9.67099952697754,1.7599999904632568
1621585519277,5.739999771118164,15.930999755859377,-4.085999965667725,-0.5490000247955322,-9.663999557495115,1.7220000028610227
1621585519287,5.670000076293945,15.699999809265137,-5.192999839782715,-0.5099999904632568,-9.70300006866455,1.7150000333786013
1621585519297,5.809999942779541,15.331000328063965,-6.323999881744385,-0.5490000247955322,-9.663999557495115,1.7220000028610227
1621585519307,5.880000114440918,15.399999618530272,-7.519999980926514,-0.5490000247955322,-9.593999862670898,1.77400004863739
1621585519317,5.599999904632568,15.520999908447266,-9.41800022125244,-0.5099999904632568,-9.63199996948242,1.7669999599456787
1621585519327,5.110000133514404,16.194000244140625,-11.218000411987305,-0.4709999859333038,-9.625,1.7280000448226929
1621585519337,4.269999980926514,16.867000579833984,-11.8100004196167,-0.3919999897480011,-9.593999862670898,1.77400004863739
1621585519347,3.6400001049041744,17.67799949645996,-12.378000259399414,-0.3140000104904174,-9.593999862670898,1.77400004863739
1621585519357,3.2200000286102295,18.440000534057617,-12.670000076293944,-0.2750000059604644,-9.565999984741213,1.61899995803833
1621585519367,2.309999942779541,19.003999710083008,-11.434000015258787,-0.2349999994039535,-9.612000465393066,1.6510000228881836
1621585519377,1.2599999904632568,18.915000915527344,-10.524999618530272,-0.1959999948740005,-9.656999588012695,1.6829999685287476
1621585519387,1.0499999523162842,19.30900001525879,-9.531999588012695,-0.2349999994039535,-9.696000099182127,1.6759999990463257
1621585519397,0.6299999952316284,19.636999130249023,-8.97599983215332,-0.2349999994039535,-9.625,1.7280000448226929
1621585519407,0.5600000023841857,19.718000411987305,-9.032999992370604,-0.2349999994039535,-9.625,1.7280000448226929
1621585519417,0.209999993443489,20.23699951171875,-9.154999732971191,-0.2349999994039535,-9.54800033569336,1.7419999837875366
1621585519427,0.5600000023841857,21.016000747680664,-9.94200038909912,-0.3140000104904174,-9.55500030517578,1.781000018119812
1621585519437,0.9800000190734864,21.542999267578125,-10.914999961853027,-0.2750000059604644,-9.55500030517578,1.781000018119812
1621585519447,1.0850000381469729,21.941999435424805,-11.164499282836914,-0.3529999852180481,-9.51599979400635,1.7869999408721924
1621585519457,1.190000057220459,22.340999603271484,-11.413999557495115,-0.3140000104904174,-9.477999687194824,1.7940000295639038
1621585519467,1.4700000286102295,23.958999633789062,-12.12399959564209,-0.3140000104904174,-9.477999687194824,1.7940000295639038
1621585519477,1.9600000381469729,25.68199920654297,-13.027999877929688,-0.2750000059604644,-9.484000205993652,1.8329999446868896
1621585519487,2.309999942779541,27.08099937438965,-13.706000328063965,-0.2349999994039535,-9.51599979400635,1.7869999408721924
1621585519497,2.7300000190734863,28.305999755859375,-14.199999809265137,-0.1959999948740005,-9.55500030517578,1.781000018119812
1621585519507,2.799999952316284,29.156999588012695,-14.19200038909912,-0.1959999948740005,-9.579999923706056,1.6959999799728394
1621585519517,3.1500000953674316,30.174999237060547,-14.723999977111816,-0.1959999948740005,-9.625,1.7280000448226929
1621585519527,3.2200000286102295,31.01499938964844,-14.647000312805176,-0.1959999948740005,-9.663999557495115,1.7220000028610227
1621585519537,3.0799999237060547,32.45000076293945,-14.322999954223633,-0.1570000052452087,-9.741000175476074,1.7079999446868896
1621585519547,3.1500000953674316,33.0099983215332,-13.869000434875488,-0.1570000052452087,-9.741000175476074,1.7079999446868896
1621585519557,2.869999885559082,33.89400100708008,-13.642000198364258,-0.1570000052452087,-9.779999732971191,1.7009999752044678
1621585519567,2.6600000858306885,34.652000427246094,-13.508000373840332,-0.1570000052452087,-9.812000274658203,1.656000018119812
1621585519577,2.0299999713897705,36.20500183105469,-13.446999549865724,-0.1959999948740005,-9.850000381469728,1.64900004863739
1621585519587,0.9800000190734864,37.542999267578125,-13.779999732971191,-0.2349999994039535,-9.843999862670898,1.6100000143051147
1621585519597,0.3499999940395355,39.34000015258789,-13.890000343322754,-0.2349999994039535,-9.875,1.565000057220459
1621585519607,-0.0700000002980232,40.94499969482422,-13.321999549865724,-0.2349999994039535,-9.829999923706056,1.5329999923706057
1621585519617,-0.209999993443489,42.064998626708984,-12.413999557495115,-0.2349999994039535,-9.784000396728516,1.5010000467300415
1621585519627,-0.209999993443489,43.382999420166016,-11.826000213623049,-0.2349999994039535,-9.746000289916992,1.5080000162124634
1621585519637,0.699999988079071,44.15299987792969,-11.76200008392334,-0.2750000059604644,-9.758999824523924,1.5850000381469729
1621585519647,0.9100000262260436,45.58100128173828,-11.793999671936035,-0.1570000052452087,-9.753000259399414,1.5470000505447388
1621585519657,1.2599999904632568,46.849998474121094,-12.138999938964844,-0.1959999948740005,-9.746000289916992,1.5080000162124634
1621585519667,1.399999976158142,47.250999450683594,-11.996999740600586,-0.1570000052452087,-9.73900032043457,1.468999981880188
1621585519677,0.8399999737739563,48.277000427246094,-12.171999931335447,-0.1570000052452087,-9.763999938964846,1.3849999904632568
1621585519687,-0.1400000005960464,48.71500015258789,-12.237000465393066,-0.0780000016093254,-9.803000450134276,1.378000020980835
1621585519697,-0.699999988079071,48.54050064086914,-12.054500579833984,0.0390000008046627,-9.840999603271484,1.371999979019165
1621585519707,-1.2599999904632568,48.36600112915039,-11.871999740600586,0.1570000052452087,-9.880000114440918,1.3650000095367432
1621585519717,-2.5899999141693115,47.45000076293945,-11.109000205993652,0.2349999994039535,-9.833999633789062,1.3329999446868896
1621585519727,-3.430000066757202,45.564998626708984,-10.090999603271484,0.3529999852180481,-9.79599952697754,1.3400000333786013
1621585519737,-4.340000152587891,43.45600128173828,-9.822999954223633,0.4309999942779541,-9.718999862670898,1.3530000448226929
1621585519747,-4.550000190734863,40.91299819946289,-9.916000366210936,0.4309999942779541,-9.602999687194824,1.3739999532699585
1621585519757,-4.619999885559082,38.81700134277344,-9.717000007629396,0.4709999859333038,-9.524999618530272,1.3869999647140503
1621585519767,-3.990000009536743,36.652000427246094,-9.529999732971191,0.4709999859333038,-9.40999984741211,1.4079999923706057
1621585519777,-3.2200000286102295,34.709999084472656,-8.593000411987305,0.4309999942779541,-9.371000289916992,1.4149999618530271
1621585519787,-2.0999999046325684,32.71500015258789,-8.163000106811523,0.3919999897480011,-9.371000289916992,1.4149999618530271
1621585519797,-0.699999988079071,30.500999450683594,-7.701000213623046,0.3140000104904174,-9.378000259399414,1.4529999494552612
1621585519807,0.699999988079071,29.069000244140625,-7.242000102996825,0.1570000052452087,-9.461999893188477,1.4780000448226929
1621585519817,1.3300000429153442,27.572999954223633,-6.013000011444092,0.0780000016093254,-9.513999938964846,1.5490000247955322
1621585519827,1.8899999856948853,26.531000137329105,-5.343999862670898,0.0390000008046627,-9.649999618530272,1.6440000534057615
1621585519837,2.240000009536743,26.37299919128418,-4.447999954223633,-0.0780000016093254,-9.734000205993652,1.6690000295639038
1621585519847,2.869999885559082,26.37700080871582,-3.6649999618530273,-0.1570000052452087,-9.741000175476074,1.7079999446868896
1621585519857,3.569999933242798,26.325000762939453,-2.9639999866485596,-0.2349999994039535,-9.748000144958496,1.746999979019165
1621585519867,3.6400001049041744,26.145999908447266,-2.3559999465942383,-0.3529999852180481,-9.708999633789062,1.753000020980835
1621585519877,3.359999895095825,26.29199981689453,-1.9739999771118164,-0.4709999859333038,-9.70300006866455,1.7150000333786013
1621585519887,3.0799999237060547,26.709999084472656,-2.3269999027252197,-0.5879999995231628,-9.70300006866455,1.7150000333786013
1621585519897,2.450000047683716,27.249000549316406,-2.1610000133514404,-0.5879999995231628,-9.741000175476074,1.7079999446868896
1621585519907,1.8899999856948853,27.597999572753903,-2.5260000228881836,-0.7059999704360961,-9.755000114440918,1.7849999666213987
1621585519917,1.5399999618530271,27.86599922180176,-2.8340001106262207,-0.8240000009536743,-9.755000114440918,1.7849999666213987
1621585519927,1.2599999904632568,27.926000595092773,-1.9709999561309817,-0.9020000100135804,-9.722999572753906,1.830999970436096
1621585519937,1.2599999904632568,27.88800048828125,-1.5509999990463257,-0.9020000100135804,-9.755000114440918,1.7849999666213987
1621585519946,1.2599999904632568,27.850000381469727,-1.13100004196167,-0.9020000100135804,-9.638999938964846,1.805999994277954
1621585519957,1.399999976158142,27.261999130249023,-1.0219999551773071,-0.8629999756813049,-9.574999809265137,1.8960000276565552
1621585519967,1.5399999618530271,26.746999740600582,-1.3259999752044678,-0.8629999756813049,-9.491000175476074,1.8710000514984133
1621585519977,1.75,25.54599952697754,-2.177000045776367,-0.9020000100135804,-9.406999588012695,1.8459999561309817
1621585519986,2.0299999713897705,24.642000198364254,-3.900000095367432,-0.9020000100135804,-9.458999633789062,1.9170000553131104
1621585519996,2.5899999141693115,22.96699905395508,-5.688000202178955,-0.8629999756813049,-9.458999633789062,1.9170000553131104
1621585520006,2.5199999809265137,20.93899917602539,-6.685999870300293,-0.9020000100135804,-9.38199996948242,1.930999994277954
1621585520016,2.5199999809265137,19.344999313354492,-7.322000026702882,-0.981000006198883,-9.388999938964846,1.968999981880188
1621585520026,2.0299999713897705,17.743999481201172,-7.10699987411499,-0.981000006198883,-9.465999603271484,1.955999970436096
1621585520036,1.6100000143051147,16.17799949645996,-7.0980000495910645,-1.0590000152587893,-9.51900005340576,2.0260000228881836
1621585520046,1.6100000143051147,15.119999885559082,-7.14300012588501,-1.1380000114440918,-9.564000129699709,2.058000087738037
1621585520056,1.75,14.196000099182127,-6.736999988555908,-1.1380000114440918,-9.609000205993652,2.0899999141693115
1621585520066,1.8899999856948853,13.470000267028809,-6.6519999504089355,-1.215999960899353,-9.616000175476074,2.128000020980835
1621585520076,2.1700000762939453,12.760000228881836,-7.061999797821045,-1.215999960899353,-9.616000175476074,2.128000020980835
1621585520086,2.0999999046325684,11.965000152587892,-6.98799991607666,-1.215999960899353,-9.654999732971191,2.121000051498413
1621585520096,2.1700000762939453,11.425999641418455,-7.15500020980835,-1.2940000295639038,-9.654999732971191,2.121000051498413
1621585520106,2.240000009536743,11.260000228881836,-7.823999881744384,-1.3339999914169312,-9.66800022125244,2.1989998817443848
1621585520116,1.4700000286102295,11.413999557495115,-8.293999671936035,-1.3730000257492063,-9.70699977874756,2.191999912261963
1621585520126,0.9100000262260436,11.519000053405762,-8.48900032043457,-1.4119999408721924,-9.692999839782717,2.115000009536743
1621585520136,-0.3499999940395355,12.666999816894531,-8.144000053405762,-1.5299999713897705,-9.732000350952148,2.1080000400543213
1621585520146,-1.6799999475479126,14.421999931335447,-8.829999923706055,-1.6080000400543213,-9.725000381469728,2.069000005722046
1621585520156,-3.569999933242798,16.961000442504883,-9.51900005340576,-1.8040000200271609,-9.732000350952148,2.1080000400543213
1621585520166,-4.164999961853027,18.85449981689453,-10.180500030517578,-2.000999927520752,-9.732000350952148,2.1080000400543213
1621585520176,-4.760000228881836,20.74799919128418,-10.842000007629396,-2.1570000648498535,-9.692999839782717,2.115000009536743
1621585520186,-5.670000076293945,25.569000244140625,-11.982000350952148,-2.2750000953674316,-9.654999732971191,2.121000051498413
1621585520196,-6.159999847412109,30.92200088500977,-13.312999725341797,-2.3929998874664307,-9.538999557495115,2.1419999599456787
1621585520206,-5.880000114440918,36.39500045776367,-15.333000183105469,-2.431999921798706,-9.531999588012695,2.1029999256134033
1621585520216,-5.320000171661377,42.65999984741211,-17.0,-2.510999917984009,-9.461999893188477,2.1549999713897705
1621585520226,-4.690000057220459,49.27000045776367,-18.60700035095215,-2.549999952316284,-9.5,2.1489999294281006
1621585520236,-3.990000009536743,55.63600158691406,-20.042999267578125,-2.5889999866485596,-9.494000434875488,2.109999895095825
1621585520246,-3.5,62.88199996948242,-22.03499984741211,-2.549999952316284,-9.416000366210936,2.124000072479248
1621585520256,-2.799999952316284,69.53600311279297,-23.492000579833984,-2.4709999561309814,-9.454999923706056,2.1170001029968266
1621585520266,-2.5199999809265137,75.18399810791016,-24.486000061035156,-2.431999921798706,-9.402999877929688,2.0460000038146973
1621585520276,-1.9600000381469729,79.64900207519531,-25.618000030517575,-2.2750000953674316,-9.395999908447264,2.0079998970031734
1621585520286,-1.4700000286102295,82.95700073242188,-26.243000030517575,-2.118000030517578,-9.350000381469728,1.97599995136261
1621585520296,-1.6100000143051147,84.91600036621094,-26.46699905395508,-1.9609999656677248,-9.375,1.8919999599456787
1621585520306,-1.8200000524520872,86.4000015258789,-27.62700080871582,-1.7649999856948853,-9.369000434875488,1.8530000448226929
1621585520316,-2.450000047683716,87.0199966430664,-28.72599983215332,-1.6080000400543213,-9.399999618530272,1.8079999685287476
1621585520326,-2.6600000858306885,86.82599639892578,-28.83099937438965,-1.4119999408721924,-9.562000274658203,1.819000005722046
1621585520336,-2.869999885559082,86.01899719238281,-28.68899917602539,-1.2549999952316284,-9.607000350952148,1.85099995136261
1621585520346,-3.2200000286102295,84.69300079345702,-28.424999237060547,-1.0980000495910645,-9.638999938964846,1.805999994277954
1621585520356,-2.940000057220459,82.4540023803711,-27.825000762939453,-0.981000006198883,-9.663999557495115,1.7220000028610227
1621585520366,-2.380000114440918,79.58399963378906,-27.26499938964844,-0.5879999995231628,-9.562000274658203,1.819000005722046
1621585520376,-1.6799999475479126,76.40399932861328,-26.972000122070312,-0.5099999904632568,-9.638999938964846,1.805999994277954
1621585520386,-1.5750000476837158,74.62199401855469,-26.540000915527344,-0.4309999942779541,-9.83199977874756,1.7719999551773071
1621585520396,-1.4700000286102295,72.83999633789062,-26.107999801635746,-0.3919999897480011,-9.916000366210936,1.7970000505447388
1621585520406,-1.3300000429153442,69.18699645996094,-25.54400062561035,-0.3140000104904174,-9.871000289916992,1.7649999856948853
1621585520416,-1.4700000286102295,65.60600280761719,-25.39299964904785,-0.2750000059604644,-9.871000289916992,1.7649999856948853
1621585520426,-3.009999990463257,62.375,-24.39900016784668,-0.2349999994039535,-9.909000396728516,1.7580000162124634
1621585520436,-4.269999980926514,59.584999084472656,-23.895999908447266,-0.1959999948740005,-9.824999809265137,1.7330000400543213
1621585520446,-5.670000076293945,56.32899856567382,-23.972999572753903,-0.1180000007152557,-9.656999588012695,1.6829999685287476
1621585520456,-6.71999979019165,53.61600112915039,-24.30900001525879,-0.0780000016093254,-9.579999923706056,1.6959999799728394
1621585520466,-7.489999771118165,50.380001068115234,-24.097999572753903,-0.0780000016093254,-9.572999954223633,1.6579999923706057
1621585520476,-7.699999809265136,47.46799850463867,-24.11400032043457,-0.0390000008046627,-9.593999862670898,1.77400004863739
1621585520486,-7.9099998474121085,44.28499984741211,-23.395000457763672,0.1180000007152557,-9.625,1.7280000448226929
1621585520496,-8.539999961853027,40.85499954223633,-22.08099937438965,0.1570000052452087,-9.637000083923342,1.5670000314712524
1621585520506,-9.59000015258789,37.472999572753906,-21.042999267578125,0.1180000007152557,-9.616000175476074,1.4509999752044678
1621585520516,-10.850000381469728,34.27000045776367,-20.61199951171875,0.1180000007152557,-9.647999763488768,1.406000018119812
1621585520526,-12.739999771118164,30.85199928283691,-20.575000762939453,0.1570000052452087,-9.550000190734863,1.3029999732971191
1621585520536,-14.210000038146973,27.993000030517575,-21.292999267578125,0.1570000052452087,-9.498000144958496,1.2330000400543213
1621585520546,-15.399999618530272,25.21500015258789,-22.066999435424805,0.1959999948740005,-9.446000099182127,1.1619999408721924
1621585520556,-16.3799991607666,22.95199966430664,-23.7450008392334,0.1959999948740005,-9.399999618530272,1.13100004196167
1621585520566,-17.010000228881836,21.67099952697754,-24.540000915527344,0.1570000052452087,-9.425999641418455,1.0470000505447388
1621585520576,-17.149999618530273,20.51099967956543,-24.815000534057617,0.1570000052452087,-9.373000144958496,0.9760000109672546
1621585520586,-16.940000534057617,20.23900032043457,-25.290000915527344,0.1570000052452087,-9.335000038146973,0.9829999804496764
1621585520596,-16.625,20.001998901367188,-25.15399932861328,0.1570000052452087,-9.281999588012695,0.9120000004768372
1621585520606,-16.309999465942383,19.76499938964844,-25.01799964904785,0.1570000052452087,-9.276000022888184,0.8740000128746032
1621585520616,-15.470000267028809,19.951000213623047,-25.268999099731445,0.1570000052452087,-9.26900005340576,0.8349999785423278
1621585520626,-14.0,20.81100082397461,-24.905000686645508,0.1959999948740005,-9.255000114440918,0.7580000162124633
1621585520636,-12.949999809265137,21.743000030517575,-24.95299911499023,0.2349999994039535,-9.293999671936035,0.7509999871253967
1621585520646,-11.479999542236328,22.50200080871582,-24.81999969482422,0.3529999852180481,-9.300999641418455,0.7900000214576721
1621585520656,-10.43000030517578,23.540000915527344,-25.062999725341797,0.4309999942779541,-9.33899974822998,0.7829999923706054
1621585520666,-9.729999542236328,24.21299934387207,-25.655000686645508,0.5490000247955322,-9.440999984741213,0.6850000023841857
1621585520676,-9.100000381469728,24.5049991607666,-26.10099983215332,0.7059999704360961,-9.602999687194824,0.6970000267028807
1621585520686,-8.329999923706055,24.8700008392334,-26.961000442504883,0.8240000009536743,-9.725000381469728,0.7149999737739563
1621585520696,-7.420000076293945,25.031999588012695,-28.28300094604492,0.9020000100135804,-9.880000114440918,0.6880000233650208
1621585520706,-6.860000133514404,25.628000259399418,-29.243999481201172,1.0590000152587893,-10.003000259399414,0.7059999704360961
1621585520716,-6.789999961853027,26.198999404907227,-30.066999435424805,1.1770000457763672,-10.010000228881836,0.7440000176429749
1621585520726,-6.230000019073486,26.00900077819824,-30.599000930786133,1.2940000295639038,-9.862000465393066,0.8100000023841857
1621585520736,-5.460000038146973,26.09000015258789,-30.655000686645508,1.4119999408721924,-9.746000289916992,0.8309999704360961
1621585520746,-4.619999885559082,25.97599983215332,-30.816999435424805,1.5299999713897705,-9.682000160217283,0.921999990940094
1621585520756,-3.009999990463257,25.70400047302246,-31.29199981689453,1.6080000400543213,-9.689000129699709,0.9599999785423278
1621585520766,-1.3300000429153442,25.06399917602539,-31.68899917602539,1.687000036239624,-9.625,1.0509999990463257
1621585520776,0.9100000262260436,24.483999252319336,-32.430999755859375,1.72599995136261,-9.593999862670898,1.0970000028610227
1621585520786,2.6600000858306885,23.944000244140625,-32.59700012207031,1.843999981880188,-9.562000274658203,1.1419999599456787
1621585520796,3.3600001335144043,23.70299911499023,-32.63949966430664,1.9220000505447388,-9.529999732971191,1.187000036239624
1621585520806,4.059999942779541,23.461999893188477,-32.68199920654297,2.000999927520752,-9.607000350952148,1.1740000247955322
1621585520816,4.550000190734863,23.108999252319336,-31.892000198364254,2.0399999618530273,-9.722999572753906,1.1529999971389773
1621585520826,5.110000133514404,22.444000244140625,-30.94300079345703,2.0399999618530273,-9.722999572753906,1.1529999971389773
1621585520836,5.039999961853027,21.673999786376953,-29.798999786376953,2.0399999618530273,-9.710000038146973,1.0759999752044678
1621585520846,4.619999885559082,21.33300018310547,-29.07699966430664,2.0399999618530273,-9.63199996948242,1.0900000333786013
1621585520856,3.6400001049041744,21.183000564575195,-27.823999404907227,2.000999927520752,-9.51599979400635,1.1100000143051147
1621585520866,2.5899999141693115,21.082000732421875,-26.847000122070312,2.000999927520752,-9.432000160217283,1.0850000381469729
1621585520876,1.8200000524520872,21.70299911499023,-26.738000869750977,1.9609999656677248,-9.411999702453612,0.968999981880188
1621585520886,1.2599999904632568,22.399999618530273,-26.25900077819824,2.000999927520752,-9.29599952697754,0.9900000095367432
1621585520896,0.4900000095367431,22.82200050354004,-25.82900047302246,1.9609999656677248,-9.25699996948242,0.996999979019165
1621585520906,-0.0700000002980232,23.913000106811523,-26.77400016784668,2.000999927520752,-9.211999893188477,0.9649999737739564
1621585520916,-0.4199999868869781,24.718999862670895,-28.125,2.0399999618530273,-9.25699996948242,0.996999979019165
1621585520926,-0.5600000023841857,25.84600067138672,-29.277000427246097,2.0789999961853027,-9.204999923706056,0.9259999990463256
1621585520936,-0.3499999940395355,27.10700035095215,-29.97800064086914,2.118000030517578,-9.222999572753906,0.8029999732971191
1621585520946,0.4199999868869781,28.50200080871582,-30.229999542236328,2.1570000648498535,-9.210000038146973,0.7260000109672546
1621585520956,1.190000057220459,29.503999710083008,-30.267000198364254,2.197000026702881,-9.234999656677246,0.6420000195503234
1621585520966,1.8899999856948853,30.177000045776367,-29.649999618530273,2.313999891281128,-9.189000129699709,0.6100000143051147
1621585520976,2.450000047683716,31.33300018310547,-28.948999404907227,2.3929998874664307,-9.227999687194824,0.6029999852180481
1621585520986,3.1500000953674316,32.14799880981445,-28.733999252319336,2.431999921798706,-9.227999687194824,0.6029999852180481
1621585520996,3.6050000190734863,32.48849868774414,-28.247499465942383,2.510999917984009,-9.30500030517578,0.5899999737739563
1621585521006,4.059999942779541,32.82899856567383,-27.76099967956543,2.549999952316284,-9.29800033569336,0.5509999990463256
1621585521016,4.760000228881836,33.327999114990234,-26.961999893188477,2.628000020980835,-9.336999893188477,0.5440000295639038
1621585521026,5.460000038146973,33.58000183105469,-25.566999435424805,2.6670000553131104,-9.37600040435791,0.5379999876022338
1621585521036,5.739999771118164,32.992000579833984,-23.041000366210938,2.7070000171661377,-9.45300006866455,0.5239999890327453
1621585521046,5.880000114440918,32.42100143432617,-21.00900077819824,2.7850000858306885,-9.498000144958496,0.5559999942779541
1621585521056,5.880000114440918,31.573999404907227,-19.025999069213867,2.7850000858306885,-9.621000289916992,0.5740000009536743
1621585521066,5.670000076293945,30.868000030517575,-17.44499969482422,2.8239998817443848,-9.711999893188477,0.6380000114440918
1621585521076,4.96999979019165,30.280000686645508,-16.12700080871582,2.8239998817443848,-9.776000022888184,0.5469999909400939
1621585521086,4.130000114440918,28.96699905395508,-14.723999977111816,2.864000082015991,-9.744000434875488,0.5920000076293945
1621585521096,3.6400001049041744,27.680999755859375,-13.883999824523926,2.9030001163482666,-9.704999923706056,0.5989999771118164
1621585521106,2.7300000190734863,25.885000228881836,-12.565999984741213,2.864000082015991,-9.67300033569336,0.6439999938011169
1621585521116,2.0999999046325684,24.299999237060547,-11.63700008392334,2.864000082015991,-9.64099979400635,0.6899999976158142
1621585521126,1.2599999904632568,22.22800064086914,-10.368000030517578,2.864000082015991,-9.687000274658203,0.722000002861023
1621585521136,0.0700000002980232,20.256999969482425,-8.866999626159668,2.8239998817443848,-9.718999862670898,0.6759999990463256
1621585521146,-1.0499999523162842,18.82200050354004,-7.982999801635742,2.7850000858306885,-9.725000381469728,0.7149999737739563
1621585521156,-1.6799999475479126,16.819000244140625,-6.701000213623047,2.7070000171661377,-9.647999763488768,0.7279999852180481
1621585521166,-1.8899999856948853,15.404000282287598,-5.5289998054504395,2.6670000553131104,-9.64099979400635,0.6899999976158142
1621585521176,-2.5199999809265137,14.215999603271484,-4.0329999923706055,2.5889999866485596,-9.68000030517578,0.6830000281333923
1621585521186,-2.7300000190734863,13.619999885559082,-3.072000026702881,2.549999952316284,-9.602999687194824,0.6970000267028807
1621585521196,-2.9049999713897705,13.455999374389648,-2.745500087738037,2.4709999561309814,-9.58899974822998,0.6190000176429749
1621585521206,-3.0799999237060547,13.291999816894531,-2.4189999103546143,2.510999917984009,-9.607000350952148,0.4970000088214874
1621585521216,-3.6400001049041744,13.060999870300291,-2.316999912261963,2.431999921798706,-9.536999702453612,0.5490000247955322
1621585521226,-3.990000009536743,13.230999946594238,-2.0739998817443848,2.3929998874664307,-9.491000175476074,0.5170000195503234
1621585521236,-4.130000114440918,13.008000373840332,-1.616000056266785,2.313999891281128,-9.491000175476074,0.5170000195503234
1621585521246,-4.130000114440918,12.821999549865724,-1.3639999628067017,2.313999891281128,-9.45300006866455,0.5239999890327453
1621585521256,-3.990000009536743,12.550000190734863,-0.6299999952316284,2.313999891281128,-9.446000099182127,0.4850000143051147
1621585521266,-3.849999904632568,12.104000091552734,0.2860000133514404,2.2750000953674316,-9.446000099182127,0.4850000143051147
1621585521276,-3.359999895095825,11.921999931335447,1.3200000524520874,2.236000061035156,-9.484999656677246,0.4790000021457672
1621585521286,-3.0799999237060547,11.586000442504885,2.825000047683716,2.236000061035156,-9.522999763488768,0.4720000028610229
1621585521296,-3.2899999618530273,11.484000205993652,3.802000045776367,2.197000026702881,-9.55500030517578,0.4259999990463256
1621585521306,-3.359999895095825,11.560999870300291,4.171000003814697,2.197000026702881,-9.54800033569336,0.3880000114440918
1621585521316,-3.430000066757202,11.520999908447266,4.803999900817871,2.197000026702881,-9.491000175476074,0.5170000195503234
1621585521326,-3.0799999237060547,11.28600025177002,5.330999851226807,2.1570000648498535,-9.477999687194824,0.4399999976158142
1621585521336,-2.309999942779541,11.189000129699709,5.881999969482422,2.197000026702881,-9.484999656677246,0.4790000021457672
1621585521346,-1.9600000381469729,11.468000411987305,6.7129998207092285,2.0789999961853027,-9.51599979400635,0.4329999983310699
1621585521356,-2.1700000762939453,11.647000312805176,7.314000129699707,2.000999927520752,-9.55500030517578,0.4259999990463256
1621585521366,-2.240000009536743,12.137999534606934,7.756000041961671,1.8830000162124632,-9.607000350952148,0.4970000088214874
1621585521376,-2.309999942779541,13.402999877929688,9.045000076293944,1.72599995136261,-9.652999877929688,0.5289999842643737
1621585521386,-2.5899999141693115,14.613500595092772,9.435999870300291,1.6080000400543213,-9.65999984741211,0.5669999718666076
1621585521396,-2.869999885559082,15.824000358581545,9.82699966430664,1.569000005722046,-9.628000259399414,0.6129999756813049
1621585521406,-3.1500000953674316,17.9689998626709,11.769000053405762,1.5299999713897705,-9.788999557495115,0.6240000128746032
1621585521416,-3.7799999713897705,19.93600082397461,13.111000061035156,1.491000056266785,-9.835000038146973,0.656000018119812
1621585521426,-3.990000009536743,21.433000564575195,15.506999969482422,1.491000056266785,-9.835000038146973,0.656000018119812
1621585521436,-4.130000114440918,22.073999404907227,17.113000869750977,1.491000056266785,-9.944000244140623,0.597000002861023
1621585521446,-4.199999809265137,22.374000549316406,18.23200035095215,1.4509999752044678,-10.097999572753906,0.5690000057220459
1621585521456,-4.900000095367432,22.135000228881836,19.184999465942383,1.3730000257492063,-10.154999732971191,0.4399999976158142
1621585521466,-5.320000171661377,21.51099967956543,20.709999084472656,1.3730000257492063,-10.579999923706056,0.3650000095367431
1621585521476,-6.440000057220459,20.743999481201172,21.42799949645996,1.3339999914169312,-10.902999877929688,0.3880000114440918
1621585521486,-8.119999885559082,19.47100067138672,23.406999588012695,1.215999960899353,-10.819000244140623,0.3630000054836273
1621585521496,-7.769999980926514,17.966999053955078,25.48699951171875,1.0980000495910645,-10.734000205993652,0.3379999995231628
1621585521506,-7.9099998474121085,15.777999877929688,27.020000457763672,0.981000006198883,-10.703000068664553,0.3829999864101409
1621585521516,-8.680000305175781,13.67300033569336,29.27899932861328,0.9020000100135804,-10.446000099182127,0.5080000162124633
1621585521526,-8.75,12.218000411987305,31.083999633789062,0.7850000262260437,-10.175000190734863,0.5559999942779541
1621585521536,-8.470000267028809,10.66100025177002,31.448999404907227,0.6669999957084655,-10.104999542236328,0.6079999804496765
1621585521546,-8.1899995803833,9.927000045776367,32.38600158691406,0.5099999904632568,-10.112000465393066,0.6470000147819519
1621585521556,-8.119999885559082,9.65999984741211,33.902000427246094,0.3919999897480011,-10.079999923706056,0.6919999718666076
1621585521566,-7.070000171661377,9.826000213623049,34.57099914550781,0.2349999994039535,-10.003000259399414,0.7059999704360961
1621585521576,-5.670000076293945,9.741000175476074,35.05400085449219,0.2349999994039535,-9.984999656677246,0.8289999961853027
1621585521585,-3.849999904632568,9.744999885559082,34.62799835205078,0.1180000007152557,-9.946000099182127,0.8349999785423278
1621585521595,-2.5199999809265137,10.041000366210936,33.756500244140625,0.1180000007152557,-9.906999588012695,0.8420000076293945
1621585521606,-1.190000057220459,10.336999893188477,32.8849983215332,0.1959999948740005,-9.92099952697754,0.9190000295639038
1621585521616,1.8200000524520872,10.404999732971191,30.479999542236328,0.2349999994039535,-9.88199996948242,0.9259999990463256
1621585521625,4.900000095367432,10.461999893188477,28.143999099731445,0.1959999948740005,-9.812000274658203,0.977999985218048
1621585521635,8.1899995803833,10.282999992370604,26.336000442504883,0.2750000059604644,-9.779999732971191,1.02400004863739
1621585521645,10.920000076293944,9.18000030517578,23.724000930786133,0.3140000104904174,-9.741000175476074,1.031000018119812
1621585521655,13.159999847412108,8.802000045776367,21.027999877929688,0.2750000059604644,-9.619000434875488,1.0130000114440918
1621585521665,15.539999961853027,7.572999954223632,18.322999954223633,0.2750000059604644,-9.432000160217283,1.0850000381469729
1621585521675,17.290000915527344,6.875,15.428000450134276,0.2750000059604644,-9.161999702453612,1.1330000162124634
1621585521685,19.11000061035156,6.067999839782715,13.154000282287598,0.2349999994039535,-8.885000228881836,1.1419999599456787
1621585521695,21.84000015258789,5.176000118255615,11.361000061035156,0.2349999994039535,-8.529999732971191,1.1649999618530271
1621585521705,24.920000076293945,4.2230000495910645,9.913999557495115,0.1959999948740005,-8.217000007629395,1.4190000295639038
1621585521715,27.3700008392334,3.4760000705718994,8.503000259399414,0.1570000052452087,-8.062000274658203,1.4459999799728394
1621585521725,29.190000534057617,2.247999906539917,8.21500015258789,0.1570000052452087,-8.017000198364258,1.4149999618530271
1621585521735,31.43000030517578,-0.1080000028014183,9.07900047302246,0.1180000007152557,-7.914000034332275,1.5119999647140503
1621585521745,33.459999084472656,-2.8010001182556152,10.23900032043457,0.1570000052452087,-7.960000038146973,1.5440000295639038
1621585521755,35.630001068115234,-6.46999979019165,11.29800033569336,0.2750000059604644,-8.019000053405762,1.6529999971389773
1621585521765,37.939998626708984,-11.008000373840332,12.843999862670898,0.4309999942779541,-8.07800006866455,1.7619999647140503
1621585521775,39.689998626708984,-16.704999923706055,14.11400032043457,0.4709999859333038,-8.130000114440918,1.8329999446868896
1621585521785,40.845001220703125,-20.507999420166016,15.327000617980955,0.4709999859333038,-8.151000022888184,1.9490000009536743
1621585521795,42.0,-24.31100082397461,16.540000915527344,0.4309999942779541,-8.178000450134277,2.1029999256134033
1621585521805,44.79999923706055,-32.83100128173828,18.093999862670895,0.2750000059604644,-8.08899974822998,2.2780001163482666
1621585521815,47.31999969482422,-41.54499816894531,19.542999267578125,0.1570000052452087,-8.07800006866455,2.438999891281128
1621585521825,50.61000061035156,-49.07899856567382,20.347000122070312,-0.0390000008046627,-8.156999588012695,2.6640000343322754
1621585521835,54.7400016784668,-55.915000915527344,20.42099952697754,-0.1959999948740005,-8.229999542236328,2.8510000705718994
1621585521845,59.63999938964844,-62.28200149536133,20.64900016784668,-0.4709999859333038,-8.432000160217285,3.0940001010894775
1621585521855,65.23999786376953,-67.63899993896484,19.988000869750977,-0.7059999704360961,-8.543999671936035,3.2730000019073486
1621585521865,70.7699966430664,-71.48699951171875,18.030000686645508,-1.0590000152587893,-8.654999732971191,3.453000068664551
1621585521875,74.9000015258789,-73.81500244140625,15.913999557495115,-1.215999960899353,-8.836999893188477,3.5799999237060547
1621585521885,77.20999908447266,-73.62100219726562,13.602999687194824,-1.4119999408721924,-8.940999984741211,3.7209999561309814
1621585521895,79.58999633789062,-72.42500305175781,11.255000114440918,-1.569000005722046,-9.038999557495115,3.822999954223633
1621585521905,81.55000305175781,-70.7300033569336,8.496999740600586,-1.687000036239624,-9.112000465393066,4.010000228881836
1621585521915,82.73999786376953,-68.89800262451172,5.763999938964844,-1.7649999856948853,-9.156999588012695,4.040999889373779
1621585521925,83.16000366210938,-65.45500183105469,3.171999931335449,-1.72599995136261,-9.215999603271484,4.151000022888184
1621585521935,82.25,-61.85499954223633,0.8930000066757202,-1.7649999856948853,-9.274999618530272,4.260000228881836
1621585521945,79.58999633789062,-58.47700119018555,-0.9290000200271606,-1.72599995136261,-9.373000144958496,4.361999988555908
1621585521955,76.16000366210938,-55.18899917602539,-3.049999952316284,-1.7649999856948853,-9.46399974822998,4.426000118255615
1621585521965,71.54000091552734,-51.91699981689453,-4.676000118255615,-1.687000036239624,-9.600000381469728,4.520999908447266
1621585521975,65.66000366210938,-48.38899993896485,-5.334000110626221,-1.5299999713897705,-9.626999855041506,4.676000118255615
1621585521985,62.685001373291016,-47.05699920654297,-5.631999969482422,-1.5299999713897705,-9.529999732971191,4.572999954223633
1621585521995,59.709999084472656,-45.724998474121094,-5.929999828338623,-1.4509999752044678,-9.44499969482422,4.547999858856201
1621585522005,53.34000015258789,-43.48600006103515,-5.322000026702881,-1.3730000257492063,-9.368000030517578,4.561999797821045
1621585522015,47.38999938964844,-41.30500030517578,-3.586999893188477,-1.2940000295639038,-9.30500030517578,4.6529998779296875
1621585522025,41.790000915527344,-39.28099822998047,-2.1640000343322754,-1.215999960899353,-9.220000267028809,4.627999782562256
1621585522035,37.2400016784668,-37.516998291015625,-0.0759999975562095,-1.1770000457763672,-9.020999908447264,4.623000144958496
1621585522045,32.900001525878906,-35.638999938964844,2.174000024795532,-1.1380000114440918,-8.781999588012695,4.625
1621585522055,29.1200008392334,-34.27199935913086,3.6949999332427974,-1.1770000457763672,-8.666000366210938,4.645999908447266
1621585522065,26.809999465942383,-32.430999755859375,3.7349998950958256,-1.1770000457763672,-8.51200008392334,4.672999858856201
1621585522075,24.149999618530273,-30.724000930786133,3.325000047683716,-1.2940000295639038,-8.388999938964844,4.65500020980835
1621585522085,21.489999771118164,-28.60300064086914,2.98799991607666,-1.3730000257492063,-8.350000381469727,4.6620001792907715
1621585522095,19.18000030517578,-26.170000076293945,3.70199990272522,-1.3730000257492063,-8.286999702453613,4.752999782562256
1621585522105,17.219999313354492,-24.01300048828125,5.574999809265137,-1.3339999914169312,-8.293000221252441,4.790999889373779
1621585522115,15.260000228881836,-21.916000366210938,6.584000110626221,-1.2549999952316284,-8.190999984741211,4.888999938964844
1621585522125,14.279999732971191,-20.399999618530273,5.64300012588501,-1.215999960899353,-8.08899974822998,4.986999988555908
1621585522135,13.4399995803833,-20.136999130249023,3.3440001010894775,-1.1380000114440918,-7.940999984741211,5.052999973297119
1621585522145,13.4399995803833,-20.400999069213867,0.8100000023841857,-1.1770000457763672,-8.006999969482422,5.199999809265137
1621585522155,13.93000030517578,-21.260000228881836,-0.7630000114440918,-1.215999960899353,-8.317999839782715,5.383999824523926
1621585522165,14.909999847412108,-21.77899932861328,-0.6420000195503234,-1.3730000257492063,-8.545000076293945,5.543000221252441
1621585522175,14.909999847412108,-22.17300033569336,-1.6349999904632568,-1.6080000400543213,-8.48900032043457,5.672999858856201
1621585522185,13.4399995803833,-20.993000030517575,-4.697000026702881,-1.7649999856948853,-8.54800033569336,5.7820000648498535
1621585522195,12.039999961853027,-17.95199966430664,-7.429999828338623,-1.9609999656677248,-8.652000427246094,5.922999858856201
1621585522205,11.409999847412108,-15.878499984741213,-8.912500381469727,-2.1570000648498535,-8.690999984741211,5.915999889373779
1621585522215,10.779999732971191,-13.80500030517578,-10.395000457763672,-2.2750000953674316,-8.619999885559082,5.9679999351501465
1621585522225,10.56999969482422,-8.47700023651123,-14.005000114440918,-2.313999891281128,-8.505000114440918,5.988999843597412
1621585522235,9.65999984741211,-2.496000051498413,-18.493999481201172,-2.2750000953674316,-8.220000267028809,5.959000110626221
1621585522245,9.100000381469728,4.2220001220703125,-21.93000030517578,-2.1570000648498535,-8.182000160217285,5.966000080108643
1621585522255,8.75,10.706000328063965,-24.83799934387207,-2.000999927520752,-8.22700023651123,5.998000144958496
1621585522265,9.800000190734863,16.687000274658203,-26.910999298095703,-1.6480000019073486,-8.13599967956543,5.934000015258789
1621585522275,9.449999809265137,21.03700065612793,-28.204999923706055,-1.2940000295639038,-8.109000205993652,5.78000020980835
1621585522285,9.170000076293944,24.06599998474121,-28.45299911499023,-0.9409999847412108,-8.288999557495117,5.668000221252441
1621585522295,8.470000267028809,25.753999710083008,-26.733999252319336,-0.6280000209808348,-8.468000411987305,5.557000160217285
1621585522305,6.650000095367432,25.961000442504883,-24.281000137329105,-0.3919999897480011,-8.538999557495117,5.505000114440918
1621585522315,4.269999980926514,24.96299934387207,-22.253000259399418,-0.2349999994039535,-8.64799976348877,5.446000099182129
1621585522325,2.450000047683716,23.937999725341797,-19.66200065612793,-0.1570000052452087,-8.725000381469727,5.432000160217285
1621585522335,1.399999976158142,23.618000030517575,-17.444000244140625,-0.0780000016093254,-8.67300033569336,5.361999988555908
1621585522345,1.1200000047683716,22.80299949645996,-17.659000396728516,-0.0780000016093254,-8.595000267028809,5.375
1621585522355,2.0299999713897705,21.53700065612793,-18.947999954223633,-0.0390000008046627,-8.550000190734863,5.3429999351501465
1621585522365,3.430000066757202,20.583999633789062,-20.395000457763672,0.0,-8.557000160217285,5.381999969482422
1621585522375,4.96999979019165,20.21500015258789,-21.527000427246097,0.0,-8.609000205993652,5.453000068664551
1621585522385,6.019999980926514,19.881999969482425,-22.864999771118164,0.0,-8.685999870300293,5.439000129699707
1621585522395,5.880000114440918,20.69300079345703,-24.641000747680664,0.0,-8.958999633789062,5.630000114440918
1621585522405,4.96999979019165,22.051000595092773,-27.10300064086914,0.1570000052452087,-8.972999572753906,5.706999778747559
1621585522415,3.430000066757202,22.77300071716309,-29.179000854492188,0.2349999994039535,-8.972999572753906,5.706999778747559
1621585522425,1.6100000143051147,23.15800094604492,-29.750999450683594,0.3140000104904174,-8.927000045776367,5.675000190734863
1621585522435,0.3850000202655792,23.342500686645508,-29.78949928283691,0.4709999859333038,-8.79800033569336,5.618000030517578
1621585522445,-0.8399999737739563,23.527000427246097,-29.82799911499023,0.5490000247955322,-8.71399974822998,5.5929999351501465
1621585522455,-3.7100000381469727,23.69700050354004,-29.583999633789062,0.6280000209808348,-8.654999732971191,5.484000205993652
1621585522465,-7.349999904632568,23.125999450683594,-28.76099967956543,0.7450000047683715,-8.531999588012695,5.466000080108643
1621585522475,-11.0600004196167,22.31100082397461,-27.76799964904785,0.7850000262260437,-8.36400032043457,5.415999889373779
1621585522485,-14.140000343322754,21.649999618530273,-27.243999481201172,0.8240000009536743,-8.27299976348877,5.353000164031982
1621585522495,-16.799999237060547,21.017000198364254,-27.28499984741211,0.9020000100135804,-8.21399974822998,5.243000030517578
1621585522505,-19.25,21.082000732421875,-28.05500030517578,0.9409999847412108,-8.175000190734863,5.25
1621585522515,-21.280000686645508,21.135000228881836,-28.756999969482425,0.981000006198883,-8.059000015258789,5.270999908447266
1621585522525,-23.030000686645508,21.75900077819824,-29.072999954223633,1.0199999809265137,-7.929999828338623,5.214000225067139
1621585522535,-23.8700008392334,22.554000854492188,-30.354999542236328,1.1380000114440918,-7.807000160217285,5.196000099182129
1621585522545,-23.799999237060547,23.576000213623047,-30.10300064086914,1.215999960899353,-7.723000049591064,5.171000003814697
1621585522555,-23.239999771118164,23.916000366210938,-29.617000579833984,1.2549999952316284,-7.677999973297118,5.138999938964844
1621585522565,-22.540000915527344,24.395000457763672,-29.106000900268555,1.3730000257492063,-7.800000190734864,5.1570000648498535
1621585522575,-21.979999542236328,25.26300048828125,-28.38400077819824,1.491000056266785,-7.84600019454956,5.189000129699707
1621585522585,-21.280000686645508,25.704999923706055,-26.45800018310547,1.6080000400543213,-7.961999893188477,5.168000221252441
1621585522595,-20.020000457763672,25.957000732421875,-23.854999542236328,1.6080000400543213,-8.116000175476074,5.140999794006348
1621585522605,-18.899999618530273,25.16200065612793,-21.364999771118164,1.687000036239624,-8.263999938964844,5.074999809265137
1621585522615,-17.56999969482422,24.538000106811523,-18.631999969482425,1.687000036239624,-8.41100025177002,5.008999824523926
1621585522625,-17.290000915527344,23.760000228881836,-15.428000450134276,1.687000036239624,-8.520999908447266,4.949999809265137
1621585522635,-18.200000762939453,22.336999893188477,-12.196000099182127,1.687000036239624,-8.66100025177002,4.8460001945495605
1621585522645,-19.8799991607666,20.982999801635746,-10.16100025177002,1.6480000019073486,-8.809000015258789,4.78000020980835
1621585522655,-22.1200008392334,19.29700088500977,-8.255000114440918,1.6080000400543213,-8.91100025177002,4.682000160217285
1621585522665,-24.36000061035156,17.958999633789062,-6.714000225067139,1.5299999713897705,-8.890999794006348,4.565999984741211
1621585522675,-25.44499969482422,17.249500274658203,-5.914999961853027,1.491000056266785,-8.876999855041504,4.488999843597412
1621585522685,-26.530000686645508,16.540000915527344,-5.116000175476074,1.3339999914169312,-8.812000274658203,4.341000080108643
1621585522695,-28.280000686645508,15.35200023651123,-3.6189999580383305,1.215999960899353,-8.784000396728516,4.186999797821045
1621585522705,-29.81999969482422,13.868000030517578,-2.4590001106262207,1.0980000495910645,-8.732000350952148,4.116000175476074
1621585522715,-30.520000457763672,12.208999633789064,-1.1169999837875366,0.981000006198883,-8.788999557495117,3.986999988555908
1621585522725,-30.799999237060547,11.17099952697754,-0.8730000257492065,0.8629999756813049,-8.85200023651123,3.8959999084472656
1621585522735,-30.59000015258789,10.713000297546388,-1.0959999561309814,0.8629999756813049,-8.909000396728516,3.7669999599456783
1621585522745,-30.799999237060547,10.173999786376951,-1.2630000114440918,0.7850000262260437,-8.979999542236328,3.71399998664856
1621585522755,-31.079999923706055,9.39900016784668,-2.109999895095825,0.7059999704360961,-8.928000450134277,3.6440000534057617
1621585522765,-31.149999618530273,9.244999885559082,-2.8480000495910645,0.6280000209808348,-9.005000114440918,3.630000114440918
1621585522775,-31.63999938964844,9.68299961090088,-2.913000106811523,0.5490000247955322,-9.067999839782717,3.5390000343322754
1621585522785,-32.689998626708984,9.897999763488768,-2.5199999809265137,0.5099999904632568,-9.062000274658203,3.500999927520752
1621585522795,-33.66999816894531,9.979000091552734,-2.575999975204468,0.5490000247955322,-9.05500030517578,3.461999893188477
1621585522805,-34.58000183105469,10.303999900817873,-1.5950000286102295,0.5490000247955322,-9.05500030517578,3.461999893188477
1621585522815,-35.560001373291016,10.664999961853027,-0.8209999799728394,0.5099999904632568,-9.125,3.4100000858306885
1621585522825,-36.61000061035156,10.562999725341797,0.1570000052452087,0.5490000247955322,-9.163999557495115,3.4030001163482666
1621585522835,-37.65999984741211,9.890000343322754,1.9570000171661377,0.5099999904632568,-9.104999542236328,3.2939999103546143
1621585522845,-38.56999969482422,9.229999542236328,3.688999891281128,0.4709999859333038,-9.059000015258787,3.26200008392334
1621585522855,-38.779998779296875,8.170999526977539,4.853000164031982,0.3919999897480011,-8.916000366210938,3.128000020980835
1621585522865,-38.43000030517578,6.9710001945495605,5.210000038146973,0.3140000104904174,-8.831999778747559,3.1029999256134033
1621585522875,-37.52000045776367,6.327000141143799,5.23799991607666,0.2750000059604644,-8.682000160217285,2.930000066757202
1621585522885,-35.90999984741211,5.810999870300293,4.934000015258789,0.1959999948740005,-8.572999954223633,2.989000082015991
1621585522895,-34.15999984741211,5.341000080108643,4.78000020980835,0.1180000007152557,-8.565999984741211,2.950999975204468
1621585522905,-32.54999923706055,5.564000129699707,4.322000026702881,0.0780000016093254,-8.604999542236328,2.944000005722046
1621585522915,-31.989999771118164,5.503000259399414,4.666500091552734,0.0780000016093254,-8.753000259399414,2.878000020980835
1621585522925,-31.43000030517578,5.441999912261963,5.011000156402588,0.0390000008046627,-8.869000434875488,2.8580000400543213
1621585522935,-30.520000457763672,5.133999824523926,5.952000141143799,0.0390000008046627,-8.984000205993652,2.836999893188477
1621585522945,-29.88999938964844,5.146999835968018,5.882999897003174,0.0,-9.05500030517578,2.7850000858306885
1621585522955,-29.68000030517578,5.479000091552734,6.013000011444092,-0.0390000008046627,-9.13199996948242,2.7709999084472656
1621585522965,-29.959999084472656,5.802999973297119,5.785999774932861,-0.0390000008046627,-9.125,2.7330000400543213
1621585522975,-29.75,5.702000141143799,5.554999828338623,-0.0780000016093254,-9.119000434875488,2.694000005722046
1621585522985,-29.329999923706055,6.026000022888184,5.327000141143799,-0.0780000016093254,-9.104999542236328,2.6170001029968266
1621585522995,-28.700000762939453,6.074999809265137,5.052000045776367,-0.0780000016093254,-9.123000144958496,2.49399995803833
1621585523005,-28.280000686645508,5.880000114440918,4.946000099182129,-0.0780000016093254,-9.116000175476074,2.4549999237060547
1621585523015,-28.0,5.374000072479248,4.999000072479248,-0.1180000007152557,-9.071000099182127,2.424000024795532
1621585523025,-27.440000534057617,5.34499979019165,4.354000091552734,-0.1570000052452087,-9.18000030517578,2.365000009536743
1621585523035,-26.739999771118164,5.763000011444092,4.000999927520752,-0.1570000052452087,-9.29599952697754,2.3440001010894775
1621585523045,-26.11000061035156,6.432000160217285,2.627000093460083,-0.1959999948740005,-9.366000175476074,2.2920000553131104
1621585523055,-26.31999969482422,7.064000129699707,1.4589999914169312,-0.2750000059604644,-9.520999908447264,2.265000104904175
1621585523065,-26.739999771118164,8.357000350952148,0.9760000109672546,-0.3140000104904174,-9.682000160217283,2.2760000228881836
1621585523075,-27.440000534057617,9.58199977874756,0.481000006198883,-0.3529999852180481,-9.80500030517578,2.2939999103546143
1621585523085,-27.86000061035156,11.199999809265137,-0.2290000021457672,-0.3919999897480011,-9.836999893188477,2.249000072479248
1621585523095,-28.0,12.440999984741213,-0.0099999997764825,-0.3529999852180481,-9.868000030517578,2.203000068664551
1621585523105,-27.790000915527344,13.248000144958496,1.0570000410079956,-0.3529999852180481,-9.906999588012695,2.196000099182129
1621585523115,-27.790000915527344,13.75100040435791,1.4290000200271606,-0.3529999852180481,-9.932000160217283,2.111999988555908
1621585523125,-27.440000534057617,13.774999618530272,2.5,-0.3140000104904174,-10.008999824523926,2.0989999771118164
1621585523135,-27.649999618530273,14.112000465393066,3.4119999408721924,-0.3140000104904174,-10.17099952697754,2.109999895095825
1621585523145,-27.86000061035156,14.116000175476074,4.195000171661377,-0.4309999942779541,-10.427000045776367,1.9850000143051147
1621585523155,-28.06999969482422,14.119999885559082,4.978000164031982,-0.3919999897480011,-11.020999908447266,1.9600000381469729
1621585523165,-28.6299991607666,13.342000007629396,6.9730000495910645,-0.3529999852180481,-11.234000205993652,2.0420000553131104
1621585523175,-28.559999465942383,11.979000091552734,7.442999839782715,-0.4309999942779541,-11.142999649047852,1.9780000448226929
1621585523185,-30.030000686645508,11.335000038146973,7.472000122070312,-0.4709999859333038,-11.13599967956543,1.940000057220459
1621585523195,-30.940000534057617,11.163999557495115,7.228000164031982,-0.5099999904632568,-11.020999908447266,1.9600000381469729
1621585523205,-31.290000915527344,11.16800022125244,6.802999973297119,-0.5490000247955322,-10.781999588012695,1.9630000591278076
1621585523215,-30.799999237060547,10.670000076293944,6.004000186920166,-0.5879999995231628,-10.595999717712402,2.0350000858306885
1621585523224,-29.75,10.340999603271484,5.447999954223633,-0.6669999957084655,-10.286999702453612,2.0899999141693115
1621585523234,-28.700000762939453,10.425999641418455,4.966000080108643,-0.7059999704360961,-10.125,2.078000068664551
1621585523244,-27.229999542236328,10.402000427246094,5.104000091552734,-0.7059999704360961,-10.04800033569336,2.0920000076293945
1621585523254,-25.899999618530273,10.406000137329102,4.677999973297119,-0.7450000047683715,-9.847999572753906,2.086999893188477
1621585523264,-25.40999984741211,10.66100025177002,4.439000129699707,-0.8240000009536743,-9.692999839782717,2.115000009536743
1621585523274,-25.549999237060547,10.779000282287598,4.175000190734863,-0.8240000009536743,-9.564000129699709,2.058000087738037
1621585523284,-26.11000061035156,11.090999603271484,4.017000198364258,-0.8240000009536743,-9.434000015258787,2.000999927520752
1621585523294,-26.8799991607666,11.821000099182127,3.50600004196167,-0.8629999756813049,-9.324999809265137,2.059999942779541
1621585523304,-27.790000915527344,12.071999549865724,3.6919999122619633,-0.8240000009536743,-9.149999618530272,1.9709999561309817
1621585523314,-28.770000457763672,11.70699977874756,3.3440001010894775,-0.8240000009536743,-8.944000244140625,1.9279999732971191
1621585523324,-29.190000534057617,11.739999771118164,2.3540000915527344,-0.8240000009536743,-8.737000465393066,1.8849999904632568
1621585523334,-29.81999969482422,11.730999946594238,1.996999979019165,-0.7850000262260437,-8.529999732971191,1.8420000076293943
1621585523344,-29.959999084472656,12.034999847412108,1.4819999933242798,-0.8240000009536743,-8.45300006866455,1.8550000190734863
1621585523354,-29.469999313354492,11.661999702453612,1.9850000143051147,-0.8240000009536743,-8.446000099182129,1.8170000314712524
1621585523364,-29.329999923706055,11.143499374389648,2.7109999656677246,-0.8240000009536743,-8.62600040435791,1.7050000429153442
1621585523374,-29.190000534057617,10.625,3.437000036239624,-0.8629999756813049,-8.928000450134277,1.6119999885559082
1621585523384,-28.280000686645508,8.930000305175781,4.986000061035156,-0.981000006198883,-9.036999702453612,1.5529999732971191
1621585523394,-26.950000762939453,8.184000015258789,4.783999919891357,-1.0590000152587893,-9.121000289916992,1.5779999494552612
1621585523404,-25.899999618530273,7.583000183105469,3.7539999485015874,-1.0980000495910645,-9.190999984741213,1.5260000228881836
1621585523414,-25.059999465942383,7.539000034332275,2.3949999809265137,-1.1380000114440918,-9.222999572753906,1.4809999465942385
1621585523424,-24.709999084472656,7.375999927520752,1.3009999990463257,-1.1770000457763672,-9.378000259399414,1.4529999494552612
1621585523434,-24.709999084472656,7.0960001945495605,0.4690000116825103,-1.0980000495910645,-9.54599952697754,1.503000020980835
1621585523444,-24.149999618530273,6.565000057220459,-0.5479999780654907,-1.1380000114440918,-9.623000144958496,1.4900000095367432
1621585523454,-22.68000030517578,5.935999870300293,-1.0149999856948853,-1.1380000114440918,-9.661999702453612,1.4830000400543213
1621585523464,-20.510000228881836,5.296000003814697,-1.4119999408721924,-1.1770000457763672,-9.590999603271484,1.5349999666213987
1621585523474,-18.059999465942383,4.789000034332275,-2.566999912261963,-1.215999960899353,-9.513999938964846,1.5490000247955322
1621585523484,-15.539999961853027,4.38700008392334,-3.9179999828338623,-1.2549999952316284,-9.553000450134276,1.5420000553131104
1621585523494,-13.4399995803833,4.622000217437744,-5.6529998779296875,-1.215999960899353,-9.585000038146973,1.496999979019165
1621585523504,-11.829999923706056,5.318999767303467,-7.592000007629395,-1.215999960899353,-9.585000038146973,1.496999979019165
1621585523514,-11.409999847412108,5.8460001945495605,-8.5649995803833,-1.2549999952316284,-9.531999588012695,1.4259999990463257
1621585523524,-11.899999618530272,6.5920000076293945,-9.571000099182127,-1.2549999952316284,-9.447999954223633,1.4010000228881836
1621585523534,-12.390000343322754,7.443999767303467,-9.562999725341797,-1.3339999914169312,-9.428000450134276,1.2849999666213987
1621585523544,-12.949999809265137,7.452000141143799,-9.206000328063965,-1.2940000295639038,-9.42099952697754,1.246999979019165
1621585523554,-13.090000152587892,7.886000156402587,-8.845000267028809,-1.3339999914169312,-9.272999763488768,1.312000036239624
1621585523564,-12.949999809265137,8.559000015258789,-8.229000091552734,-1.3730000257492063,-9.260000228881836,1.2350000143051147
1621585523574,-12.949999809265137,9.32900047302246,-8.163999557495117,-1.4509999752044678,-9.23900032043457,1.11899995803833
1621585523584,-12.809999465942385,9.613000869750977,-7.75850009918213,-1.491000056266785,-9.187000274658203,1.0490000247955322
1621585523594,-12.670000076293944,9.897000312805178,-7.353000164031982,-1.491000056266785,-9.135000228881836,0.977999985218048
1621585523604,-12.18000030517578,10.984000205993652,-7.872000217437744,-1.5299999713897705,-9.197999954223633,0.887000024318695
1621585523614,-11.6899995803833,11.616000175476074,-7.831999778747559,-1.569000005722046,-9.1850004196167,0.8100000023841857
1621585523624,-11.409999847412108,12.317999839782717,-7.77899980545044,-1.6080000400543213,-9.215999603271484,0.7649999856948853
1621585523634,-10.920000076293944,12.47599983215332,-7.467000007629395,-1.72599995136261,-9.33199977874756,0.7440000176429749
1621585523644,-11.550000190734863,13.741000175476074,-7.386000156402587,-1.8830000162124632,-9.440999984741213,0.6850000023841857
1621585523654,-12.390000343322754,15.739999771118164,-8.241999626159668,-2.0789999961853027,-9.479999542236328,0.6779999732971191
1621585523664,-12.31999969482422,18.68000030517578,-9.998000144958496,-2.197000026702881,-9.51900005340576,0.6719999909400939
1621585523674,-12.039999961853027,21.854999542236328,-11.072999954223633,-2.197000026702881,-9.472999572753906,0.6399999856948853
1621585523684,-11.409999847412108,25.099000930786133,-12.13599967956543,-2.0789999961853027,-9.416000366210936,0.7689999938011169
1621585523694,-10.5,27.05699920654297,-12.359000205993652,-2.000999927520752,-9.326000213623049,0.7059999704360961
1621585523704,-9.520000457763674,28.416000366210938,-12.404000282287598,-1.843999981880188,-9.234999656677246,0.6420000195503234
1621585523714,-8.819999694824219,28.812999725341797,-11.836000442504885,-1.6080000400543213,-9.234999656677246,0.6420000195503234
1621585523724,-8.1899995803833,27.924999237060547,-10.428999900817873,-1.4509999752044678,-9.227999687194824,0.6029999852180481
1621585523734,-7.489999771118165,25.371000289916992,-9.244999885559082,-1.2940000295639038,-9.182000160217283,0.5720000267028807
1621585523744,-6.789999961853027,22.905000686645508,-8.968999862670898,-1.215999960899353,-9.227999687194824,0.6029999852180481
1621585523754,-5.809999942779541,19.70599937438965,-8.96399974822998,-1.1770000457763672,-9.29800033569336,0.5509999990463256
1621585523764,-5.670000076293945,16.770000457763672,-10.050999641418455,-1.1380000114440918,-9.336999893188477,0.5440000295639038
1621585523774,-6.090000152587891,13.9350004196167,-10.906000137329102,-1.1380000114440918,-9.37600040435791,0.5379999876022338
1621585523784,-6.300000190734863,11.770000457763672,-11.927000045776367,-1.1770000457763672,-9.45300006866455,0.5239999890327453
1621585523794,-6.440000057220459,10.582000732421877,-12.243499755859377,-1.215999960899353,-9.576000213623049,0.5419999957084655
1621585523804,-6.579999923706055,9.39400005340576,-12.5600004196167,-1.215999960899353,-9.729999542236328,0.5149999856948853
1621585523814,-7.070000171661377,7.357999801635742,-12.704999923706056,-1.215999960899353,-9.776000022888184,0.5469999909400939
1621585523824,-7.699999809265136,5.443999767303467,-12.33199977874756,-1.2549999952316284,-9.75100040435791,0.6309999823570251
1621585523834,-7.769999980926514,3.5989999771118164,-11.946999549865724,-1.2940000295639038,-9.744000434875488,0.5920000076293945
1621585523844,-8.119999885559082,2.5160000324249268,-11.852999687194824,-1.2940000295639038,-9.704999923706056,0.5989999771118164
1621585523854,-8.539999961853027,1.6929999589920044,-12.425000190734863,-1.2940000295639038,-9.652999877929688,0.5289999842643737
1621585523864,-8.399999618530273,0.6389999985694885,-12.895000457763672,-1.2940000295639038,-9.536999702453612,0.5490000247955322
1621585523874,-7.980000019073486,-0.740000009536743,-13.137999534606934,-1.2940000295639038,-9.569000244140623,0.5040000081062316
1621585523884,-7.349999904632568,-1.656000018119812,-13.583999633789064,-1.2549999952316284,-9.800999641418455,0.4629999995231628
1621585523894,-7.980000019073486,-3.0230000019073486,-12.687999725341797,-1.2940000295639038,-10.211999893188477,0.3100000023841857
1621585523904,-7.8400001525878915,-4.631999969482422,-11.621000289916992,-1.2549999952316284,-10.63700008392334,0.2360000014305114
1621585523914,-6.159999847412109,-6.0269999504089355,-11.369000434875488,-1.2549999952316284,-10.5600004196167,0.248999997973442
1621585523924,-5.460000038146973,-7.248000144958496,-12.508999824523926,-1.3730000257492063,-10.166000366210936,0.2790000140666961
1621585523934,-6.159999847412109,-7.0289998054504395,-13.74899959564209,-1.3730000257492063,-10.128000259399414,0.2849999964237213
1621585523944,-7.769999980926514,-5.833000183105469,-14.888999938964844,-1.3730000257492063,-10.314000129699709,0.2129999995231628
1621585523954,-8.399999618530273,-5.565999984741211,-16.4060001373291,-1.3339999914169312,-10.352999687194824,0.2060000002384185
1621585523964,-8.119999885559082,-5.322999954223633,-17.784000396728516,-1.215999960899353,-10.359999656677246,0.2450000047683715
1621585523974,-7.699999809265136,-5.197000026702881,-18.899999618530273,-1.0980000495910645,-10.321000099182127,0.2509999871253967
1621585523984,-6.789999961853027,-4.973999977111816,-20.56599998474121,-0.981000006198883,-10.237000465393066,0.2259999960660934
1621585523994,-6.474999904632568,-4.8445000648498535,-21.503000259399418,-0.9020000100135804,-10.204999923706056,0.2720000147819519
1621585524004,-6.159999847412109,-4.715000152587891,-22.440000534057617,-0.7450000047683715,-10.211999893188477,0.3100000023841857
1621585524014,-5.880000114440918,-4.763999938964844,-23.371999740600582,-0.5879999995231628,-10.08899974822998,0.2919999957084655
1621585524024,-5.389999866485596,-5.23799991607666,-24.30900001525879,-0.5099999904632568,-9.965999603271484,0.2739999890327453
1621585524034,-5.039999961853027,-5.701000213623047,-25.315000534057617,-0.3529999852180481,-9.888999938964846,0.2879999876022338
1621585524044,-5.110000133514404,-6.293000221252441,-25.988000869750977,-0.1959999948740005,-9.92099952697754,0.2419999986886978
1621585524054,-6.019999980926514,-7.359000205993653,-26.388999938964844,-0.1180000007152557,-9.946000099182127,0.1580000072717666
1621585524064,-6.71999979019165,-8.539999961853027,-26.95199966430664,-0.0780000016093254,-9.862000465393066,0.1330000013113021
1621585524074,-7.980000019073486,-9.50100040435791,-27.54800033569336,-0.0390000008046627,-9.770999908447264,0.0700000002980232
1621585524084,-9.170000076293944,-10.33199977874756,-28.47699928283691,-0.0390000008046627,-9.694000244140623,0.0829999968409538
1621585524094,-10.359999656677246,-10.765999794006348,-28.83799934387207,0.0,-9.531999588012695,0.0719999969005584
1621585524104,-11.550000190734863,-10.689000129699709,-29.677000045776367,0.0390000008046627,-9.35099983215332,-0.0560000017285346
1621585524114,-12.460000038146973,-10.081000328063965,-30.707000732421875,0.1570000052452087,-9.326000213623049,0.0289999991655349
1621585524124,-12.880000114440918,-9.461000442504885,-31.805999755859375,0.2349999994039535,-9.326000213623049,0.0289999991655349
1621585524134,-12.390000343322754,-9.006999969482422,-33.57400131225586,0.4309999942779541,-9.241999626159668,0.0040000001899898
1621585524144,-11.199999809265137,-8.852999687194824,-35.25299835205078,0.6280000209808348,-9.20300006866455,0.0099999997764825
1621585524154,-10.079999923706056,-9.866999626159668,-35.14699935913086,0.8629999756813049,-9.241999626159668,0.0040000001899898
1621585524164,-9.3100004196167,-12.315999984741213,-34.15800094604492,1.1770000457763672,-9.241999626159668,0.0040000001899898
1621585524174,-8.819999694824219,-15.656999588012695,-32.542999267578125,1.4119999408721924,-9.279999732971191,-0.003000000026077
1621585524184,-7.769999980926514,-19.927000045776367,-31.305999755859375,1.6480000019073486,-9.312000274658203,-0.0489999987185001
1621585524194,-7.140000343322754,-22.34550094604492,-30.48849868774414,1.8040000200271609,-9.326000213623049,0.0289999991655349
1621585524204,-6.510000228881836,-24.763999938964844,-29.67099952697754,1.9220000505447388,-9.286999702453612,0.0350000001490116
1621585524214,-5.179999828338623,-29.43899917602539,-28.149999618530273,2.000999927520752,-9.293999671936035,0.0740000009536743
1621585524224,-3.7799999713897705,-34.05799865722656,-26.54700088500977,2.000999927520752,-9.319000244140623,-0.0099999997764825
1621585524234,-2.6600000858306885,-38.6150016784668,-25.290000915527344,1.9609999656677248,-9.326000213623049,0.0289999991655349
1621585524244,-1.4700000286102295,-42.40999984741211,-24.323999404907227,1.9220000505447388,-9.371000289916992,0.0599999986588954
1621585524254,-0.3499999940395355,-45.67900085449219,-23.12299919128418,1.843999981880188,-9.447999954223633,0.0469999983906745
1621585524264,0.9100000262260436,-48.7599983215332,-22.173999786376953,1.8040000200271609,-9.571000099182127,0.0649999976158142
1621585524274,2.0999999046325684,-50.32500076293945,-20.957000732421875,1.72599995136261,-9.654999732971191,0.0900000035762786
1621585524284,3.359999895095825,-51.14799880981445,-20.320999145507812,1.6480000019073486,-9.623000144958496,0.135000005364418
1621585524294,4.829999923706055,-51.80500030517578,-20.222999572753903,1.6080000400543213,-9.585000038146973,0.1420000046491622
1621585524304,6.090000152587891,-51.97600173950195,-19.257999420166016,1.569000005722046,-9.585000038146973,0.1420000046491622
1621585524314,7.559999942779541,-51.70800018310547,-18.357999801635746,1.491000056266785,-9.553000450134276,0.1879999935626983
1621585524324,8.890000343322754,-50.847999572753906,-16.78499984741211,1.4509999752044678,-9.5600004196167,0.2259999960660934
1621585524334,10.289999961853027,-49.99599838256836,-15.567999839782717,1.3730000257492063,-9.579999923706056,0.3420000076293945
1621585524344,12.039999961853027,-48.36199951171875,-14.355999946594238,1.3339999914169312,-9.586999893188477,0.3810000121593475
1621585524354,13.020000457763672,-46.625999450683594,-12.913000106811523,1.3339999914169312,-9.586999893188477,0.3810000121593475
1621585524364,13.369999885559082,-44.858001708984375,-12.458999633789064,1.3339999914169312,-9.619000434875488,0.3350000083446502
1621585524374,12.880000114440918,-42.77000045776367,-11.805999755859377,1.2940000295639038,-9.734999656677246,0.3149999976158142
1621585524384,12.425000190734863,-41.680999755859375,-11.329999923706056,1.2940000295639038,-9.83199977874756,0.4169999957084655
1621585524394,11.970000267028809,-40.59199905395508,-10.854000091552734,1.3339999914169312,-9.878000259399414,0.4490000009536743
1621585524404,10.56999969482422,-38.78300094604492,-9.824000358581545,1.3339999914169312,-9.961999893188477,0.4740000069141387
1621585524414,9.3100004196167,-37.21799850463867,-8.62399959564209,1.3730000257492063,-9.961999893188477,0.4740000069141387
1621585524424,7.559999942779541,-35.542999267578125,-8.043999671936035,1.4509999752044678,-9.961999893188477,0.4740000069141387
1621585524434,5.880000114440918,-34.290000915527344,-7.894000053405762,1.491000056266785,-9.954999923706056,0.4350000023841857
1621585524444,3.9200000762939458,-32.63600158691406,-7.603000164031982,1.491000056266785,-9.994000434875488,0.4289999902248382
1621585524454,2.1700000762939453,-31.63400077819824,-7.638999938964843,1.5299999713897705,-9.947999954223633,0.3970000147819519
1621585524464,0.3499999940395355,-31.459999084472656,-7.822000026702882,1.5299999713897705,-9.90999984741211,0.4040000140666961
1621585524474,-0.209999993443489,-30.98500061035156,-8.093999862670898,1.569000005722046,-9.83199977874756,0.4169999957084655
1621585524484,-0.6299999952316284,-30.85099983215332,-7.64300012588501,1.569000005722046,-9.786999702453612,0.3849999904632568
1621585524494,-1.2599999904632568,-30.461999893188477,-7.433000087738037,1.569000005722046,-9.786999702453612,0.3849999904632568
1621585524504,-1.8200000524520872,-30.280000686645508,-7.257999897003175,1.5299999713897705,-9.895999908447264,0.3260000050067901
1621585524514,-1.2599999904632568,-29.801000595092773,-6.747000217437744,1.491000056266785,-9.826000213623049,0.3790000081062316
1621585524524,-0.9100000262260436,-29.777000427246097,-6.885000228881836,1.4509999752044678,-9.656999588012695,0.3289999961853027
1621585524534,-0.2800000011920929,-28.950000762939453,-6.738999843597412,1.4509999752044678,-9.656999588012695,0.3289999961853027
1621585524544,-0.9100000262260436,-28.072999954223633,-5.660999774932861,1.3730000257492063,-9.998000144958496,0.2290000021457672
1621585524554,-0.9800000190734864,-27.319000244140625,-3.89299988746643,1.4119999408721924,-10.107000350952148,0.1700000017881393
1621585524564,0.699999988079071,-27.018999099731445,-3.98200011253357,1.3730000257492063,-9.5600004196167,0.2259999960660934
1621585524574,1.1899999380111694,-26.903499603271484,-4.0329999923706055,1.3339999914169312,-9.366999626159668,0.2599999904632568
1621585524584,1.6799999475479126,-26.788000106811523,-4.084000110626221,1.2940000295639038,-9.373000144958496,0.2989999949932098
1621585524594,2.0999999046325684,-25.58300018310547,-3.6579999923706055,1.2549999952316284,-9.373000144958496,0.2989999949932098
1621585524604,1.8899999856948853,-24.290000915527344,-2.931999921798706,1.215999960899353,-9.496000289916992,0.31700000166893
1621585524614,1.75,-23.503000259399418,-2.1540000438690186,1.215999960899353,-9.572999954223633,0.3039999902248382
1621585524624,1.9600000381469729,-23.03700065612793,-1.5740000009536743,1.215999960899353,-9.62600040435791,0.3740000128746032
1621585524634,2.5199999809265137,-22.270000457763672,-1.0839999914169312,1.1770000457763672,-9.593999862670898,0.4189999997615814
1621585524644,2.7300000190734863,-21.81999969482422,-1.218000054359436,1.0980000495910645,-9.55500030517578,0.4259999990463256
1621585524654,3.0799999237060547,-21.393999099731445,-1.2139999866485596,1.0590000152587893,-9.55500030517578,0.4259999990463256
1621585524664,3.0799999237060547,-20.308000564575195,-1.7330000400543213,1.0590000152587893,-9.54800033569336,0.3880000114440918
1621585524674,3.1500000953674316,-19.75200080871582,-2.061000108718872,1.0199999809265137,-9.67099952697754,0.4059999883174896
1621585524684,3.009999990463257,-19.43600082397461,-1.437000036239624,0.8629999756813049,-9.755000114440918,0.4309999942779541
1621585524694,2.799999952316284,-18.718000411987305,-0.6710000038146972,0.7450000047683715,-9.800999641418455,0.4629999995231628
1621585524704,2.940000057220459,-17.857999801635742,-0.3059999942779541,0.6280000209808348,-9.845999717712402,0.4939999878406524
1621585524714,2.940000057220459,-16.868999481201172,-0.2730000019073486,0.5490000247955322,-9.76900005340576,0.5080000162124633
1621585524724,3.2200000286102295,-14.878000259399414,-0.277999997138977,0.4709999859333038,-9.814000129699709,0.5400000214576721
1621585524734,2.940000057220459,-12.753000259399414,0.1679999977350235,0.3140000104904174,-9.968999862670898,0.5130000114440918
1621585524744,3.0799999237060547,-10.13700008392334,1.055999994277954,0.2750000059604644,-10.0,0.4670000076293945
1621585524754,3.430000066757202,-7.375999927520752,2.325000047683716,0.1570000052452087,-10.013999938964844,0.5440000295639038
1621585524764,3.5350000858306885,-6.0904998779296875,3.297999858856201,0.0780000016093254,-10.006999969482422,0.5059999823570251
1621585524774,3.6400001049041744,-4.804999828338623,4.270999908447266,0.0,-10.0,0.4670000076293945
1621585524784,4.340000152587891,-2.002000093460083,6.114999771118164,-0.0780000016093254,-10.038999557495115,0.4600000083446502
1621585524794,4.619999885559082,1.1890000104904177,8.170999526977539,-0.0390000008046627,-10.031999588012695,0.4219999909400939
1621585524804,4.96999979019165,3.812999963760376,9.41499996185303,-0.1180000007152557,-10.116000175476074,0.4469999969005584
1621585524814,4.690000057220459,5.642000198364258,10.732999801635742,-0.0780000016093254,-10.095999717712402,0.3310000002384185
1621585524824,3.849999904632568,7.26800012588501,11.588000297546388,-0.0780000016093254,-10.14799976348877,0.4009999930858612
1621585524834,2.0299999713897705,8.26200008392334,12.402999877929688,0.0,-10.140999794006348,0.3630000054836273
1621585524844,0.1400000005960464,8.78499984741211,13.064000129699709,-0.0390000008046627,-10.064000129699709,0.3759999871253967
1621585524853,-1.8200000524520872,8.972000122070312,14.020999908447266,-0.0390000008046627,-9.994000434875488,0.4289999902248382
1621585524863,-3.5,8.842000007629395,14.352999687194824,-0.0390000008046627,-9.871000289916992,0.4099999964237213
1621585524873,-5.389999866485596,8.092000007629395,13.368000030517578,-0.0390000008046627,-9.755000114440918,0.4309999942779541
1621585524883,-6.440000057220459,7.386000156402587,12.532999992370604,-0.0390000008046627,-9.715999603271484,0.4379999935626983
1621585524893,-7.210000038146973,7.118000030517578,11.633000373840332,-0.0390000008046627,-9.60099983215332,0.4580000042915344
1621585524903,-7.210000038146973,6.784999847412109,10.295000076293944,-0.0780000016093254,-9.484999656677246,0.4790000021457672
1621585524913,-6.440000057220459,6.611000061035156,9.26900005340576,-0.0780000016093254,-9.446000099182127,0.4850000143051147
1621585524923,-5.320000171661377,5.949999809265137,8.583999633789062,-0.0780000016093254,-9.406999588012695,0.492000013589859
1621585524933,-3.9200000762939458,5.381999969482422,7.7729997634887695,-0.1180000007152557,-9.401000022888184,0.4539999961853027
1621585524943,-2.380000114440918,5.190999984741211,7.241000175476073,-0.1570000052452087,-9.369000434875488,0.4990000128746032
1621585524953,-1.2599999904632568,4.88700008392334,6.547999858856201,-0.1570000052452087,-9.369000434875488,0.4990000128746032
1621585524963,-0.5600000023841857,4.850500106811523,6.1504998207092285,-0.2349999994039535,-9.413999557495115,0.531000018119812
1621585524973,0.1400000005960464,4.814000129699707,5.752999782562256,-0.3140000104904174,-9.42099952697754,0.5690000057220459
1621585524983,1.75,4.626999855041504,4.796000003814697,-0.3140000104904174,-9.529999732971191,0.5099999904632568
1621585524993,2.869999885559082,4.919000148773193,4.349999904632568,-0.3919999897480011,-9.645999908447264,0.4900000095367431
1621585525003,3.569999933242798,5.324999809265137,4.065999984741211,-0.3919999897480011,-9.722999572753906,0.4760000109672546
1621585525013,4.130000114440918,5.798999786376953,3.7950000762939458,-0.4709999859333038,-9.76900005340576,0.5080000162124633
1621585525023,3.9200000762939458,6.103000164031982,3.2799999713897705,-0.5099999904632568,-9.814000129699709,0.5400000214576721
1621585525033,3.5,6.869999885559082,2.562000036239624,-0.5490000247955322,-9.852999687194824,0.5329999923706054
1621585525043,3.1500000953674316,7.882999897003175,2.4560000896453857,-0.5879999995231628,-9.859999656677246,0.5720000267028807
1621585525053,2.869999885559082,8.928999900817871,2.569999933242798,-0.5879999995231628,-9.840999603271484,0.6940000057220459
1621585525063,2.5899999141693115,9.147999763488768,2.5369999408721924,-0.6280000209808348,-9.8100004196167,0.740000009536743
1621585525073,2.380000114440918,9.720000267028809,2.921999931335449,-0.6669999957084655,-9.770999908447264,0.746999979019165
1621585525083,2.5199999809265137,10.465999603271484,3.125,-0.6280000209808348,-9.732000350952148,0.7530000209808348
1621585525093,3.0799999237060547,10.940999984741213,2.8529999256134033,-0.7059999704360961,-9.732000350952148,0.7530000209808348
1621585525103,3.2899999618530273,11.314000129699709,2.3499999046325684,-0.6669999957084655,-9.73900032043457,0.7919999957084655
1621585525113,3.359999895095825,11.390999794006348,1.5110000371932983,-0.6280000209808348,-9.732000350952148,0.7530000209808348
1621585525123,3.5,11.703000068664553,1.3530000448226929,-0.6669999957084655,-9.763999938964846,0.7080000042915344
1621585525133,3.2899999618530273,11.703000068664553,1.3530000448226929,-0.6669999957084655,-9.711999893188477,0.6380000114440918
1621585525143,2.940000057220459,11.333999633789064,0.221000000834465,-0.7059999704360961,-9.67300033569336,0.6439999938011169
1621585525153,2.380000114440918,11.51200008392334,-0.3869999945163726,-0.7059999704360961,-9.704999923706056,0.5989999771118164
1621585525163,2.380000114440918,11.54050064086914,-0.9505000114440918,-0.7850000262260437,-9.704999923706056,0.5989999771118164
1621585525173,2.380000114440918,11.569000244140623,-1.5140000581741333,-0.8240000009536743,-9.704999923706056,0.5989999771118164
1621585525183,2.6600000858306885,11.61299991607666,-2.572000026702881,-0.9020000100135804,-9.67300033569336,0.6439999938011169
1621585525193,2.6600000858306885,12.35099983215332,-3.934999942779541,-0.9409999847412108,-9.635000228881836,0.6510000228881835
1621585525203,3.359999895095825,12.894000053405762,-4.195000171661377,-0.9409999847412108,-9.67300033569336,0.6439999938011169
1621585525213,3.990000009536743,13.215000152587892,-3.9960000514984126,-0.981000006198883,-9.711999893188477,0.6380000114440918
1621585525223,4.130000114440918,13.6850004196167,-3.8420000076293945,-1.0199999809265137,-9.75100040435791,0.6309999823570251
1621585525233,4.130000114440918,14.767999649047852,-3.934999942779541,-1.0980000495910645,-9.732000350952148,0.7530000209808348
1621585525243,3.849999904632568,15.947999954223633,-4.579999923706055,-1.0980000495910645,-9.75100040435791,0.6309999823570251
1621585525253,3.5,17.163999557495117,-5.432000160217285,-1.0199999809265137,-9.744000434875488,0.5920000076293945
1621585525263,2.869999885559082,18.18600082397461,-6.388999938964844,-0.981000006198883,-9.711999893188477,0.6380000114440918
1621585525273,2.0299999713897705,19.350000381469727,-6.539000034332275,-0.9409999847412108,-9.65999984741211,0.5669999718666076
1621585525283,1.1200000047683716,20.38400077819824,-6.35699987411499,-0.9020000100135804,-9.61400032043457,0.5350000262260437
1621585525293,0.6299999952316284,20.934999465942383,-6.260000228881836,-0.8240000009536743,-9.621000289916992,0.5740000009536743
1621585525303,0.3499999940395355,20.954999923706055,-5.9720001220703125,-0.7850000262260437,-9.576000213623049,0.5419999957084655
1621585525313,0.0700000002980232,20.659000396728516,-5.099999904632568,-0.7450000047683715,-9.529999732971191,0.5099999904632568
1621585525323,0.3499999940395355,20.5049991607666,-4.630000114440918,-0.7059999704360961,-9.569000244140623,0.5040000081062316
1621585525333,0.5600000023841857,19.47599983215332,-4.0289998054504395,-0.7059999704360961,-9.607000350952148,0.4970000088214874
1621585525343,0.9100000262260436,18.409000396728516,-3.2219998836517334,-0.7450000047683715,-9.607000350952148,0.4970000088214874
1621585525353,1.399999976158142,17.399999618530273,-2.3340001106262207,-0.8240000009536743,-9.60099983215332,0.4580000042915344
1621585525363,1.8200000524520872,16.490999221801758,-2.4230000972747803,-0.8629999756813049,-9.645999908447264,0.4900000095367431
1621585525373,2.380000114440918,15.9399995803833,-2.5199999809265137,-0.9020000100135804,-9.638999938964846,0.4510000050067901
1621585525383,3.1500000953674316,15.607000350952148,-2.6500000953674316,-0.981000006198883,-9.607000350952148,0.4970000088214874
1621585525393,3.9200000762939458,14.937999725341797,-2.4839999675750732,-1.0199999809265137,-9.60099983215332,0.4580000042915344
1621585525403,4.130000114440918,14.972499847412108,-2.4779999256134033,-0.981000006198883,-9.621000289916992,0.5740000009536743
1621585525413,4.340000152587891,15.006999969482422,-2.4719998836517334,-1.0980000495910645,-9.61400032043457,0.5350000262260437
1621585525423,5.179999828338623,14.91800022125244,-2.7720000743865967,-1.1380000114440918,-9.62600040435791,0.3740000128746032
1621585525433,5.599999904632568,15.23799991607666,-2.572999954223633,-1.215999960899353,-9.678000450134276,0.4440000057220459
1621585525443,5.949999809265137,15.595000267028809,-2.5810000896453857,-1.215999960899353,-9.762000083923342,0.4690000116825103
1621585525453,5.949999809265137,16.159000396728516,-2.552999973297119,-1.1770000457763672,-9.885000228881836,0.4880000054836273
1621585525463,5.599999904632568,16.576000213623047,-2.9059998989105225,-1.1770000457763672,-9.916000366210936,0.44200000166893
1621585525473,4.690000057220459,16.99799919128418,-3.6840000152587886,-1.1770000457763672,-9.916000366210936,0.44200000166893
1621585525483,3.6400001049041744,17.524999618530273,-4.6579999923706055,-1.1770000457763672,-9.961999893188477,0.4740000069141387
1621585525493,2.5199999809265137,17.812999725341797,-5.886000156402588,-1.1770000457763672,-9.92300033569336,0.481000006198883
1621585525503,1.3300000429153442,17.979000091552734,-6.426000118255615,-1.1770000457763672,-9.845999717712402,0.4939999878406524
1621585525513,0.9100000262260436,18.108999252319336,-6.757999897003174,-1.1770000457763672,-9.76900005340576,0.5080000162124633
1621585525523,0.2800000011920929,18.63599967956543,-6.5229997634887695,-1.1770000457763672,-9.76900005340576,0.5080000162124633
1621585525533,0.6299999952316284,18.513999938964844,-5.834000110626221,-1.1770000457763672,-9.710000038146973,0.3989999890327453
1621585525543,1.5399999618530271,17.926000595092773,-5.723999977111816,-1.0980000495910645,-9.697999954223633,0.5600000023841857
1621585525553,2.450000047683716,17.509000778198242,-5.370999813079834,-1.1380000114440918,-9.666000366210936,0.606000006198883
1621585525563,3.5,17.447999954223633,-5.0269999504089355,-1.1770000457763672,-9.58199977874756,0.5809999704360961
1621585525573,4.690000057220459,17.225000381469727,-4.567999839782715,-1.1770000457763672,-9.576000213623049,0.5419999957084655
1621585525583,5.179999828338623,16.836000442504883,-3.571000099182129,-1.215999960899353,-9.61400032043457,0.5350000262260437
1621585525593,6.019999980926514,16.608999252319336,-2.687000036239624,-1.215999960899353,-9.65999984741211,0.5669999718666076
1621585525603,6.230000019073486,16.4060001373291,-1.9409999847412107,-1.2549999952316284,-9.666000366210936,0.606000006198883
1621585525613,6.369999885559082,15.923999786376951,-0.8169999718666076,-1.2940000295639038,-9.65999984741211,0.5669999718666076
1621585525623,6.579999923706055,15.486000061035156,-0.7519999742507933,-1.3730000257492063,-9.697999954223633,0.5600000023841857
1621585525633,6.440000057220459,15.210000038146973,-0.8009999990463256,-1.4119999408721924,-9.737000465393066,0.5540000200271606
1621585525643,6.929999828338623,15.20199966430664,-1.1579999923706057,-1.491000056266785,-9.744000434875488,0.5920000076293945
1621585525653,7.175000190734863,15.238499641418455,-1.3645000457763672,-1.5299999713897705,-9.718999862670898,0.6759999990463256
1621585525663,7.420000076293945,15.274999618530272,-1.5709999799728394,-1.5299999713897705,-9.67300033569336,0.6439999938011169
1621585525673,7.8400001525878915,15.178000450134276,-1.0199999809265137,-1.5299999713897705,-9.602999687194824,0.6970000267028807
1621585525683,8.260000228881836,15.043999671936035,-1.4700000286102295,-1.569000005722046,-9.58899974822998,0.6190000176429749
1621585525693,8.329999923706055,14.824999809265137,-2.6459999084472656,-1.569000005722046,-9.635000228881836,0.6510000228881835
1621585525703,8.399999618530273,14.909999847412108,-3.128000020980835,-1.5299999713897705,-9.64099979400635,0.6899999976158142
1621585525713,8.470000267028809,14.597999572753906,-2.9700000286102295,-1.491000056266785,-9.68000030517578,0.6830000281333923
1621585525723,8.470000267028809,14.111000061035156,-2.630000114440918,-1.5299999713897705,-9.635000228881836,0.6510000228881835
1621585525733,8.470000267028809,13.246999740600586,-1.3600000143051147,-1.491000056266785,-9.635000228881836,0.6510000228881835
1621585525743,8.329999923706055,11.913999557495115,-0.2450000047683715,-1.5299999713897705,-9.64099979400635,0.6899999976158142
1621585525753,7.9099998474121085,10.505999565124512,0.0759999975562095,-1.569000005722046,-9.64099979400635,0.6899999976158142
1621585525763,7.349999904632568,9.302000045776367,-0.3499999940395355,-1.6080000400543213,-9.64099979400635,0.6899999976158142
1621585525773,6.929999828338623,8.470999717712402,-1.2790000438690186,-1.6480000019073486,-9.609999656677246,0.7350000143051147
1621585525783,6.369999885559082,7.793000221252441,-2.677000045776367,-1.687000036239624,-9.564000129699709,0.703000009059906
1621585525793,5.739999771118164,7.066999912261963,-3.8010001182556152,-1.6480000019073486,-9.526000022888184,0.7099999785423278
1621585525803,5.110000133514404,6.25600004196167,-4.440999984741211,-1.6480000019073486,-9.602999687194824,0.6970000267028807
1621585525813,4.269999980926514,5.22599983215332,-5.048999786376953,-1.687000036239624,-9.564000129699709,0.703000009059906
1621585525823,3.7799999713897705,4.171999931335449,-5.519000053405762,-1.6480000019073486,-9.564000129699709,0.703000009059906
1621585525833,3.009999990463257,3.0239999294281006,-5.863999843597412,-1.72599995136261,-9.621000289916992,0.5740000009536743
1621585525843,2.309999942779541,2.812999963760376,-6.683000087738037,-1.7649999856948853,-9.666000366210936,0.606000006198883
1621585525853,1.8200000524520872,2.2939999103546143,-7.769999980926514,-1.843999981880188,-9.635000228881836,0.6510000228881835
1621585525863,1.3300000429153442,1.99399995803833,-8.888999938964844,-1.8830000162124632,-9.635000228881836,0.6510000228881835
1621585525873,0.9100000262260436,2.184000015258789,-9.565999984741213,-1.8830000162124632,-9.595999717712402,0.6579999923706054
1621585525883,1.4700000286102295,2.313999891281128,-9.89900016784668,-1.8830000162124632,-9.647999763488768,0.7279999852180481
1621585525893,1.434999942779541,2.249000072479248,-10.33650016784668,-1.8830000162124632,-9.526000022888184,0.7099999785423278
1621585525903,1.399999976158142,2.184000015258789,-10.77400016784668,-1.8830000162124632,-9.64099979400635,0.6899999976158142
1621585525913,1.8200000524520872,3.0360000133514404,-11.975000381469728,-1.9220000505447388,-9.64099979400635,0.6899999976158142
1621585525923,1.9600000381469729,3.3919999599456787,-13.190999984741213,-1.8830000162124632,-9.628000259399414,0.6129999756813049
1621585525933,1.75,3.813999891281128,-13.970000267028809,-1.8830000162124632,-9.67300033569336,0.6439999938011169
1621585525943,1.399999976158142,4.409999847412109,-14.930999755859377,-1.843999981880188,-9.67300033569336,0.6439999938011169
1621585525953,1.4700000286102295,4.775000095367432,-15.791000366210938,-1.7649999856948853,-9.687000274658203,0.722000002861023
1621585525963,0.699999988079071,5.334000110626221,-16.545000076293945,-1.687000036239624,-9.75699996948242,0.6690000295639038
1621585525973,-0.0700000002980232,5.642000198364258,-16.277999877929688,-1.6480000019073486,-9.763999938964846,0.7080000042915344
1621585525983,-0.4199999868869781,5.75600004196167,-16.114999771118164,-1.6480000019073486,-9.75699996948242,0.6690000295639038
1621585525993,-0.8399999737739563,5.85699987411499,-15.883999824523926,-1.6480000019073486,-9.788999557495115,0.6240000128746032
1621585526003,-2.240000009536743,6.205999851226807,-16.249000549316406,-1.6080000400543213,-9.79599952697754,0.6629999876022338
1621585526013,-3.2200000286102295,6.51800012588501,-16.406999588012695,-1.5299999713897705,-9.75100040435791,0.6309999823570251
1621585526023,-4.269999980926514,6.741000175476074,-16.865999221801758,-1.5299999713897705,-9.75100040435791,0.6309999823570251
1621585526033,-5.739999771118164,7.052999973297119,-17.02400016784668,-1.5299999713897705,-9.75699996948242,0.6690000295639038
1621585526043,-6.929999828338623,7.92899990081787,-17.15399932861328,-1.5299999713897705,-9.68000030517578,0.6830000281333923
1621585526053,-8.050000190734863,8.083000183105469,-17.624000549316406,-1.5299999713897705,-9.635000228881836,0.6510000228881835
1621585526063,-8.75,9.762000083923342,-17.469999313354492,-1.5299999713897705,-9.602999687194824,0.6970000267028807
1621585526073,-8.539999961853027,10.734999656677246,-16.94300079345703,-1.5299999713897705,-9.564000129699709,0.703000009059906
1621585526083,-8.329999923706055,11.416999816894531,-15.970000267028809,-1.491000056266785,-9.526000022888184,0.7099999785423278
1621585526093,-6.71999979019165,11.902999877929688,-15.10200023651123,-1.4509999752044678,-9.51900005340576,0.6719999909400939
1621585526103,-5.739999771118164,12.074000358581545,-14.859000205993652,-1.3730000257492063,-9.50100040435791,0.7940000295639038
1621585526113,-4.96999979019165,11.789999961853027,-15.265000343322754,-1.3339999914169312,-9.538999557495115,0.7879999876022338
1621585526123,-4.899999618530273,11.652000427246094,-15.288999557495115,-1.3339999914169312,-9.564000129699709,0.703000009059906
1621585526133,-4.829999923706055,11.513999938964844,-15.312999725341797,-1.2549999952316284,-9.595999717712402,0.6579999923706054
1621585526143,-4.619999885559082,10.755999565124512,-15.446999549865724,-1.2549999952316284,-9.666000366210936,0.606000006198883
1621585526153,-4.690000057220459,9.628000259399414,-15.503999710083008,-1.2549999952316284,-9.704999923706056,0.5989999771118164
1621585526163,-4.829999923706055,9.361000061035156,-15.19499969482422,-1.2940000295639038,-9.711999893188477,0.6380000114440918
1621585526173,-4.480000019073486,8.939000129699707,-15.625,-1.3339999914169312,-9.776000022888184,0.5469999909400939
1621585526183,-4.269999980926514,8.91100025177002,-16.270000457763672,-1.4119999408721924,-9.866000175476074,0.6100000143051147
1621585526193,-4.130000114440918,9.571000099182127,-16.792999267578125,-1.4509999752044678,-9.75100040435791,0.6309999823570251
1621585526203,-3.990000009536743,10.5,-17.624000549316406,-1.4509999752044678,-9.744000434875488,0.5920000076293945
1621585526213,-3.5,11.17300033569336,-17.007999420166016,-1.4119999408721924,-9.704999923706056,0.5989999771118164
1621585526223,-3.9200000762939458,12.291999816894531,-17.308000564575195,-1.4119999408721924,-9.666000366210936,0.606000006198883
1621585526233,-4.199999809265137,13.395000457763672,-18.32200050354004,-1.4509999752044678,-9.65999984741211,0.5669999718666076
1621585526243,-4.199999809265137,14.125,-18.83300018310547,-1.3730000257492063,-9.652999877929688,0.5289999842643737
1621585526253,-4.269999980926514,14.932000160217283,-18.975000381469727,-1.3339999914169312,-9.65999984741211,0.5669999718666076
1621585526263,-4.269999980926514,15.901000022888184,-19.231000900268555,-1.3730000257492063,-9.697999954223633,0.5600000023841857
1621585526273,-4.130000114440918,16.152000427246094,-19.04400062561035,-1.3339999914169312,-9.776000022888184,0.5469999909400939
1621585526283,-4.619999885559082,17.26799964904785,-17.711000442504883,-1.4119999408721924,-9.897999763488768,0.5649999976158142
1621585526293,-4.829999923706055,19.79400062561035,-17.12299919128418,-1.5299999713897705,-9.944000244140623,0.597000002861023
