timestamp,gyro_x,gyro_y,gyro_z,acc_x,acc_y,acc_z
1621844310612,0.0,0.0,0.0,0.0,0.0,0.0
1621844310621,3.0799999237060547,7.833000183105469,-6.934999942779541,0.0,-9.776000022888184,-0.8080000281333923
1621844310631,3.009999990463257,7.39900016784668,-7.296000003814697,0.0,-9.76900005340576,-0.8460000157356262
1621844310641,2.7300000190734863,6.802999973297119,-7.543000221252441,0.0,-9.814000129699709,-0.8140000104904174
1621844310651,2.450000047683716,6.556000232696533,-6.947000026702881,-0.0390000008046627,-9.782999992370604,-0.7689999938011169
1621844310661,2.1700000762939453,6.283999919891357,-6.2129998207092285,0.0,-9.737000465393066,-0.8009999990463256
1621844310671,2.0999999046325684,5.764999866485596,-6.091000080108643,0.0,-9.697999954223633,-0.7940000295639038
1621844310681,1.9600000381469729,5.826000213623047,-6.435999870300293,-0.0780000016093254,-9.718999862670898,-0.6779999732971191
1621844310691,1.8200000524520872,5.60699987411499,-6.4039998054504395,-0.0390000008046627,-9.666999816894531,-0.7490000128746032
1621844310701,1.6799999475479126,5.318999767303467,-6.382999897003174,-0.0390000008046627,-9.711999893188477,-0.7170000076293945
1621844310711,1.399999976158142,5.214000225067139,-6.189000129699707,0.0,-9.711999893188477,-0.7170000076293945
1621844310721,1.3300000429153442,4.938000202178955,-6.236999988555908,0.0390000008046627,-9.75100040435791,-0.7239999771118164
1621844310731,1.0499999523162842,4.51200008392334,-6.241000175476074,0.0390000008046627,-9.75100040435791,-0.7239999771118164
1621844310741,1.0499999523162842,3.786999940872192,-6.156000137329102,0.0,-9.782999992370604,-0.7689999938011169
1621844310751,0.8399999737739563,2.9549999237060547,-5.875999927520752,0.0,-9.821000099182127,-0.7760000228881835
1621844310761,0.4199999868869781,2.930999994277954,-5.73799991607666,0.0,-9.821000099182127,-0.7760000228881835
1621844310771,0.209999993443489,2.756999969482422,-5.556000232696533,-0.0390000008046627,-9.897999763488768,-0.7889999747276306
1621844310781,-0.3499999940395355,2.809000015258789,-6.256999969482422,-0.0390000008046627,-9.852999687194824,-0.8209999799728394
1621844310791,-1.1200000047683716,2.9630000591278076,-6.728000164031982,-0.0390000008046627,-9.845999717712402,-0.8600000143051147
1621844310801,-1.6100000143051147,2.861999988555908,-6.959000110626221,-0.0390000008046627,-9.885000228881836,-0.8669999837875366
1621844310811,-2.0299999713897705,2.878000020980835,-6.849499702453613,-0.0390000008046627,-9.878000259399414,-0.9049999713897704
1621844310821,-2.450000047683716,2.8940000534057617,-6.739999771118164,-0.0390000008046627,-9.800999641418455,-0.8920000195503234
1621844310831,-3.2200000286102295,2.5739998817443848,-6.938000202178955,-0.0390000008046627,-9.762000083923342,-0.8849999904632568
1621844310841,-3.2899999618530273,2.885999917984009,-7.0970001220703125,-0.0390000008046627,-9.645999908447264,-0.8640000224113464
1621844310851,-3.7100000381469727,2.634999990463257,-7.282999992370605,-0.0390000008046627,-9.569000244140623,-0.8510000109672546
1621844310861,-3.5,2.934999942779541,-7.372000217437744,0.0,-9.576000213623049,-0.8119999766349792
1621844310871,-2.940000057220459,2.947000026702881,-7.440999984741211,0.0,-9.569000244140623,-0.8510000109672546
1621844310881,-1.8200000524520872,2.9630000591278076,-7.935999870300293,0.0,-9.569000244140623,-0.8510000109672546
1621844310891,-0.9800000190734864,2.881999969482422,-7.879000186920166,0.0,-9.645999908447264,-0.8640000224113464
1621844310901,-0.0700000002980232,2.9019999504089355,-7.5910000801086435,-0.0390000008046627,-9.645999908447264,-0.8640000224113464
1621844310911,0.7699999809265136,2.8329999446868896,-7.604000091552734,-0.0390000008046627,-9.678000450134276,-0.9100000262260436
1621844310921,1.190000057220459,2.558000087738037,-7.651999950408936,0.0,-9.722999572753906,-0.8780000209808348
1621844310931,0.9100000262260436,2.7850000858306885,-7.328000068664551,-0.0390000008046627,-9.722999572753906,-0.8780000209808348
1621844310941,0.4900000095367431,3.312000036239624,-7.0929999351501465,-0.0390000008046627,-9.717000007629396,-0.9169999957084656
1621844310951,0.2800000011920929,3.611999988555908,-7.182000160217285,-0.0390000008046627,-9.722999572753906,-0.8780000209808348
1621844310961,-0.1400000005960464,3.8589999675750737,-7.777999877929688,0.0,-9.6850004196167,-0.8709999918937683
1621844310971,-0.209999993443489,4.158999919891357,-7.867000102996825,0.0,-9.645999908447264,-0.8640000224113464
1621844310981,0.0,4.715000152587891,-8.196000099182129,0.0,-9.61400032043457,-0.8190000057220459
1621844310991,0.1400000005960464,4.5279998779296875,-7.943999767303467,0.0,-9.569000244140623,-0.8510000109672546
1621844311001,0.209999993443489,4.163000106811523,-8.293000221252441,0.0,-9.607999801635742,-0.8579999804496765
1621844311011,0.4900000095367431,4.24399995803833,-8.350000381469727,0.0780000016093254,-9.652999877929688,-0.8259999752044677
1621844311021,0.9800000190734864,3.7820000648498535,-8.147000312805176,0.0780000016093254,-9.69200038909912,-0.8330000042915344
1621844311031,1.190000057220459,3.8510000705718994,-8.135000228881836,0.0780000016093254,-9.737000465393066,-0.8009999990463256
1621844311041,1.225000023841858,3.573500156402588,-7.970499992370605,0.0780000016093254,-9.697999954223633,-0.7940000295639038
1621844311051,1.2599999904632568,3.2960000038146973,-7.806000232696533,0.1180000007152557,-9.697999954223633,-0.7940000295639038
1621844311061,1.3300000429153442,3.2869999408721924,-8.163000106811523,0.1570000052452087,-9.737000465393066,-0.8009999990463256
1621844311071,1.3300000429153442,3.0320000648498535,-7.923999786376954,0.1959999948740005,-9.744000434875488,-0.762000024318695
1621844311081,1.190000057220459,3.1700000762939453,-7.900000095367432,0.1959999948740005,-9.711999893188477,-0.7170000076293945
1621844311091,0.7699999809265136,3.0079998970031734,-7.78599977493286,0.1570000052452087,-9.666999816894531,-0.7490000128746032
1621844311101,0.5600000023841857,2.7079999446868896,-7.697000026702882,0.1570000052452087,-9.704999923706056,-0.7549999952316284
1621844311111,0.8399999737739563,2.119999885559082,-7.586999893188477,0.1180000007152557,-9.711999893188477,-0.7170000076293945
1621844311121,0.9100000262260436,1.8200000524520872,-6.289999961853027,0.1180000007152557,-9.67300033569336,-0.7099999785423278
1621844311131,0.9800000190734864,1.1100000143051147,-5.491000175476074,0.0390000008046627,-9.666999816894531,-0.7490000128746032
1621844311141,1.0499999523162842,1.0859999656677246,-5.353000164031982,0.0,-9.666999816894531,-0.7490000128746032
1621844311151,1.2599999904632568,1.1430000066757202,-5.271999835968018,0.0,-9.67300033569336,-0.7099999785423278
1621844311161,1.4700000286102295,1.8650000095367432,-4.931000232696533,-0.0390000008046627,-9.67300033569336,-0.7099999785423278
1621844311171,1.6100000143051147,1.98199999332428,-5.195000171661377,-0.0390000008046627,-9.711999893188477,-0.7170000076293945
1621844311181,1.2599999904632568,2.440000057220459,-4.9720001220703125,-0.0390000008046627,-9.718999862670898,-0.6779999732971191
1621844311191,1.0499999523162842,3.072999954223633,-4.931000232696533,-0.0390000008046627,-9.75100040435791,-0.7239999771118164
1621844311201,0.6299999952316284,3.486999988555908,-4.857999801635742,-0.0390000008046627,-9.718999862670898,-0.6779999732971191
1621844311211,0.1400000005960464,3.880000114440918,-5.072999954223633,-0.0390000008046627,-9.758000373840332,-0.6850000023841857
1621844311221,-0.0700000002980232,4.585000038146973,-5.446000099182129,-0.0390000008046627,-9.758000373840332,-0.6850000023841857
1621844311231,-0.1400000005960464,4.763999938964844,-6.054999828338623,0.0,-9.79599952697754,-0.6919999718666076
1621844311241,-0.0700000002980232,4.906000137329102,-6.455999851226807,0.0,-9.782999992370604,-0.7689999938011169
1621844311251,-0.209999993443489,5.019000053405762,-6.294000148773193,0.0,-9.79599952697754,-0.6919999718666076
1621844311261,-0.209999993443489,5.019000053405762,-6.294000148773193,0.0,-9.788999557495115,-0.7300000190734863
1621844311271,0.0,5.202000141143799,-6.119999885559082,-0.0390000008046627,-9.758000373840332,-0.6850000023841857
1621844311281,-0.1400000005960464,5.327000141143799,-6.026000022888184,0.0,-9.835000038146973,-0.6990000009536743
1621844311291,0.209999993443489,5.626999855041504,-6.116000175476074,-0.0390000008046627,-9.803000450134276,-0.652999997138977
1621844311301,0.0349999964237213,5.670000076293945,-6.357000350952148,-0.0390000008046627,-9.803000450134276,-0.652999997138977
1621844311311,-0.1400000005960464,5.7129998207092285,-6.5980000495910645,-0.0390000008046627,-9.835000038146973,-0.6990000009536743
1621844311321,-0.6299999952316284,5.980000019073486,-6.906000137329102,0.0,-9.788999557495115,-0.7300000190734863
1621844311331,-0.9100000262260436,6.304999828338623,-7.133999824523926,-0.0390000008046627,-9.737000465393066,-0.8009999990463256
1621844311341,-1.6100000143051147,6.364999771118164,-6.269999980926514,-0.0390000008046627,-9.744000434875488,-0.762000024318695
1621844311351,-1.8899999856948853,6.5929999351501465,-5.946000099182129,-0.0390000008046627,-9.782999992370604,-0.7689999938011169
1621844311361,-1.8899999856948853,6.60099983215332,-5.589000225067139,-0.0390000008046627,-9.744000434875488,-0.762000024318695
1621844311371,-1.4700000286102295,6.863999843597412,-5.4710001945495605,-0.0780000016093254,-9.758000373840332,-0.6850000023841857
1621844311381,-1.190000057220459,6.755000114440918,-6.059000015258789,0.0,-9.718999862670898,-0.6779999732971191
1621844311391,-1.5399999618530271,6.572000026702881,-6.232999801635742,0.0,-9.744000434875488,-0.762000024318695
1621844311401,-1.2599999904632568,6.828000068664551,-6.4730000495910645,0.0,-9.744000434875488,-0.762000024318695
1621844311411,-1.1200000047683716,7.039000034332275,-6.861999988555908,0.0,-9.737000465393066,-0.8009999990463256
1621844311421,-0.9800000190734864,6.7870001792907715,-7.048999786376953,0.0,-9.737000465393066,-0.8009999990463256
1621844311431,-1.2599999904632568,6.625,-6.934999942779541,0.0390000008046627,-9.737000465393066,-0.8009999990463256
1621844311441,-1.3300000429153442,6.758999824523926,-6.485000133514404,0.0390000008046627,-9.776000022888184,-0.8080000281333923
1621844311451,-1.6100000143051147,6.377999782562256,-6.339000225067139,0.0390000008046627,-9.737000465393066,-0.8009999990463256
1621844311461,-1.8899999856948853,6.158999919891357,-6.306000232696533,0.0,-9.737000465393066,-0.8009999990463256
1621844311471,-1.9600000381469729,6.296999931335449,-6.2820000648498535,0.0390000008046627,-9.666999816894531,-0.7490000128746032
1621844311481,-2.240000009536743,6.251999855041504,-6.432000160217285,0.0,-9.65999984741211,-0.787000000476837
1621844311491,-2.1700000762939453,6.122000217437744,-6.099999904632568,0.0,-9.645999908447264,-0.8640000224113464
1621844311501,-2.240000009536743,6.190999984741211,-6.086999893188477,0.0,-9.729999542236328,-0.8389999866485595
1621844311511,-1.9600000381469729,6.110000133514404,-6.031000137329102,0.0,-9.711999893188477,-0.7170000076293945
1621844311521,-1.3300000429153442,5.947999954223633,-5.916999816894531,0.0,-9.704999923706056,-0.7549999952316284
1621844311531,-0.8399999737739563,5.859000205993652,-6.2170000076293945,-0.0390000008046627,-9.697999954223633,-0.7940000295639038
1621844311541,-0.6299999952316284,5.809999942779541,-5.940999984741211,0.0,-9.697999954223633,-0.7940000295639038
1621844311551,-0.6299999952316284,5.4770002365112305,-6.071000099182129,-0.0390000008046627,-9.65999984741211,-0.787000000476837
1621844311561,-0.4900000095367431,5.282500267028809,-6.17650032043457,-0.0390000008046627,-9.697999954223633,-0.7940000295639038
1621844311571,-0.3499999940395355,5.0879998207092285,-6.2820000648498535,-0.0390000008046627,-9.697999954223633,-0.7940000295639038
1621844311581,-0.1400000005960464,4.738999843597412,-5.916999816894531,-0.0390000008046627,-9.729999542236328,-0.8389999866485595
1621844311591,-0.2800000011920929,4.4070000648498535,-6.046999931335449,-0.0390000008046627,-9.729999542236328,-0.8389999866485595
1621844311601,-0.3499999940395355,4.168000221252441,-6.302000045776367,0.0,-9.729999542236328,-0.8389999866485595
1621844311611,-0.2800000011920929,3.989000082015991,-6.9019999504089355,0.0,-9.729999542236328,-0.8389999866485595
1621844311621,-0.3499999940395355,4.013000011444092,-7.039999961853027,0.0,-9.729999542236328,-0.8389999866485595
1621844311631,0.0,3.4170000553131104,-7.2870001792907715,0.0,-9.704999923706056,-0.7549999952316284
1621844311641,0.2800000011920929,3.3359999656677246,-7.230999946594238,-0.0390000008046627,-9.704999923706056,-0.7549999952316284
1621844311651,0.3499999940395355,3.3440001010894775,-6.874000072479248,0.0,-9.704999923706056,-0.7549999952316284
1621844311661,0.4900000095367431,2.8380000591278076,-6.821000099182129,0.0,-9.65999984741211,-0.787000000476837
1621844311671,0.6299999952316284,2.61899995803833,-6.788000106811523,0.0,-9.65999984741211,-0.787000000476837
1621844311681,0.9800000190734864,2.5369999408721924,-6.73199987411499,-0.0390000008046627,-9.67300033569336,-0.7099999785423278
1621844311691,1.3300000429153442,2.4519999027252197,-6.249000072479248,-0.0390000008046627,-9.711999893188477,-0.7170000076293945
1621844311701,1.4700000286102295,2.2860000133514404,-5.710000038146973,-0.0390000008046627,-9.704999923706056,-0.7549999952316284
1621844311711,1.0499999523162842,2.6429998874664307,-5.7179999351501465,-0.0780000016093254,-9.704999923706056,-0.7549999952316284
1621844311721,0.9800000190734864,3.177999973297119,-6.334000110626221,-0.0780000016093254,-9.744000434875488,-0.762000024318695
1621844311731,0.9100000262260436,3.0160000324249268,-6.2210001945495605,-0.0780000016093254,-9.782999992370604,-0.7689999938011169
1621844311741,0.5600000023841857,3.0769999027252197,-6.565000057220459,-0.0390000008046627,-9.821000099182127,-0.7760000228881835
1621844311751,0.6299999952316284,3.4579999446868896,-6.710999965667725,-0.0390000008046627,-9.744000434875488,-0.762000024318695
1621844311761,0.2800000011920929,3.434000015258789,-6.573999881744385,-0.0390000008046627,-9.711999893188477,-0.7170000076293945
1621844311771,0.1400000005960464,3.5429999828338623,-7.193999767303467,-0.0780000016093254,-9.75100040435791,-0.7239999771118164
1621844311781,0.4900000095367431,3.7090001106262207,-7.732999801635742,-0.0780000016093254,-9.711999893188477,-0.7170000076293945
1621844311791,0.1400000005960464,3.884000062942505,-7.915999889373779,-0.0780000016093254,-9.67300033569336,-0.7099999785423278
1621844311801,0.5600000023841857,3.4700000286102295,-7.988999843597413,0.0,-9.75100040435791,-0.7239999771118164
1621844311811,0.8399999737739563,3.0480000972747803,-7.210000038146973,0.0,-9.758000373840332,-0.6850000023841857
1621844311821,0.8049999475479126,3.1455001831054688,-6.552999973297119,0.0,-9.72599983215332,-0.6389999985694885
1621844311831,0.7699999809265136,3.243000030517578,-5.895999908447266,-0.0390000008046627,-9.687000274658203,-0.6330000162124633
1621844311841,0.7699999809265136,3.2109999656677246,-4.9070000648498535,-0.0390000008046627,-9.647999763488768,-0.6259999871253967
1621844311851,1.2599999904632568,3.177999973297119,-5.125999927520752,-0.0390000008046627,-9.647999763488768,-0.6259999871253967
1621844311861,1.399999976158142,3.3320000171661377,-5.5960001945495605,-0.0390000008046627,-9.718999862670898,-0.6779999732971191
1621844311871,1.399999976158142,3.5230000019073486,-6.27400016784668,-0.0390000008046627,-9.718999862670898,-0.6779999732971191
1621844311881,1.399999976158142,3.989000082015991,-6.9019999504089355,-0.0390000008046627,-9.72599983215332,-0.6389999985694885
1621844311891,1.1200000047683716,3.624000072479248,-7.250999927520752,-0.0390000008046627,-9.718999862670898,-0.6779999732971191
1621844311901,1.0499999523162842,3.4739999771118164,-7.205999851226807,0.0390000008046627,-9.72599983215332,-0.6389999985694885
1621844311911,0.6299999952316284,2.8940000534057617,-6.739999771118164,0.0,-9.647999763488768,-0.6259999871253967
1621844311921,0.8399999737739563,2.9790000915527344,-7.222000122070312,0.0,-9.654999732971191,-0.5870000123977661
1621844311931,0.9800000190734864,2.634999990463257,-7.282999992370605,0.0,-9.654999732971191,-0.5870000123977661
1621844311941,1.4700000286102295,2.696000099182129,-7.627999782562256,0.0,-9.668999671936035,-0.5099999904632568
1621844311951,1.5399999618530271,2.683000087738037,-7.559000015258789,-0.0390000008046627,-9.701000213623049,-0.5550000071525573
1621844311961,1.8899999856948853,2.7239999771118164,-6.982999801635742,-0.0390000008046627,-9.701000213623049,-0.5550000071525573
1621844311971,2.380000114440918,3.2309999465942383,-7.035999774932861,-0.0390000008046627,-9.73900032043457,-0.5619999766349792
1621844311981,2.5199999809265137,3.065000057220459,-6.497000217437744,-0.0390000008046627,-9.701000213623049,-0.5550000071525573
1621844311991,2.450000047683716,3.0280001163482666,-6.289999961853027,-0.0390000008046627,-9.746000289916992,-0.5239999890327453
1621844312001,2.240000009536743,3.1989998817443848,-6.046000003814697,-0.0390000008046627,-9.777999877929688,-0.5690000057220459
1621844312011,2.1700000762939453,3.5510001182556152,-6.836999893188477,-0.0780000016093254,-9.78499984741211,-0.5299999713897705
1621844312021,1.75,3.9159998893737793,-7.697000026702882,-0.0390000008046627,-9.73900032043457,-0.5619999766349792
1621844312031,1.190000057220459,3.8350000381469727,-7.639999866485595,0.0,-9.746000289916992,-0.5239999890327453
1621844312041,0.9100000262260436,3.8429999351501465,-7.282999992370605,0.0,-9.701000213623049,-0.5550000071525573
1621844312051,0.6299999952316284,3.8510000705718994,-6.926000118255615,0.0390000008046627,-9.79800033569336,-0.453000009059906
1621844312061,0.2800000011920929,4.053999900817871,-6.464000225067139,0.0,-9.753000259399414,-0.4850000143051147
1621844312071,0.4900000095367431,3.989000082015991,-6.9019999504089355,0.0390000008046627,-9.73900032043457,-0.5619999766349792
1621844312081,0.4900000095367431,3.7420001029968266,-7.513999938964843,0.0390000008046627,-9.777999877929688,-0.5690000057220459
1621844312091,0.3499999940395355,3.875999927520752,-7.064000129699707,0.0390000008046627,-9.73900032043457,-0.5619999766349792
1621844312101,0.1400000005960464,3.7460000514984126,-6.73199987411499,0.0390000008046627,-9.73900032043457,-0.5619999766349792
1621844312111,0.2800000011920929,3.490000009536743,-6.493000030517578,0.0,-9.732000350952148,-0.6010000109672546
1621844312121,0.4199999868869781,2.9149999618530273,-6.452000141143799,0.0,-9.72599983215332,-0.6389999985694885
1621844312131,0.209999993443489,2.7730000019073486,-6.050000190734863,0.0,-9.694000244140623,-0.5939999818801879
1621844312141,0.0700000002980232,3.138000011444092,-5.702000141143799,-0.0390000008046627,-9.732000350952148,-0.6010000109672546
1621844312151,-0.0700000002980232,3.0360000133514404,-5.933000087738037,-0.0390000008046627,-9.770999908447264,-0.6079999804496765
1621844312161,-0.3499999940395355,3.259000062942505,-6.390999794006348,-0.0780000016093254,-9.770999908447264,-0.6079999804496765
1621844312171,-0.2800000011920929,3.2709999084472656,-6.460000038146973,-0.0390000008046627,-9.777999877929688,-0.5690000057220459
1621844312181,-0.5600000023841857,3.377000093460083,-6.65500020980835,0.0,-9.777999877929688,-0.5690000057220459
1621844312190,-1.0499999523162842,3.5840001106262207,-6.618000030517578,-0.0390000008046627,-9.777999877929688,-0.5690000057220459
1621844312200,-0.9800000190734864,3.7219998836517334,-6.593999862670898,-0.0390000008046627,-9.81700038909912,-0.5759999752044677
1621844312210,-0.9800000190734864,3.8959999084472656,-6.776000022888184,-0.0390000008046627,-9.770999908447264,-0.6079999804496765
1621844312220,-1.190000057220459,3.38100004196167,-7.079999923706055,0.0,-9.732000350952148,-0.6010000109672546
1621844312230,-1.399999976158142,3.3929998874664307,-7.14900016784668,-0.0390000008046627,-9.72599983215332,-0.6389999985694885
1621844312240,-1.5399999618530271,3.461999893188477,-7.13700008392334,-0.0390000008046627,-9.732000350952148,-0.6010000109672546
1621844312250,-1.434999942779541,3.38700008392334,-7.114999771118164,-0.0390000008046627,-9.72599983215332,-0.6389999985694885
1621844312260,-1.3300000429153442,3.312000036239624,-7.0929999351501465,-0.0390000008046627,-9.72599983215332,-0.6389999985694885
1621844312270,-1.2599999904632568,3.259000062942505,-6.390999794006348,-0.0780000016093254,-9.732000350952148,-0.6010000109672546
1621844312280,-0.8399999737739563,3.2960000038146973,-6.5980000495910645,-0.0390000008046627,-9.694000244140623,-0.5939999818801879
1621844312290,-0.4900000095367431,3.1619999408721924,-7.047999858856201,-0.0780000016093254,-9.647999763488768,-0.6259999871253967
1621844312300,-0.4199999868869781,3.2669999599456787,-7.243000030517577,-0.0390000008046627,-9.687000274658203,-0.6330000162124633
1621844312310,-0.209999993443489,3.1050000190734863,-7.129000186920166,-0.0390000008046627,-9.694000244140623,-0.5939999818801879
1621844312320,0.0700000002980232,3.5190000534057617,-7.056000232696533,0.0390000008046627,-9.687000274658203,-0.6330000162124633
1621844312330,0.0700000002980232,3.75,-7.1579999923706055,0.0,-9.732000350952148,-0.6010000109672546
1621844312340,0.3499999940395355,3.7170000076293945,-7.376999855041504,-0.0780000016093254,-9.67300033569336,-0.7099999785423278
1621844312350,0.2800000011920929,3.619999885559082,-6.824999809265137,-0.0780000016093254,-9.687000274658203,-0.6330000162124633
1621844312360,0.3499999940395355,3.619999885559082,-6.824999809265137,-0.0780000016093254,-9.687000274658203,-0.6330000162124633
1621844312370,0.1400000005960464,4.176000118255615,-7.1539998054504395,-0.0390000008046627,-9.687000274658203,-0.6330000162124633
1621844312380,0.209999993443489,4.188000202178955,-7.223000049591064,-0.0390000008046627,-9.687000274658203,-0.6330000162124633
1621844312390,0.4900000095367431,3.880000114440918,-7.489999771118165,-0.0780000016093254,-9.68000030517578,-0.6710000038146972
1621844312400,0.8399999737739563,4.020999908447266,-7.892000198364258,-0.0390000008046627,-9.654999732971191,-0.5870000123977661
1621844312410,1.0499999523162842,3.9200000762939458,-8.123000144958496,0.0,-9.732000350952148,-0.6010000109672546
1621844312420,0.9800000190734864,4.008999824523926,-7.822999954223632,0.0,-9.732000350952148,-0.6010000109672546
1621844312430,0.7699999809265136,4.126999855041504,-8.086000442504883,-0.0390000008046627,-9.72599983215332,-0.6389999985694885
1621844312440,0.6299999952316284,3.9769999980926514,-8.041999816894531,-0.0390000008046627,-9.770999908447264,-0.6079999804496765
1621844312450,0.8399999737739563,4.334000110626221,-8.050000190734863,-0.0390000008046627,-9.8100004196167,-0.6140000224113464
1621844312460,0.6299999952316284,4.396500110626221,-8.003499984741211,0.0,-9.803000450134276,-0.652999997138977
1621844312470,0.4199999868869781,4.459000110626221,-7.956999778747559,-0.0390000008046627,-9.803000450134276,-0.652999997138977
1621844312480,0.1400000005960464,4.913000106811523,-8.515999794006348,-0.0780000016093254,-9.763999938964846,-0.6460000276565551
1621844312490,-0.2800000011920929,5.192999839782715,-8.892999649047852,-0.0390000008046627,-9.763999938964846,-0.6460000276565551
1621844312500,-0.4199999868869781,5.611000061035156,-9.246000289916992,0.0,-9.803000450134276,-0.652999997138977
1621844312510,-0.9100000262260436,6.01200008392334,-9.104000091552734,-0.0390000008046627,-9.842000007629396,-0.6600000262260437
1621844312520,-1.0499999523162842,6.296000003814697,-8.699000358581543,-0.0390000008046627,-9.758000373840332,-0.6850000023841857
1621844312530,-0.699999988079071,6.303999900817871,-8.342000007629395,-0.0390000008046627,-9.763999938964846,-0.6460000276565551
1621844312540,-0.9100000262260436,6.454999923706055,-7.177999973297119,0.0,-9.763999938964846,-0.6460000276565551
1621844312550,-1.1200000047683716,6.559999942779541,-6.164999961853027,0.0,-9.72599983215332,-0.6389999985694885
1621844312560,-0.9800000190734864,6.673999786376953,-6.001999855041504,-0.0390000008046627,-9.694000244140623,-0.5939999818801879
1621844312570,-0.3499999940395355,6.7829999923706055,-6.623000144958496,0.0,-9.654999732971191,-0.5870000123977661
1621844312580,0.0,6.998000144958496,-7.438000202178955,0.0390000008046627,-9.682000160217283,-0.4329999983310699
1621844312590,0.8399999737739563,6.61299991607666,-8.074000358581543,0.0,-9.668999671936035,-0.5099999904632568
1621844312600,1.1200000047683716,6.64900016784668,-8.281000137329102,0.0,-9.654999732971191,-0.5870000123977661
1621844312610,1.1200000047683716,6.394000053405762,-8.041999816894531,0.0390000008046627,-9.701000213623049,-0.5550000071525573
1621844312620,0.9100000262260436,6.406000137329102,-8.111000061035156,0.0390000008046627,-9.70699977874756,-0.5170000195503234
1621844312630,0.7699999809265136,6.313000202178955,-7.985000133514405,0.0390000008046627,-9.73900032043457,-0.5619999766349792
1621844312640,0.4900000095367431,6.165999889373779,-8.366000175476074,0.0,-9.73900032043457,-0.5619999766349792
1621844312650,0.1750000119209289,6.350500106811523,-8.404500007629395,0.0390000008046627,-9.777999877929688,-0.5690000057220459
1621844312660,-0.1400000005960464,6.534999847412109,-8.442999839782715,0.0,-9.732000350952148,-0.6010000109672546
1621844312670,-0.209999993443489,6.296000003814697,-8.699000358581543,0.0780000016093254,-9.732000350952148,-0.6010000109672546
1621844312680,-0.0700000002980232,6.195000171661377,-8.930000305175781,0.0390000008046627,-9.732000350952148,-0.6010000109672546
1621844312690,-0.0700000002980232,5.922999858856201,-8.196000099182129,0.0390000008046627,-9.732000350952148,-0.6010000109672546
1621844312700,0.2800000011920929,5.817999839782715,-8.00100040435791,0.0390000008046627,-9.694000244140623,-0.5939999818801879
1621844312710,0.6299999952316284,5.436999797821045,-7.855000019073486,0.0390000008046627,-9.694000244140623,-0.5939999818801879
1621844312720,0.7699999809265136,5.501999855041504,-7.416999816894531,0.0390000008046627,-9.732000350952148,-0.6010000109672546
1621844312730,0.8399999737739563,5.736999988555908,-7.945000171661377,0.0780000016093254,-9.73900032043457,-0.5619999766349792
1621844312740,0.4900000095367431,5.834000110626221,-8.496000289916992,0.0390000008046627,-9.770999908447264,-0.6079999804496765
1621844312750,0.2800000011920929,6.065000057220459,-8.597000122070312,0.0390000008046627,-9.732000350952148,-0.6010000109672546
1621844312760,0.4900000095367431,5.420000076293945,-8.569000244140625,0.0780000016093254,-9.72599983215332,-0.6389999985694885
1621844312770,-0.0700000002980232,5.448999881744385,-7.923999786376954,0.0780000016093254,-9.763999938964846,-0.6460000276565551
1621844312780,-0.4900000095367431,5.546000003814697,-7.267000198364258,0.0780000016093254,-9.763999938964846,-0.6460000276565551
1621844312790,-0.6299999952316284,5.521999835968018,-7.129000186920166,0.0780000016093254,-9.732000350952148,-0.6010000109672546
1621844312800,-0.2800000011920929,5.210000038146973,-6.9710001945495605,0.0390000008046627,-9.732000350952148,-0.6010000109672546
1621844312810,-0.209999993443489,5.298999786376953,-6.671000003814697,0.0390000008046627,-9.72599983215332,-0.6389999985694885
1621844312820,-0.0700000002980232,5.230000019073486,-6.683000087738037,0.0,-9.694000244140623,-0.5939999818801879
1621844312830,0.4900000095367431,5.302999973297119,-7.0970001220703125,0.0,-9.647999763488768,-0.6259999871253967
1621844312840,0.2800000011920929,5.164999961853027,-7.120999813079834,0.0,-9.647999763488768,-0.6259999871253967
1621844312850,0.3149999976158142,5.217499732971191,-7.218500137329101,0.0390000008046627,-9.687000274658203,-0.6330000162124633
1621844312860,0.3499999940395355,5.269999980926514,-7.315999984741211,0.0,-9.72599983215332,-0.6389999985694885
1621844312870,0.3499999940395355,5.2220001220703125,-7.039999961853027,0.0,-9.763999938964846,-0.6460000276565551
1621844312880,0.1400000005960464,5.302999973297119,-7.0970001220703125,0.0,-9.763999938964846,-0.6460000276565551
1621844312890,-0.0700000002980232,5.696000099182129,-7.311999797821045,0.0,-9.763999938964846,-0.6460000276565551
1621844312900,-0.3499999940395355,6.020999908447266,-7.539000034332275,-0.0390000008046627,-9.763999938964846,-0.6460000276565551
1621844312910,-0.4900000095367431,6.482999801635742,-7.742000102996825,-0.0390000008046627,-9.803000450134276,-0.652999997138977
1621844312920,-1.0499999523162842,7.046999931335449,-7.71400022506714,-0.1180000007152557,-9.8100004196167,-0.6140000224113464
1621844312930,-0.9800000190734864,8.425000190734863,-7.469999790191651,-0.1180000007152557,-9.8100004196167,-0.6140000224113464
1621844312940,-1.1200000047683716,9.767000198364256,-7.020999908447266,-0.2349999994039535,-9.847999572753906,-0.6209999918937683
1621844312950,-1.2599999904632568,11.819000244140623,-7.369999885559082,-0.2349999994039535,-9.8100004196167,-0.6140000224113464
1621844312960,-1.1200000047683716,14.008999824523926,-7.693999767303467,-0.3140000104904174,-9.803000450134276,-0.652999997138977
1621844312970,-0.9800000190734864,15.906999588012695,-8.781000137329102,-0.2750000059604644,-9.803000450134276,-0.652999997138977
1621844312980,-1.3300000429153442,17.569000244140625,-9.340999603271484,-0.2349999994039535,-9.8100004196167,-0.6140000224113464
1621844312990,-1.6799999475479126,19.320999145507812,-9.60099983215332,-0.2349999994039535,-9.763999938964846,-0.6460000276565551
1621844313000,-1.6100000143051147,21.50200080871582,-10.281999588012695,-0.2349999994039535,-9.803000450134276,-0.652999997138977
1621844313010,-1.9600000381469729,23.753000259399418,-10.95199966430664,-0.1959999948740005,-9.803000450134276,-0.652999997138977
1621844313020,-2.450000047683716,25.941999435424805,-11.276000022888184,-0.2750000059604644,-9.788999557495115,-0.7300000190734863
1621844313030,-2.5899999141693115,28.53700065612793,-11.885000228881836,-0.2750000059604644,-9.763999938964846,-0.6460000276565551
1621844313040,-2.799999952316284,31.76499938964844,-12.453000068664553,-0.3140000104904174,-9.821000099182127,-0.7760000228881835
1621844313050,-3.0799999237060547,34.65999984741211,-13.151000022888184,-0.2750000059604644,-9.75100040435791,-0.7239999771118164
1621844313060,-3.2899999618530273,36.15250015258789,-13.350000381469728,-0.2349999994039535,-9.758000373840332,-0.6850000023841857
1621844313070,-3.5,37.64500045776367,-13.548999786376951,-0.1959999948740005,-9.718999862670898,-0.6779999732971191
1621844313080,-3.569999933242798,40.53200149536133,-13.395000457763672,-0.1570000052452087,-9.711999893188477,-0.7170000076293945
1621844313090,-3.5,43.31800079345703,-13.472999572753906,-0.1180000007152557,-9.718999862670898,-0.6779999732971191
1621844313100,-3.359999895095825,46.16400146484375,-13.895000457763672,-0.0780000016093254,-9.758000373840332,-0.6850000023841857
1621844313110,-3.2899999618530273,48.60499954223633,-14.032999992370604,-0.0780000016093254,-9.72599983215332,-0.6389999985694885
1621844313120,-3.430000066757202,50.64899826049805,-13.529999732971191,-0.0390000008046627,-9.718999862670898,-0.6779999732971191
1621844313130,-3.6400001049041744,53.16299819946289,-12.87399959564209,-0.1180000007152557,-9.711999893188477,-0.7170000076293945
1621844313140,-3.6400001049041744,56.05899810791016,-12.36299991607666,-0.1180000007152557,-9.635000228881836,-0.703000009059906
1621844313150,-3.6400001049041744,58.8849983215332,-11.864999771118164,-0.1570000052452087,-9.704999923706056,-0.7549999952316284
1621844313160,-3.5,61.72700119018555,-11.861000061035156,-0.0780000016093254,-9.704999923706056,-0.7549999952316284
1621844313170,-3.1500000953674316,64.06300354003906,-11.80500030517578,-0.0390000008046627,-9.704999923706056,-0.7549999952316284
1621844313180,-2.7300000190734863,66.45600128173828,-11.666999816894531,-0.0390000008046627,-9.628000259399414,-0.7419999837875366
1621844313190,-2.799999952316284,69.03900146484375,-10.99899959564209,-0.0390000008046627,-9.583000183105469,-0.7739999890327453
1621844313200,-2.5199999809265137,71.00900268554688,-11.291000366210938,-0.0390000008046627,-9.628000259399414,-0.7419999837875366
1621844313210,-2.380000114440918,73.38200378417967,-11.440999984741213,-0.0390000008046627,-9.666999816894531,-0.7490000128746032
1621844313220,-2.5199999809265137,75.91999816894531,-10.92300033569336,-0.0780000016093254,-9.711999893188477,-0.7170000076293945
1621844313230,-1.9600000381469729,78.65699768066406,-10.723999977111816,-0.1180000007152557,-9.718999862670898,-0.6779999732971191
1621844313240,-1.75,80.95600128173828,-10.461000442504885,-0.1180000007152557,-9.68000030517578,-0.6710000038146972
1621844313250,-1.399999976158142,83.41400146484375,-9.88599967956543,-0.0780000016093254,-9.602999687194824,-0.6579999923706054
1621844313260,-1.1200000047683716,85.53500366210938,-9.013999938964846,-0.0390000008046627,-9.512000083923342,-0.7210000157356262
1621844313270,-0.699999988079071,87.36799621582033,-8.121999740600586,-0.0390000008046627,-9.479999542236328,-0.6759999990463256
1621844313280,-0.4549999833106994,88.33899688720702,-7.986499786376954,-0.0390000008046627,-9.44200038909912,-0.6690000295639038
1621844313290,-0.209999993443489,89.30999755859375,-7.85099983215332,-0.0390000008046627,-9.487000465393066,-0.637000024318695
1621844313300,0.0700000002980232,91.38999938964844,-7.554999828338623,-0.0780000016093254,-9.526000022888184,-0.6439999938011169
1621844313310,0.8399999737739563,93.20700073242188,-7.376999855041504,-0.0390000008046627,-9.602999687194824,-0.6579999923706054
1621844313320,0.9100000262260436,95.16999816894533,-6.817999839782715,-0.0780000016093254,-9.642000198364256,-0.6639999747276306
1621844313330,1.0499999523162842,96.9459991455078,-6.006999969482422,-0.0390000008046627,-9.72599983215332,-0.6389999985694885
1621844313340,1.2599999904632568,98.93699645996092,-6.011000156402588,0.0,-9.68000030517578,-0.6710000038146972
1621844313350,1.9600000381469729,100.66400146484376,-6.132999897003174,0.0,-9.687000274658203,-0.6330000162124633
1621844313360,3.009999990463257,102.66699981689452,-6.205999851226807,-0.0390000008046627,-9.694000244140623,-0.5939999818801879
1621844313370,3.430000066757202,104.57700347900392,-6.1539998054504395,0.0,-9.668999671936035,-0.5099999904632568
1621844313380,4.340000152587891,106.33300018310548,-6.839000225067139,0.0390000008046627,-9.630000114440918,-0.5030000209808348
1621844313390,5.320000171661377,107.56600189208984,-6.9770002365112305,0.0390000008046627,-9.630000114440918,-0.5030000209808348
1621844313400,5.739999771118164,108.93599700927734,-7.091000080108643,0.0390000008046627,-9.637000083923342,-0.4639999866485595
1621844313410,5.739999771118164,110.59100341796876,-6.798999786376953,0.0,-9.689000129699709,-0.3939999938011169
1621844313420,5.599999904632568,112.01000213623048,-5.980000019073486,0.0,-9.720999717712402,-0.4390000104904174
1621844313430,5.25,113.9280014038086,-5.571000099182129,0.0,-9.80500030517578,-0.414000004529953
1621844313440,4.96999979019165,116.1259994506836,-5.539000034332275,-0.0390000008046627,-9.812000274658203,-0.3759999871253967
1621844313450,4.059999942779541,118.02400207519533,-5.418000221252441,0.0390000008046627,-9.819000244140623,-0.3370000123977661
1621844313460,3.5,119.49600219726562,-5.300000190734863,0.0780000016093254,-9.85099983215332,-0.3829999864101409
1621844313470,3.0799999237060547,120.69200134277344,-5.23199987411499,0.1180000007152557,-9.9350004196167,-0.3580000102519989
1621844313480,3.009999990463257,121.44200134277344,-5.454999923706055,0.1570000052452087,-9.94200038909912,-0.3190000057220459
1621844313490,2.7649998664855957,121.77450561523436,-5.929499626159668,0.2349999994039535,-9.895999908447264,-0.3510000109672546
1621844313500,2.5199999809265137,122.10700225830078,-6.4039998054504395,0.3919999897480011,-9.857000350952148,-0.3440000116825103
1621844313510,2.0999999046325684,122.10299682617188,-7.185999870300293,0.4309999942779541,-9.819000244140623,-0.3370000123977661
1621844313520,1.8899999856948853,121.52700042724608,-7.145999908447266,0.5490000247955322,-9.819000244140623,-0.3370000123977661
1621844313530,1.4700000286102295,120.5009994506836,-6.9710001945495605,0.5879999995231628,-9.741999626159668,-0.3240000009536743
1621844313540,1.2599999904632568,119.16699981689452,-7.064000129699707,0.6280000209808348,-9.741999626159668,-0.3240000009536743
1621844313550,1.0499999523162842,117.99500274658205,-6.061999797821045,0.6280000209808348,-9.734999656677246,-0.3619999885559082
1621844313560,0.3499999940395355,116.75900268554688,-4.289999961853027,0.6280000209808348,-9.772999763488768,-0.3689999878406524
1621844313570,-0.209999993443489,115.84300231933594,-2.319000005722046,0.5879999995231628,-9.741999626159668,-0.3240000009536743
1621844313580,-0.7699999809265136,114.78399658203124,-1.1549999713897705,0.6280000209808348,-9.696000099182127,-0.3549999892711639
1621844313590,-0.9100000262260436,113.9290008544922,-0.7379999756813049,0.6280000209808348,-9.663999557495115,-0.3100000023841857
1621844313600,-0.5600000023841857,112.64299774169922,-1.1059999465942385,0.7450000047683715,-9.593999862670898,-0.2579999864101409
1621844313610,-0.3499999940395355,111.1719970703125,-0.0149999996647238,0.7450000047683715,-9.586999893188477,-0.2960000038146972
1621844313620,-0.209999993443489,108.96600341796876,0.8040000200271606,0.7850000262260437,-9.62600040435791,-0.3030000030994415
1621844313630,-0.6299999952316284,106.71099853515624,1.89900004863739,0.7850000262260437,-9.710000038146973,-0.277999997138977
1621844313640,-1.399999976158142,103.68699645996094,2.928999900817871,0.7850000262260437,-9.748000144958496,-0.2849999964237213
1621844313650,-1.4700000286102295,100.70600128173828,4.110000133514404,0.7450000047683715,-9.663999557495115,-0.3100000023841857
1621844313660,-1.2599999904632568,97.89199829101562,4.750999927520752,0.7450000047683715,-9.62600040435791,-0.3030000030994415
1621844313670,-1.1200000047683716,95.51599884033205,5.327000141143799,0.6669999957084655,-9.53499984741211,-0.367000013589859
1621844313680,-1.190000057220459,93.20899963378906,5.914999961853027,0.6669999957084655,-9.503000259399414,-0.3210000097751617
1621844313690,-1.0149999856948853,92.27650451660156,5.9639997482299805,0.6280000209808348,-9.425999641418455,-0.3079999983310699
1621844313700,-0.8399999737739563,91.34400177001952,6.013000011444092,0.6669999957084655,-9.54800033569336,-0.2899999916553497
1621844313710,0.4900000095367431,89.18199920654298,5.77400016784668,0.5490000247955322,-9.522999763488768,-0.2049999982118606
1621844313720,1.6100000143051147,87.67400360107422,5.86299991607666,0.5099999904632568,-9.406999588012695,-0.1850000023841857
1621844313730,3.009999990463257,86.9280014038086,5.660999774932861,0.4309999942779541,-9.277999877929688,-0.2419999986886978
1621844313740,4.619999885559082,85.77200317382812,4.959000110626221,0.4709999859333038,-9.277999877929688,-0.2419999986886978
1621844313750,5.880000114440918,84.97699737548828,5.0329999923706055,0.5099999904632568,-9.322999954223633,-0.209999993443489
1621844313760,6.230000019073486,84.6449966430664,6.111000061035156,0.5879999995231628,-9.291999816894531,-0.1650000065565109
1621844313770,7.139999866485596,83.35099792480469,6.593999862670898,0.5879999995231628,-9.406999588012695,-0.1850000023841857
1621844313780,7.349999904632568,81.87100219726562,6.119999885559082,0.7059999704360961,-9.406999588012695,-0.1850000023841857
1621844313790,7.420000076293945,80.16000366210938,5.747000217437744,0.8240000009536743,-9.446000099182127,-0.19200000166893
1621844313800,8.260000228881836,78.21700286865236,5.47599983215332,0.9409999847412108,-9.645999908447264,-0.1870000064373016
1621844313810,8.539999961853027,75.88999938964844,5.776000022888184,0.9409999847412108,-9.722999572753906,-0.2010000050067901
1621844313820,8.1899995803833,72.9010009765625,5.390999794006348,0.981000006198883,-9.755000114440918,-0.2460000067949295
1621844313830,8.119999885559082,69.59200286865234,4.808000087738037,0.981000006198883,-9.878000259399414,-0.2280000001192092
1621844313840,8.050000190734863,66.35299682617188,5.445000171661377,0.981000006198883,-9.885000228881836,-0.1889999955892562
1621844313850,7.9099998474121085,63.391998291015625,5.704999923706055,0.981000006198883,-9.878000259399414,-0.2280000001192092
1621844313859,7.699999809265136,60.42399978637695,5.607999801635742,0.9409999847412108,-9.89099979400635,-0.1509999930858612
1621844313869,7.489999771118165,58.03200149536133,5.46999979019165,0.9020000100135804,-9.845999717712402,-0.1829999983310699
1621844313879,6.579999923706055,56.0369987487793,4.691999912261963,0.9020000100135804,-9.90999984741211,-0.2739999890327453
1621844313889,5.914999961853027,55.12049865722656,4.245999813079834,0.9020000100135804,-9.947999954223633,-0.2800000011920929
1621844313899,5.25,54.20399856567382,3.799999952316284,0.8629999756813049,-9.987000465393066,-0.2870000004768371
1621844313909,3.5,52.1879997253418,2.7339999675750732,0.8629999756813049,-9.967000007629396,-0.402999997138977
1621844313919,1.3300000429153442,50.946998596191406,1.3070000410079956,0.7850000262260437,-10.121000289916992,-0.4300000071525573
1621844313929,-0.8399999737739563,49.79899978637695,0.962000012397766,0.7450000047683715,-10.229999542236328,-0.488999992609024
1621844313939,-3.6400001049041744,49.23199844360352,1.3600000143051147,0.6669999957084655,-10.293999671936035,-0.5799999833106994
1621844313949,-5.949999809265137,48.31600189208984,2.121999979019165,0.5879999995231628,-10.315999984741213,-0.2259999960660934
1621844313959,-7.349999904632568,47.702999114990234,2.369999885559082,0.4709999859333038,-10.019000053405762,-0.3330000042915344
1621844313969,-8.119999885559082,47.516998291015625,1.412999987602234,0.4709999859333038,-9.678000450134276,-0.2329999953508377
1621844313979,-6.650000095367432,47.7400016784668,0.9539999961853028,0.4709999859333038,-9.748000144958496,-0.2849999964237213
1621844313989,-4.480000019073486,48.53799819946289,1.6640000343322754,0.3529999852180481,-9.807000160217283,-0.1759999990463256
1621844313999,-2.450000047683716,49.71900177001953,2.2269999980926514,0.2349999994039535,-9.800999641418455,-0.2150000035762786
1621844314009,-0.7699999809265136,51.35699844360352,0.597000002861023,0.0780000016093254,-9.800999641418455,-0.2150000035762786
1621844314019,1.8899999856948853,53.15700149536133,-2.3550000190734863,0.0,-9.92300033569336,-0.1959999948740005
1621844314029,3.9200000762939458,56.595001220703125,-4.520999908447266,-0.0780000016093254,-9.961999893188477,-0.2029999941587448
1621844314039,5.949999809265137,60.612998962402344,-5.945000171661377,-0.1959999948740005,-9.807000160217283,-0.1759999990463256
1621844314049,8.680000305175781,64.95600128173828,-7.59600019454956,-0.1959999948740005,-9.75100040435791,-0.0460000000894069
1621844314059,11.829999923706056,68.98999786376953,-9.515000343322754,-0.1570000052452087,-9.647999763488768,0.0509999990463256
1621844314069,14.770000457763672,72.53399658203125,-10.666999816894531,-0.1570000052452087,-9.609999656677246,0.0579999983310699
1621844314079,17.639999389648438,75.2020034790039,-10.479999542236328,-0.1180000007152557,-9.54599952697754,0.1490000039339065
1621844314089,18.654998779296875,76.83450317382812,-10.263500213623049,-0.0780000016093254,-9.70699977874756,0.1599999964237213
1621844314099,19.670000076293945,78.46700286865236,-10.046999931335447,-0.0780000016093254,-9.675999641418455,0.2060000002384185
1621844314109,20.3700008392334,81.39900207519531,-9.743000030517578,0.0,-9.675999641418455,0.2060000002384185
1621844314119,20.86000061035156,84.77999877929688,-9.572999954223633,0.0390000008046627,-9.64400005340576,0.2509999871253967
1621844314129,21.559999465942383,87.5780029296875,-9.720000267028809,0.1180000007152557,-9.572999954223633,0.3039999902248382
1621844314139,21.420000076293945,89.81700134277344,-9.112000465393066,0.2349999994039535,-9.46399974822998,0.3630000054836273
1621844314149,22.049999237060547,91.81199645996092,-8.333999633789062,0.2750000059604644,-9.477999687194824,0.4399999976158142
1621844314159,22.959999084472656,94.03800201416016,-7.657000064849853,0.3140000104904174,-9.477999687194824,0.4399999976158142
1621844314169,23.8700008392334,95.87100219726562,-7.973000049591064,0.3140000104904174,-9.678000450134276,0.4440000057220459
1621844314179,23.729999542236328,97.4240036010742,-7.913000106811523,0.3529999852180481,-9.807000160217283,0.5009999871253967
1621844314189,23.170000076293945,98.87200164794922,-7.657000064849853,0.3529999852180481,-9.814000129699709,0.5400000214576721
1621844314199,21.90999984741211,100.4010009765625,-7.459000110626221,0.3140000104904174,-9.788999557495115,0.6240000128746032
1621844314209,20.790000915527344,101.97000122070312,-7.89300012588501,0.3919999897480011,-9.82800006866455,0.6169999837875366
1621844314219,19.809999465942383,103.06400299072266,-9.263999938964846,0.4309999942779541,-9.880000114440918,0.6880000233650208
1621844314229,19.11000061035156,103.66100311279295,-9.017000198364256,0.4309999942779541,-9.932000160217283,0.7580000162124633
1621844314239,18.829999923706055,104.15499877929688,-9.0,0.4309999942779541,-9.836999893188477,0.8939999938011169
1621844314249,19.11000061035156,104.73899841308594,-9.892999649047852,0.4309999942779541,-9.727999687194824,0.953000009059906
1621844314259,19.739999771118164,105.1439971923828,-11.385000228881836,0.5099999904632568,-9.70300006866455,1.037999987602234
1621844314269,20.510000228881836,105.24600219726562,-12.362000465393066,0.5099999904632568,-9.63199996948242,1.0900000333786013
1621844314279,22.049999237060547,105.8010025024414,-12.690999984741213,0.5099999904632568,-9.522999763488768,1.14900004863739
1621844314289,22.99499893188477,105.64900207519533,-13.037500381469728,0.5099999904632568,-9.413999557495115,1.2079999446868896
1621844314299,23.940000534057617,105.49700164794922,-13.383999824523926,0.5490000247955322,-9.312000274658203,1.305999994277954
1621844314309,25.760000228881836,104.78299713134766,-14.576000213623049,0.6669999957084655,-9.234999656677246,1.319000005722046
1621844314319,27.86000061035156,104.01699829101562,-15.06700038909912,0.7059999704360961,-9.241000175476074,1.3580000400543213
1621844314329,29.399999618530273,102.56500244140624,-13.687999725341797,0.6280000209808348,-9.371000289916992,1.4149999618530271
1621844314339,30.59000015258789,100.7490005493164,-11.449000358581545,0.5490000247955322,-9.494000434875488,1.4329999685287476
1621844314349,31.010000228881836,98.9530029296875,-10.130999565124512,0.5490000247955322,-9.699999809265137,1.47599995136261
1621844314359,31.63999938964844,96.88800048828124,-10.92099952697754,0.5490000247955322,-9.822999954223633,1.49399995803833
1621844314369,31.780000686645508,94.76799774169922,-11.79300022125244,0.5099999904632568,-9.984000205993652,1.50600004196167
1621844314379,30.729999542236328,92.51699829101562,-12.33199977874756,0.5099999904632568,-9.932000160217283,1.434999942779541
1621844314389,28.770000457763672,89.80400085449219,-12.66800022125244,0.5490000247955322,-9.880000114440918,1.3650000095367432
1621844314399,25.969999313354492,87.2249984741211,-13.762999534606934,0.5490000247955322,-9.918999671936035,1.3580000400543213
1621844314409,24.010000228881836,84.33300018310547,-15.906999588012695,0.5099999904632568,-9.873000144958496,1.3259999752044678
1621844314419,22.260000228881836,81.4219970703125,-18.34000015258789,0.5099999904632568,-9.781999588012695,1.2630000114440918
1621844314429,20.86000061035156,78.06800079345702,-21.489999771118164,0.4709999859333038,-9.690999984741213,1.1990000009536743
1621844314439,20.020000457763672,74.96499633789062,-24.45400047302246,0.4709999859333038,-9.625,1.0509999990463257
1621844314449,19.600000381469727,71.73300170898438,-25.87700080871582,0.3919999897480011,-9.541000366210936,1.0260000228881836
1621844314459,19.459999084472656,68.51000213623047,-25.733999252319336,0.3140000104904174,-9.46399974822998,1.0399999618530271
1621844314469,18.899999618530273,65.26200103759766,-24.246000289916992,0.2750000059604644,-9.411999702453612,0.968999981880188
1621844314479,18.059999465942383,62.13199996948242,-21.812000274658203,0.1570000052452087,-9.32800006866455,0.944000005722046
1621844314489,17.920000076293945,59.292999267578125,-19.825000762939453,0.0390000008046627,-9.25699996948242,0.996999979019165
1621844314499,17.920000076293945,58.02000045776367,-19.054500579833984,-0.0390000008046627,-9.17300033569336,0.9720000028610228
1621844314509,17.920000076293945,56.74700164794922,-18.284000396728516,-0.0780000016093254,-9.135000228881836,0.977999985218048
1621844314519,18.690000534057617,54.305999755859375,-16.937000274658203,-0.1959999948740005,-9.08899974822998,0.9470000267028807
1621844314529,20.229999542236328,52.01100158691406,-15.208999633789064,-0.2349999994039535,-9.128000259399414,0.9399999976158142
1621844314539,21.90999984741211,49.84199905395508,-13.387999534606934,-0.3140000104904174,-9.135000228881836,0.977999985218048
1621844314549,23.450000762939453,46.935001373291016,-11.413000106811523,-0.3919999897480011,-9.064000129699709,1.031000018119812
1621844314559,25.270000457763672,44.834999084472656,-9.579999923706056,-0.5099999904632568,-9.031999588012695,1.0759999752044678
1621844314569,27.299999237060547,42.9900016784668,-9.19499969482422,-0.6280000209808348,-9.175999641418455,1.2100000381469729
1621844314579,29.540000915527344,41.54600143432618,-8.666999816894531,-0.7450000047683715,-9.30500030517578,1.2669999599456787
1621844314589,31.290000915527344,40.630001068115234,-7.905000209808349,-0.8240000009536743,-9.621000289916992,1.2510000467300415
1621844314599,32.27000045776367,39.43000030517578,-7.547999858856201,-0.9020000100135804,-9.564000129699709,1.38100004196167
1621844314609,33.25,38.43199920654297,-7.936999797821045,-1.0199999809265137,-9.26599979400635,1.27400004863739
1621844314619,34.720001220703125,37.57600021362305,-8.727999687194824,-0.9409999847412108,-9.255000114440918,1.434999942779541
1621844314629,36.959999084472656,36.652000427246094,-8.321999549865723,-0.9409999847412108,-9.397999763488768,1.569000005722046
1621844314639,38.220001220703125,35.792999267578125,-6.269999980926514,-0.9409999847412108,-9.503000259399414,1.7100000381469729
1621844314649,38.220001220703125,34.766998291015625,-3.678999900817871,-0.9409999847412108,-9.63199996948242,1.7669999599456787
1621844314659,37.45000076293945,33.2140007019043,-2.5309998989105225,-0.9020000100135804,-9.76900005340576,1.861999988555908
1621844314669,36.2599983215332,31.450000762939453,-2.2019999027252197,-0.8629999756813049,-9.845999717712402,1.8489999771118164
1621844314679,34.439998626708984,29.23200035095215,-1.3140000104904177,-0.8240000009536743,-9.866000175476074,1.9650000333786013
1621844314689,32.47999954223633,27.53700065612793,-0.9729999899864196,-0.7850000262260437,-9.809000015258787,2.0940001010894775
1621844314699,30.8700008392334,25.566999435424805,-0.6809999942779541,-0.8240000009536743,-9.687000274658203,2.075999975204468
1621844314709,30.135000228881836,24.68299865722656,-0.9079999923706054,-0.8240000009536743,-9.70699977874756,2.191999912261963
1621844314719,29.399999618530273,23.798999786376953,-1.1349999904632568,-0.9020000100135804,-9.734000205993652,2.3459999561309814
1621844314729,27.790000915527344,23.0,-1.843999981880188,-0.9409999847412108,-9.80500030517578,2.2939999103546143
1621844314739,25.200000762939453,21.68600082397461,-2.8580000400543213,-0.981000006198883,-9.871000289916992,2.441999912261963
1621844314749,22.469999313354492,20.68400001525879,-5.23799991607666,-1.0199999809265137,-9.876999855041506,2.4800000190734863
1621844314759,19.530000686645508,19.516000747680664,-8.286999702453613,-0.981000006198883,-9.83899974822998,2.486999988555908
1621844314769,16.59000015258789,18.481000900268555,-10.88599967956543,-0.981000006198883,-9.743000030517578,2.624000072479248
1621844314779,13.93000030517578,17.47100067138672,-12.414999961853027,-0.9020000100135804,-9.666000366210936,2.63700008392334
1621844314789,11.340000152587892,16.590999603271484,-13.06700038909912,-0.8240000009536743,-9.58899974822998,2.6510000228881836
1621844314799,9.170000076293944,15.017999649047852,-13.416000366210938,-0.7850000262260437,-9.550000190734863,2.6579999923706055
1621844314809,7.489999771118165,13.87399959564209,-12.977999687194824,-0.7059999704360961,-9.571000099182127,2.7739999294281006
1621844314819,5.460000038146973,12.357999801635742,-12.036999702453612,-0.7059999704360961,-9.57800006866455,2.812000036239624
1621844314829,3.0799999237060547,10.760000228881836,-11.038999557495115,-0.7059999704360961,-9.57800006866455,2.812000036239624
1621844314839,0.8399999737739563,9.52400016784668,-10.475000381469728,-0.6669999957084655,-9.559000015258787,2.934999942779541
1621844314849,-1.8899999856948853,9.39400005340576,-10.142999649047852,-0.7059999704360961,-9.50699996948242,2.864000082015991
1621844314859,-3.990000009536743,9.357999801635742,-9.935999870300291,-0.7850000262260437,-9.437000274658203,2.9170000553131104
1621844314869,-5.320000171661377,9.755000114440918,-10.57699966430664,-0.7059999704360961,-9.411999702453612,3.000999927520752
1621844314879,-6.650000095367432,9.824000358581545,-11.77299976348877,-0.6280000209808348,-9.572999954223633,3.01200008392334
1621844314889,-8.1899995803833,10.140000343322754,-12.357000350952148,-0.5490000247955322,-9.79800033569336,2.933000087738037
1621844314899,-10.010000228881836,9.904999732971191,-11.829999923706056,-0.4309999942779541,-9.958999633789062,2.944000005722046
1621844314909,-11.479999542236328,8.86299991607666,-11.16100025177002,-0.3919999897480011,-10.107000350952148,2.878000020980835
1621844314919,-12.949999809265137,7.921999931335449,-10.260000228881836,-0.3529999852180481,-10.100000381469728,2.8399999141693115
1621844314929,-13.93000030517578,7.607999801635742,-9.888999938964846,-0.2750000059604644,-10.100000381469728,2.8399999141693115
1621844314939,-14.909999847412108,7.294000148773193,-9.517999649047852,-0.2750000059604644,-10.20199966430664,2.7420001029968266
1621844314949,-16.59000015258789,6.502999782562256,-8.661999702453613,-0.3529999852180481,-10.371000289916992,2.7920000553131104
1621844314959,-16.520000457763672,6.166999816894531,-7.1579999923706055,-0.3919999897480011,-10.416000366210936,2.8239998817443848
1621844314969,-15.890000343322754,6.431000232696533,-4.624000072479248,-0.4309999942779541,-10.383999824523926,2.86899995803833
1621844314979,-15.470000267028809,6.770999908447266,-2.928999900817871,-0.4309999942779541,-10.345999717712402,2.875999927520752
1621844314989,-14.909999847412108,7.485000133514405,-2.944999933242798,-0.3919999897480011,-10.288999557495115,3.005000114440918
1621844314999,-14.489999771118164,8.680999755859375,-2.875999927520752,-0.4309999942779541,-10.10200023651123,3.078000068664551
1621844315009,-14.06999969482422,10.246999740600586,-1.6759999990463257,-0.4709999859333038,-9.876999855041506,3.1579999923706055
1621844315019,-14.0,12.562000274658203,-0.6990000009536743,-0.4309999942779541,-9.690999984741213,3.2300000190734863
1621844315029,-14.140000343322754,14.763999938964844,-1.093000054359436,-0.3919999897480011,-9.704999923706056,3.308000087738037
1621844315039,-14.489999771118164,17.51300048828125,-2.171999931335449,-0.3919999897480011,-9.75,3.3389999866485596
1621844315049,-16.100000381469727,20.371999740600582,-2.663000106811523,-0.2750000059604644,-9.925000190734863,3.427999973297119
1621844315059,-17.989999771118164,22.743999481201172,-2.812999963760376,-0.2349999994039535,-10.131999969482422,3.4709999561309814
1621844315069,-21.06999969482422,24.434999465942383,-2.7279999256134033,-0.1570000052452087,-10.248000144958496,3.450999975204468
1621844315079,-24.780000686645508,25.76499938964844,-2.2100000381469727,-0.0780000016093254,-10.27299976348877,3.3670001029968266
1621844315089,-28.559999465942383,26.445999145507812,-1.2359999418258667,0.0,-10.21399974822998,3.2579998970031734
1621844315099,-33.11000061035156,26.57699966430664,0.8479999899864196,0.0390000008046627,-10.14799976348877,3.109999895095825
1621844315109,-37.2400016784668,26.26099967956543,3.848999977111816,0.1180000007152557,-10.140999794006348,3.071000099182129
1621844315119,-40.810001373291016,26.23699951171875,7.611999988555909,0.1180000007152557,-9.991000175476074,2.8989999294281006
1621844315129,-43.61000061035156,25.875999450683594,10.461999893188477,0.0780000016093254,-9.840999603271484,2.7260000705718994
1621844315139,-45.36000061035156,25.27199935913086,12.274999618530272,0.0780000016093254,-9.802000045776367,2.7330000400543213
1621844315149,-46.7599983215332,24.839000701904297,13.123000144958496,0.0390000008046627,-9.737000465393066,2.5850000381469727
1621844315159,-47.38999938964844,24.861000061035156,13.197999954223633,0.0390000008046627,-9.579999923706056,2.374000072479248
1621844315169,-48.02000045776367,24.882999420166016,13.27299976348877,0.0390000008046627,-9.553000450134276,2.2190001010894775
1621844315179,-47.810001373291016,24.701000213623047,13.097999572753906,0.0390000008046627,-9.494000434875488,2.109999895095825
1621844315189,-47.7400016784668,24.69300079345703,12.741000175476074,0.0390000008046627,-9.388999938964846,1.968999981880188
1621844315199,-46.619998931884766,24.687999725341797,11.958999633789064,0.0390000008046627,-9.21399974822998,1.88100004196167
1621844315209,-45.290000915527344,24.493999481201172,11.852999687194824,0.0390000008046627,-9.154999732971191,1.7710000276565552
1621844315219,-44.029998779296875,24.040000915527344,11.204999923706056,0.0780000016093254,-9.14099979400635,1.694000005722046
1621844315229,-42.4900016784668,23.36599922180176,10.588000297546388,0.1180000007152557,-9.128000259399414,1.6169999837875366
1621844315239,-40.529998779296875,22.600000381469727,10.097999572753906,0.0390000008046627,-9.197999954223633,1.565000057220459
1621844315249,-39.130001068115234,21.69099998474121,8.800000190734863,0.0780000016093254,-9.26900005340576,1.5119999647140503
1621844315259,-37.59000015258789,20.899999618530273,7.238999843597413,0.1180000007152557,-9.33899974822998,1.4600000381469729
1621844315269,-36.04999923706055,19.857999801635746,5.492000102996826,0.1570000052452087,-9.371000289916992,1.4149999618530271
1621844315279,-34.369998931884766,18.552000045776367,4.835000038146973,0.1959999948740005,-9.472999572753906,1.3170000314712524
1621844315289,-32.689998626708984,17.274999618530273,4.822999954223633,0.1180000007152557,-9.428000450134276,1.2849999666213987
1621844315299,-30.729999542236328,15.633000373840332,4.461999893188477,0.1180000007152557,-9.30500030517578,1.2669999599456787
1621844315309,-28.489999771118164,13.649999618530272,3.615000009536743,0.1570000052452087,-9.220999717712402,1.2419999837875366
1621844315319,-26.600000381469727,11.803999900817873,2.7920000553131104,0.1180000007152557,-9.220999717712402,1.2419999837875366
1621844315329,-24.63999938964844,10.093000411987305,3.628000020980835,0.0780000016093254,-9.175999641418455,1.2100000381469729
1621844315339,-23.100000381469727,8.362000465393066,4.175000190734863,0.0,-9.20699977874756,1.1649999618530271
1621844315349,-21.06999969482422,6.127999782562256,4.349999904632568,-0.0390000008046627,-9.291000366210936,1.190000057220459
1621844315359,-19.040000915527344,5.020999908447266,3.372999906539917,-0.0780000016093254,-9.315999984741213,1.1059999465942385
1621844315369,-17.360000610351562,3.973999977111816,2.0510001182556152,-0.1570000052452087,-9.194000244140623,1.087000012397766
1621844315379,-15.399999618530272,2.805999994277954,0.209999993443489,-0.1570000052452087,-9.116000175476074,1.10099995136261
1621844315389,-14.489999771118164,2.319499969482422,-0.6574999690055847,-0.1959999948740005,-8.994000434875488,1.0829999446868896
1621844315399,-13.579999923706056,1.8329999446868896,-1.524999976158142,-0.2750000059604644,-8.888999938964844,0.9419999718666076
1621844315409,-11.479999542236328,1.7920000553131104,-3.309000015258789,-0.2750000059604644,-8.967000007629395,0.9279999732971193
1621844315419,-9.9399995803833,1.8240000009536743,-4.298999786376953,-0.2349999994039535,-9.121000289916992,0.9010000228881836
1621844315429,-8.399999618530273,1.3860000371932983,-5.441999912261963,-0.2349999994039535,-9.281999588012695,0.9120000004768372
1621844315439,-6.579999923706055,1.52400004863739,-6.625999927520752,-0.2349999994039535,-9.404999732971191,0.930999994277954
1621844315449,-4.690000057220459,1.7300000190734863,-7.797999858856201,-0.2750000059604644,-9.444000244140623,0.9240000247955322
1621844315459,-2.869999885559082,1.830999970436096,-9.984000205993652,-0.3140000104904174,-9.5600004196167,0.902999997138977
1621844315469,-0.6299999952316284,2.2929999828338623,-12.602999687194824,-0.2750000059604644,-9.675000190734863,0.8830000162124633
1621844315479,1.2599999904632568,2.4070000648498535,-14.857999801635742,-0.2349999994039535,-9.970999717712402,0.7509999871253967
1621844315489,2.7300000190734863,2.2850000858306885,-16.584999084472656,-0.1570000052452087,-10.722999572753906,0.4990000128746032
1621844315499,3.569999933242798,2.694000005722046,-16.086999893188477,-0.1959999948740005,-11.090999603271484,0.5540000200271606
1621844315509,4.480000019073486,2.438999891281128,-15.847000122070312,-0.4309999942779541,-10.274999618530272,0.8970000147819519
1621844315519,4.340000152587891,2.490999937057495,-21.381999969482425,-0.4709999859333038,-9.187000274658203,1.0490000247955322
1621844315528,3.9200000762939458,3.4630000591278076,-28.106000900268555,-0.3919999897480011,-8.717000007629395,1.0920000076293943
1621844315538,3.7799999713897705,6.179999828338623,-28.19499969482422,-0.3140000104904174,-8.800999641418457,1.1169999837875366
1621844315548,3.9200000762939458,8.536999702453613,-23.017000198364254,-0.3529999852180481,-9.043999671936035,0.915000021457672
1621844315558,4.829999923706055,10.39799976348877,-19.06399917602539,-0.4709999859333038,-9.541000366210936,1.0260000228881836
1621844315568,5.739999771118164,11.79300022125244,-19.31599998474121,-0.5490000247955322,-9.994000434875488,1.1059999465942385
1621844315578,6.019999980926514,13.130999565124512,-22.065000534057617,-0.5879999995231628,-10.309000015258787,1.0900000333786013
1621844315588,5.25,14.659999847412108,-23.075000762939453,-0.5099999904632568,-10.380000114440918,1.037999987602234
1621844315598,4.130000114440918,16.844999313354492,-21.76499938964844,-0.4709999859333038,-10.328000068664553,0.9670000076293944
1621844315608,3.0450000762939453,18.12049865722656,-20.93600082397461,-0.5099999904632568,-10.281999588012695,0.9350000023841856
1621844315618,1.9600000381469729,19.395999908447266,-20.10700035095215,-0.6280000209808348,-10.08199977874756,0.930999994277954
1621844315628,-0.1400000005960464,22.243000030517575,-20.52899932861328,-0.7059999704360961,-9.991000175476074,0.8669999837875366
1621844315638,-1.6799999475479126,25.86000061035156,-22.094999313354492,-0.6669999957084655,-9.906999588012695,0.8420000076293945
1621844315648,-3.009999990463257,28.743000030517575,-22.724000930786133,-0.5879999995231628,-9.984999656677246,0.8289999961853027
1621844315658,-3.990000009536743,32.21799850463867,-21.472000122070312,-0.5099999904632568,-9.875,0.8880000114440918
1621844315668,-5.039999961853027,34.582000732421875,-20.770000457763672,-0.4709999859333038,-9.80500030517578,0.9399999976158142
1621844315678,-5.949999809265137,37.119998931884766,-21.459999084472656,-0.4709999859333038,-9.689000129699709,0.9599999785423278
1621844315688,-6.71999979019165,38.70199966430664,-21.96299934387207,-0.4709999859333038,-9.579999923706056,1.0190000534057615
1621844315698,-8.890000343322754,39.95100021362305,-21.38800048828125,-0.4309999942779541,-9.541000366210936,1.0260000228881836
1621844315708,-11.760000228881836,42.14099884033203,-19.295000076293945,-0.4709999859333038,-9.444000244140623,0.9240000247955322
1621844315718,-14.140000343322754,45.207000732421875,-17.33300018310547,-0.5879999995231628,-9.468999862670898,0.8399999737739563
1621844315728,-16.239999771118164,48.66600036621094,-15.586000442504885,-0.6669999957084655,-9.47599983215332,0.8780000209808348
1621844315738,-18.1299991607666,52.24300003051758,-14.10200023651123,-0.7059999704360961,-9.50100040435791,0.7940000295639038
1621844315748,-19.809999465942383,56.070999145507805,-12.432000160217283,-0.7450000047683715,-9.526000022888184,0.7099999785423278
1621844315758,-21.489999771118164,60.59600067138672,-10.284000396728516,-0.8240000009536743,-9.51900005340576,0.6719999909400939
1621844315768,-22.469999313354492,65.83200073242188,-8.934000015258789,-0.9409999847412108,-9.550999641418455,0.6259999871253967
1621844315778,-22.68000030517578,71.52899932861328,-8.996000289916992,-0.9409999847412108,-9.621000289916992,0.5740000009536743
1621844315788,-22.61000061035156,75.87999725341797,-9.08199977874756,-0.9409999847412108,-9.697999954223633,0.5600000023841857
1621844315798,-22.81999969482422,79.89399719238281,-8.871000289916992,-0.9020000100135804,-9.814000129699709,0.5400000214576721
1621844315808,-22.959999084472656,82.93599700927734,-7.980000019073486,-0.7450000047683715,-9.916000366210936,0.44200000166893
1621844315818,-23.064998626708984,84.02050018310547,-7.682000160217285,-0.5879999995231628,-10.019000053405762,0.3449999988079071
1621844315828,-23.170000076293945,85.1050033569336,-7.383999824523927,-0.4309999942779541,-10.095999717712402,0.3310000002384185
1621844315838,-23.3799991607666,86.54499816894531,-7.485000133514405,-0.2750000059604644,-10.08199977874756,0.2540000081062316
1621844315848,-23.450000762939453,86.81600189208984,-8.218999862670898,-0.1180000007152557,-9.946000099182127,0.1580000072717666
1621844315858,-23.729999542236328,86.11100006103516,-9.05500030517578,0.0390000008046627,-9.746000289916992,0.1539999991655349
1621844315868,-24.010000228881836,84.6259994506836,-9.102999687194824,0.1570000052452087,-9.616999626159668,0.0970000028610229
1621844315878,-24.079999923706055,82.64399719238281,-7.5339999198913565,0.2750000059604644,-9.531999588012695,0.0719999969005584
1621844315888,-23.100000381469727,80.1500015258789,-6.693999767303467,0.3140000104904174,-9.4350004196167,-0.0299999993294477
1621844315898,-21.90999984741211,77.48999786376953,-6.5229997634887695,0.3919999897480011,-9.395999908447264,-0.0240000002086162
1621844315908,-20.3700008392334,74.40799713134764,-6.7820000648498535,0.4709999859333038,-9.42099952697754,-0.1080000028014183
1621844315918,-19.11000061035156,71.3219985961914,-6.616000175476074,0.5490000247955322,-9.439000129699709,-0.2300000041723251
1621844315928,-18.34000015258789,68.14299774169922,-6.322999954223633,0.5879999995231628,-9.510000228881836,-0.2829999923706054
1621844315938,-18.200000762939453,64.64800262451172,-6.65500020980835,0.5879999995231628,-9.541999816894531,-0.328000009059906
1621844315948,-18.1299991607666,61.367000579833984,-7.802000045776368,0.5879999995231628,-9.527999877929688,-0.4050000011920929
1621844315958,-17.43000030517578,58.66999816894531,-8.633000373840332,0.5099999904632568,-9.520999908447264,-0.4440000057220459
1621844315968,-16.940000534057617,56.167999267578125,-9.359000205993652,0.5490000247955322,-9.513999938964846,-0.4830000102519989
1621844315978,-16.3799991607666,53.50400161743164,-9.970999717712402,0.5099999904632568,-9.513999938964846,-0.4830000102519989
1621844315988,-15.75,51.17300033569336,-10.453000068664553,0.3529999852180481,-9.616999626159668,-0.5799999833106994
1621844315998,-14.840000152587892,49.323001861572266,-10.850000381469728,0.2349999994039535,-9.595999717712402,-0.6959999799728394
1621844316008,-14.0,48.0260009765625,-11.149999618530272,0.2349999994039535,-9.51900005340576,-0.6830000281333923
1621844316018,-12.529999732971191,46.46500015258789,-11.56700038909912,0.3529999852180481,-9.51900005340576,-0.6830000281333923
1621844316028,-11.130000114440918,44.27899932861328,-11.66800022125244,0.4709999859333038,-9.526000022888184,-0.6439999938011169
1621844316038,-9.520000457763674,41.959999084472656,-11.01099967956543,0.6280000209808348,-9.564000129699709,-0.6510000228881835
1621844316048,-9.135000228881836,40.69850158691406,-10.91349983215332,0.7450000047683715,-9.595999717712402,-0.6959999799728394
1621844316058,-8.75,39.4370002746582,-10.815999984741213,0.8240000009536743,-9.628000259399414,-0.7419999837875366
1621844316068,-7.980000019073486,35.65800094604492,-10.345000267028809,0.9020000100135804,-9.576000213623049,-0.8119999766349792
1621844316078,-7.769999980926514,31.854999542236328,-9.736000061035156,0.8629999756813049,-9.491999626159668,-0.8370000123977661
1621844316088,-7.559999942779541,27.774999618530273,-9.175999641418455,0.8240000009536743,-9.362000465393066,-0.8939999938011169
1621844316098,-7.420000076293945,23.62700080871582,-8.628000259399414,0.8240000009536743,-9.354999542236328,-0.9330000281333924
1621844316108,-7.0,19.70599937438965,-7.756000041961671,0.7450000047683715,-9.354999542236328,-0.9330000281333924
1621844316118,-6.230000019073486,16.709999084472656,-7.289000034332275,0.6669999957084655,-9.401000022888184,-0.9010000228881836
1621844316128,-5.25,13.770000457763672,-6.741000175476074,0.5879999995231628,-9.470999717712402,-0.953000009059906
1621844316138,-3.849999904632568,10.671999931335447,-6.50600004196167,0.5099999904632568,-9.510000228881836,-0.9599999785423278
1621844316148,-3.009999990463257,8.307999610900879,-5.998000144958496,0.4709999859333038,-9.43299961090088,-0.9459999799728392
1621844316158,-1.9600000381469729,6.451000213623047,-5.544000148773193,0.3919999897480011,-9.439000129699709,-0.9079999923706054
1621844316168,-0.4900000095367431,5.2220001220703125,-5.831999778747559,0.3529999852180481,-9.477999687194824,-0.9139999747276306
1621844316178,0.9800000190734864,3.875999927520752,-5.855999946594238,0.3140000104904174,-9.477999687194824,-0.9139999747276306
1621844316188,2.5899999141693115,2.9189999103546143,-5.669000148773193,0.2750000059604644,-9.484999656677246,-0.8759999871253967
1621844316198,4.269999980926514,2.0190000534057617,-5.4019999504089355,0.2349999994039535,-9.529999732971191,-0.8439999818801879
1621844316208,6.230000019073486,1.118000030517578,-5.133999824523926,0.2349999994039535,-9.529999732971191,-0.8439999818801879
1621844316218,7.769999980926514,0.0520000010728836,-4.327000141143799,0.2349999994039535,-9.576000213623049,-0.8119999766349792
1621844316228,8.960000038146973,-1.3389999866485596,-3.2920000553131104,0.1180000007152557,-9.522999763488768,-0.8830000162124633
1621844316238,10.010000228881836,-2.0929999351501465,-2.6440000534057617,0.0780000016093254,-9.61400032043457,-0.8190000057220459
1621844316248,10.289999961853027,-3.038000106811523,-2.5260000228881836,0.0780000016093254,-9.744000434875488,-0.762000024318695
1621844316258,9.9399995803833,-3.572999954223633,-3.118000030517578,0.0390000008046627,-9.79599952697754,-0.6919999718666076
1621844316268,9.625,-3.9440000057220455,-3.432000160217285,0.0390000008046627,-9.859999656677246,-0.7829999923706054
1621844316278,9.3100004196167,-4.315000057220459,-3.7460000514984126,0.0390000008046627,-9.897999763488768,-0.7889999747276306
1621844316288,8.890000343322754,-4.550000190734863,-4.427000045776367,0.0,-9.82800006866455,-0.7369999885559082
1621844316298,8.329999923706055,-4.943999767303467,-5.421000003814697,0.0,-9.835000038146973,-0.6990000009536743
1621844316308,7.349999904632568,-5.158999919891357,-7.0229997634887695,0.0,-9.8100004196167,-0.6140000224113464
1621844316318,6.579999923706055,-5.693999767303467,-7.613999843597413,0.0390000008046627,-9.763999938964846,-0.6460000276565551
1621844316328,6.230000019073486,-5.715000152587891,-7.901999950408936,0.0390000008046627,-9.732000350952148,-0.6010000109672546
1621844316338,5.880000114440918,-5.735000133514404,-8.1899995803833,0.0,-9.73900032043457,-0.5619999766349792
1621844316348,5.739999771118164,-5.495999813079834,-9.142999649047852,-0.0390000008046627,-9.8100004196167,-0.6140000224113464
1621844316358,5.039999961853027,-5.349999904632568,-9.970000267028809,0.0,-9.887000083923342,-0.6280000209808348
1621844316368,4.130000114440918,-5.289000034332275,-10.3149995803833,0.0390000008046627,-9.81700038909912,-0.5759999752044677
1621844316378,3.430000066757202,-5.14300012588501,-9.934000015258787,0.0780000016093254,-9.782999992370604,-0.7689999938011169
1621844316388,2.940000057220459,-5.484000205993652,-9.211999893188477,0.0390000008046627,-9.79599952697754,-0.6919999718666076
1621844316398,2.799999952316284,-5.264999866485596,-9.244999885559082,0.0,-9.8100004196167,-0.6140000224113464
1621844316408,2.799999952316284,-4.769999980926514,-9.227999687194824,0.0,-9.777999877929688,-0.5690000057220459
1621844316418,3.1500000953674316,-4.915999889373779,-9.609999656677246,0.0,-9.668999671936035,-0.5099999904632568
1621844316428,3.359999895095825,-4.373000144958496,-9.869000434875488,0.0,-9.661999702453612,-0.5490000247955322
1621844316438,3.7799999713897705,-3.9140000343322754,-9.645999908447264,0.0390000008046627,-9.668999671936035,-0.5099999904632568
1621844316448,4.409999847412109,-3.5329999923706055,-9.791999816894531,0.0,-9.64400005340576,-0.4259999990463256
1621844316458,4.829999923706055,-3.200999975204468,-9.663000106811523,0.0390000008046627,-9.64400005340576,-0.4259999990463256
1621844316468,4.900000095367432,-3.752000093460083,-8.550999641418457,0.1180000007152557,-9.682000160217283,-0.4329999983310699
1621844316478,4.864999771118164,-3.798500061035156,-7.883999824523927,0.1570000052452087,-9.720999717712402,-0.4390000104904174
1621844316488,4.829999923706055,-3.8450000286102295,-7.217000007629395,0.1180000007152557,-9.760000228881836,-0.4460000097751617
1621844316498,4.269999980926514,-4.375999927520752,-5.817999839782715,0.1180000007152557,-9.843999862670898,-0.4210000038146972
1621844316508,3.7799999713897705,-5.130000114440918,-5.169000148773193,0.0780000016093254,-9.888999938964846,-0.3889999985694885
1621844316518,3.009999990463257,-5.5929999351501465,-4.9670000076293945,0.0780000016093254,-9.88199996948242,-0.4280000030994415
1621844316528,2.5899999141693115,-5.8480000495910645,-4.7270002365112305,0.1180000007152557,-9.869000434875488,-0.5049999952316284
1621844316538,2.1700000762939453,-6.355000019073486,-4.675000190734863,0.0780000016093254,-9.843999862670898,-0.4210000038146972
1621844316548,2.0299999713897705,-6.593999862670898,-4.929999828338623,0.0390000008046627,-9.727999687194824,-0.4009999930858612
1621844316558,1.75,-6.809000015258789,-5.322999954223633,0.1180000007152557,-9.727999687194824,-0.4009999930858612
1621844316568,1.6100000143051147,-6.691999912261963,-5.586999893188477,0.0780000016093254,-9.767000198364256,-0.4079999923706054
1621844316578,1.190000057220459,-6.638999938964844,-5.079999923706055,0.0390000008046627,-9.79800033569336,-0.453000009059906
1621844316588,0.4900000095367431,-6.881999969482422,-4.909999847412109,0.0,-9.791999816894531,-0.492000013589859
1621844316598,0.0700000002980232,-7.381000041961671,-4.5,0.0,-9.791999816894531,-0.492000013589859
1621844316608,-0.5600000023841857,-7.388999938964843,-3.6480000019073486,0.0,-9.753000259399414,-0.4850000143051147
1621844316618,-0.7699999809265136,-7.9120001792907715,-3.1010000705718994,-0.0390000008046627,-9.753000259399414,-0.4850000143051147
1621844316628,-0.8399999737739563,-7.952000141143799,-3.677000045776367,-0.0390000008046627,-9.760000228881836,-0.4460000097751617
1621844316638,-0.3499999940395355,-8.135000228881836,-3.8510000705718994,-0.0390000008046627,-9.71399974822998,-0.4779999852180481
1621844316648,-0.2800000011920929,-8.119000434875488,-4.3460001945495605,-0.0390000008046627,-9.760000228881836,-0.4460000097751617
1621844316658,0.3499999940395355,-8.326000213623047,-4.381999969482422,-0.0780000016093254,-9.727999687194824,-0.4009999930858612
1621844316668,0.4900000095367431,-8.5649995803833,-4.638000011444092,-0.0780000016093254,-9.727999687194824,-0.4009999930858612
1621844316678,0.5950000286102294,-8.615499496459961,-4.753499984741211,-0.1180000007152557,-9.720999717712402,-0.4390000104904174
1621844316688,0.699999988079071,-8.666000366210938,-4.86899995803833,-0.1180000007152557,-9.720999717712402,-0.4390000104904174
1621844316698,0.699999988079071,-8.772000312805176,-4.673999786376953,-0.1959999948740005,-9.720999717712402,-0.4390000104904174
1621844316708,0.7699999809265136,-8.852999687194824,-4.617000102996826,-0.1570000052452087,-9.727999687194824,-0.4009999930858612
1621844316718,1.190000057220459,-8.840999603271484,-4.685999870300293,-0.1959999948740005,-9.682000160217283,-0.4329999983310699
1621844316728,1.190000057220459,-8.42300033569336,-5.039000034332275,-0.1959999948740005,-9.682000160217283,-0.4329999983310699
1621844316738,1.3300000429153442,-7.880000114440918,-5.298999786376953,-0.1959999948740005,-9.651000022888184,-0.3869999945163726
1621844316748,1.2599999904632568,-7.478000164031982,-5.1570000648498535,-0.1959999948740005,-9.689000129699709,-0.3939999938011169
1621844316758,1.6100000143051147,-6.75600004196167,-4.815999984741211,-0.2349999994039535,-9.720999717712402,-0.4390000104904174
1621844316768,1.9600000381469729,-5.948999881744385,-4.958000183105469,-0.2750000059604644,-9.682000160217283,-0.4329999983310699
1621844316778,1.75,-5.28000020980835,-5.125,-0.3140000104904174,-9.720999717712402,-0.4390000104904174
1621844316788,1.190000057220459,-4.566999912261963,-5.140999794006348,-0.3919999897480011,-9.770999908447264,-0.6079999804496765
1621844316798,0.699999988079071,-3.4590001106262207,-4.164000034332275,-0.5099999904632568,-9.791999816894531,-0.492000013589859
1621844316808,-0.209999993443489,-1.5290000438690186,-3.8239998817443848,-0.5099999904632568,-9.80500030517578,-0.414000004529953
1621844316818,-0.699999988079071,0.8230000138282775,-3.053999900817871,-0.5490000247955322,-9.80500030517578,-0.414000004529953
1621844316828,-1.190000057220459,3.811000108718872,-2.6689999103546143,-0.5879999995231628,-9.812000274658203,-0.3759999871253967
1621844316838,-1.4700000286102295,6.515999794006348,-2.688999891281128,-0.5879999995231628,-9.812000274658203,-0.3759999871253967
1621844316848,-1.8899999856948853,8.940999984741211,-2.3329999446868896,-0.5490000247955322,-9.80500030517578,-0.414000004529953
1621844316858,-1.8200000524520872,10.916000366210938,-1.8420000076293943,-0.5099999904632568,-9.80500030517578,-0.414000004529953
1621844316868,-1.5399999618530271,11.937999725341797,-1.590999960899353,-0.4309999942779541,-9.767000198364256,-0.4079999923706054
1621844316878,-1.4700000286102295,12.381999969482422,-1.690500020980835,-0.4309999942779541,-9.760000228881836,-0.4460000097751617
1621844316888,-1.399999976158142,12.826000213623049,-1.7899999618530271,-0.3919999897480011,-9.682000160217283,-0.4329999983310699
1621844316898,-1.2599999904632568,13.628000259399414,-2.7149999141693115,-0.3140000104904174,-9.64400005340576,-0.4259999990463256
1621844316908,-0.9800000190734864,13.972999572753906,-3.861999988555908,-0.2750000059604644,-9.720999717712402,-0.4390000104904174
1621844316918,-0.6299999952316284,14.175999641418455,-4.607999801635742,-0.3529999852180481,-9.79800033569336,-0.453000009059906
1621844316928,-0.4199999868869781,14.604999542236328,-5.03000020980835,-0.2750000059604644,-9.767000198364256,-0.4079999923706054
1621844316938,-0.6299999952316284,14.73900032043457,-5.789000034332275,-0.1959999948740005,-9.767000198364256,-0.4079999923706054
1621844316948,-0.4900000095367431,14.42300033569336,-6.413000106811523,-0.1570000052452087,-9.734999656677246,-0.3619999885559082
1621844316958,-0.4900000095367431,14.114999771118164,-5.4720001220703125,-0.1959999948740005,-9.772999763488768,-0.3689999878406524
1621844316968,-0.4900000095367431,13.980999946594238,-4.714000225067139,-0.2349999994039535,-9.734999656677246,-0.3619999885559082
1621844316978,0.0,14.029999732971191,-4.989999771118164,-0.2349999994039535,-9.696000099182127,-0.3549999892711639
1621844316988,0.699999988079071,14.178999900817873,-6.243000030517578,-0.1959999948740005,-9.696000099182127,-0.3549999892711639
1621844316998,1.2599999904632568,14.227999687194824,-6.51800012588501,-0.1570000052452087,-9.70300006866455,-0.31700000166893
1621844317008,1.399999976158142,14.616999626159668,-6.308000087738037,-0.1570000052452087,-9.70300006866455,-0.31700000166893
1621844317018,1.3300000429153442,14.53600025177002,-6.250999927520752,-0.1570000052452087,-9.696000099182127,-0.3549999892711639
1621844317028,0.9100000262260436,14.414999961853027,-6.769999980926514,-0.1570000052452087,-9.696000099182127,-0.3549999892711639
1621844317038,0.7699999809265136,14.300999641418455,-6.932000160217285,-0.1180000007152557,-9.734999656677246,-0.3619999885559082
1621844317048,0.0,14.406000137329102,-7.126999855041504,-0.1180000007152557,-9.734999656677246,-0.3619999885559082
1621844317058,-0.699999988079071,14.53600025177002,-6.250999927520752,-0.1180000007152557,-9.727999687194824,-0.4009999930858612
1621844317068,-0.9100000262260436,14.730999946594238,-6.144999980926514,-0.1180000007152557,-9.767000198364256,-0.4079999923706054
1621844317078,-0.840000033378601,14.696499824523926,-6.1514997482299805,-0.1570000052452087,-9.734999656677246,-0.3619999885559082
1621844317088,-0.7699999809265136,14.661999702453612,-6.1579999923706055,-0.1180000007152557,-9.696000099182127,-0.3549999892711639
1621844317098,-0.2800000011920929,14.593000411987305,-6.170000076293945,-0.0780000016093254,-9.70300006866455,-0.31700000166893
1621844317108,0.0,14.062000274658203,-5.979000091552734,-0.1180000007152557,-9.70300006866455,-0.31700000166893
1621844317118,0.8399999737739563,14.034000396728516,-5.414999961853027,-0.1570000052452087,-9.696000099182127,-0.3549999892711639
1621844317128,1.1200000047683716,13.993000030517578,-4.7829999923706055,-0.1570000052452087,-9.689000129699709,-0.3939999938011169
1621844317138,1.8200000524520872,14.609999656677246,-4.248000144958496,-0.1570000052452087,-9.720999717712402,-0.4390000104904174
1621844317148,2.240000009536743,15.392000198364258,-4.251999855041504,-0.1570000052452087,-9.80500030517578,-0.414000004529953
1621844317157,1.9600000381469729,15.590999603271484,-3.364000082015991,-0.1959999948740005,-9.767000198364256,-0.4079999923706054
1621844317167,1.4700000286102295,16.02899932861328,-3.428999900817871,-0.1570000052452087,-9.720999717712402,-0.4390000104904174
1621844317177,1.399999976158142,15.9399995803833,-3.7290000915527344,-0.1570000052452087,-9.727999687194824,-0.4009999930858612
1621844317187,1.3300000429153442,15.626999855041504,-3.571000099182129,-0.1180000007152557,-9.727999687194824,-0.4009999930858612
1621844317197,1.4700000286102295,15.63599967956543,-3.2139999866485596,-0.0780000016093254,-9.741999626159668,-0.3240000009536743
1621844317207,1.5399999618530271,15.003000259399414,-3.253999948501587,-0.1180000007152557,-9.812000274658203,-0.3759999871253967
1621844317217,1.8200000524520872,14.119000434875488,-3.4809999465942383,-0.1570000052452087,-9.819000244140623,-0.3370000123977661
1621844317227,1.6100000143051147,13.892000198364258,-3.8059999942779545,-0.1180000007152557,-9.857000350952148,-0.3440000116825103
1621844317237,1.4700000286102295,13.458000183105469,-4.165999889373779,-0.1570000052452087,-9.812000274658203,-0.3759999871253967
1621844317247,1.6799999475479126,13.369000434875488,-4.466000080108643,-0.1959999948740005,-9.772999763488768,-0.3689999878406524
1621844317257,1.190000057220459,12.991999626159668,-4.745999813079834,-0.2349999994039535,-9.772999763488768,-0.3689999878406524
1621844317267,0.9100000262260436,12.970999717712402,-5.033999919891357,-0.2750000059604644,-9.772999763488768,-0.3689999878406524
1621844317277,0.8399999737739563,13.234999656677246,-4.915999889373779,-0.2349999994039535,-9.779999732971191,-0.3300000131130218
1621844317287,0.7699999809265136,13.354499816894531,-4.78849983215332,-0.2750000059604644,-9.772999763488768,-0.3689999878406524
1621844317297,0.699999988079071,13.473999977111816,-4.660999774932861,-0.2750000059604644,-9.767000198364256,-0.4079999923706054
1621844317307,0.9100000262260436,13.133000373840332,-5.1479997634887695,-0.2750000059604644,-9.760000228881836,-0.4460000097751617
1621844317317,1.2599999904632568,13.42099952697754,-5.168000221252441,-0.2750000059604644,-9.843999862670898,-0.4210000038146972
1621844317327,0.7699999809265136,13.859000205993652,-5.232999801635742,-0.2750000059604644,-9.819000244140623,-0.3370000123977661
1621844317337,0.209999993443489,13.82699966430664,-5.452000141143799,-0.1959999948740005,-9.772999763488768,-0.3689999878406524
1621844317347,0.209999993443489,13.56700038909912,-5.994999885559082,-0.1570000052452087,-9.755000114440918,-0.2460000067949295
1621844317357,0.3499999940395355,13.109000205993652,-6.2179999351501465,-0.1570000052452087,-9.741999626159668,-0.3240000009536743
1621844317367,-0.1400000005960464,12.70699977874756,-6.360000133514404,-0.1959999948740005,-9.741999626159668,-0.3240000009536743
1621844317377,-0.699999988079071,12.41100025177002,-6.697000026702881,-0.1959999948740005,-9.741999626159668,-0.3240000009536743
1621844317387,-0.9100000262260436,11.928999900817873,-6.7820000648498535,-0.2349999994039535,-9.696000099182127,-0.3549999892711639
1621844317397,-0.8399999737739563,11.899999618530272,-7.426000118255616,-0.2349999994039535,-9.696000099182127,-0.3549999892711639
1621844317407,-1.1200000047683716,11.949000358581545,-7.702000141143799,-0.2349999994039535,-9.656999588012695,-0.3490000069141387
1621844317417,-1.190000057220459,12.19200038909912,-7.872000217437744,-0.2349999994039535,-9.651000022888184,-0.3869999945163726
1621844317427,-1.1200000047683716,12.16800022125244,-7.735000133514405,-0.2349999994039535,-9.689000129699709,-0.3939999938011169
1621844317437,-1.190000057220459,12.456000328063965,-7.755000114440918,-0.1959999948740005,-9.689000129699709,-0.3939999938011169
1621844317447,-1.190000057220459,12.017999649047852,-7.690000057220459,-0.2349999994039535,-9.651000022888184,-0.3869999945163726
1621844317457,-1.190000057220459,12.196000099182127,-7.090000152587891,-0.2750000059604644,-9.612000465393066,-0.3799999952316284
1621844317467,-1.3300000429153442,12.302000045776367,-7.2839999198913565,-0.2349999994039535,-9.64400005340576,-0.4259999990463256
1621844317477,-1.190000057220459,12.557000160217283,-7.52400016784668,-0.2349999994039535,-9.70699977874756,-0.5170000195503234
1621844317487,-1.295000076293945,12.666500091552734,-7.539999961853027,-0.2750000059604644,-9.79800033569336,-0.453000009059906
1621844317497,-1.399999976158142,12.776000022888184,-7.556000232696533,-0.3529999852180481,-9.760000228881836,-0.4460000097751617
1621844317507,-1.6799999475479126,13.161999702453612,-6.920000076293945,-0.3919999897480011,-9.812000274658203,-0.3759999871253967
1621844317517,-2.240000009536743,14.552000045776367,-6.744999885559082,-0.4309999942779541,-9.767000198364256,-0.4079999923706054
1621844317527,-2.309999942779541,15.392000198364258,-6.669000148773193,-0.4709999859333038,-9.772999763488768,-0.3689999878406524
1621844317537,-2.0299999713897705,16.70599937438965,-5.65500020980835,-0.5490000247955322,-9.819000244140623,-0.3370000123977661
1621844317547,-2.5899999141693115,18.368999481201172,-3.79800009727478,-0.5879999995231628,-9.812000274658203,-0.3759999871253967
1621844317557,-2.7300000190734863,20.343000411987305,-3.308000087738037,-0.6280000209808348,-9.812000274658203,-0.3759999871253967
1621844317567,-2.5199999809265137,22.256999969482425,-3.6809999942779545,-0.6669999957084655,-9.734999656677246,-0.3619999885559082
1621844317577,-2.799999952316284,24.621000289916992,-4.188000202178955,-0.5879999995231628,-9.741999626159668,-0.3240000009536743
1621844317587,-2.799999952316284,26.78700065612793,-4.375,-0.5490000247955322,-9.779999732971191,-0.3300000131130218
1621844317597,-3.430000066757202,28.704999923706055,-3.9660000801086426,-0.4309999942779541,-9.826000213623049,-0.2989999949932098
1621844317607,-4.269999980926514,30.107999801635746,-3.8599998950958256,-0.4309999942779541,-9.779999732971191,-0.3300000131130218
1621844317617,-4.690000057220459,31.275999069213867,-4.435999870300293,-0.3919999897480011,-9.83199977874756,-0.2599999904632568
1621844317627,-5.110000133514404,32.231998443603516,-4.623000144958496,-0.3529999852180481,-9.779999732971191,-0.3300000131130218
1621844317637,-5.460000038146973,32.66600036621094,-4.26200008392334,-0.2750000059604644,-9.767000198364256,-0.4079999923706054
1621844317647,-6.300000190734863,32.91400146484375,-3.650000095367432,-0.2750000059604644,-9.767000198364256,-0.4079999923706054
1621844317657,-6.579999923706055,32.61000061035156,-3.134999990463257,-0.2349999994039535,-9.727999687194824,-0.4009999930858612
1621844317667,-6.369999885559082,32.37099838256836,-3.390000104904175,-0.1959999948740005,-9.720999717712402,-0.4390000104904174
1621844317677,-5.949999809265137,32.034000396728516,-3.0940001010894775,-0.1570000052452087,-9.71399974822998,-0.4779999852180481
1621844317687,-5.460000038146973,31.791000366210938,-2.924000024795532,-0.1570000052452087,-9.70699977874756,-0.5170000195503234
1621844317697,-5.039999961853027,31.722000122070312,-2.935999870300293,-0.1959999948740005,-9.71399974822998,-0.4779999852180481
1621844317707,-4.619999885559082,31.652999877929688,-2.947999954223633,-0.1959999948740005,-9.746000289916992,-0.5239999890327453
1621844317717,-4.269999980926514,31.304000854492188,-2.5829999446868896,-0.1959999948740005,-9.701000213623049,-0.5550000071525573
1621844317727,-3.990000009536743,30.902999877929688,-2.7249999046325684,-0.2349999994039535,-9.777999877929688,-0.5690000057220459
1621844317737,-3.990000009536743,30.54599952697754,-2.7170000076293945,-0.2349999994039535,-9.777999877929688,-0.5690000057220459
1621844317747,-4.130000114440918,30.891000747680664,-2.6559998989105225,-0.2750000059604644,-9.73900032043457,-0.5619999766349792
1621844317757,-4.480000019073486,30.792999267578125,-3.312999963760376,-0.1959999948740005,-9.777999877929688,-0.5690000057220459
1621844317767,-4.550000190734863,30.54599952697754,-3.924999952316284,-0.1180000007152557,-9.777999877929688,-0.5690000057220459
1621844317777,-4.480000019073486,29.933000564575195,-3.677999973297119,-0.0390000008046627,-9.71399974822998,-0.4779999852180481
1621844317787,-4.550000190734863,29.09000015258789,-3.3289999961853027,-0.0780000016093254,-9.701000213623049,-0.5550000071525573
1621844317797,-4.409999847412109,27.982999801635746,-3.0980000495910645,-0.0390000008046627,-9.694000244140623,-0.5939999818801879
1621844317807,-3.849999904632568,27.191999435424805,-3.450999975204468,-0.0780000016093254,-9.647999763488768,-0.6259999871253967
1621844317817,-3.7799999713897705,26.364999771118164,-3.5959999561309814,-0.0780000016093254,-9.609999656677246,-0.6190000176429749
1621844317827,-3.359999895095825,25.81399917602539,-3.6940000057220455,-0.0780000016093254,-9.616999626159668,-0.5799999833106994
1621844317837,-2.869999885559082,24.73500061035156,-4.026000022888184,-0.0780000016093254,-9.609999656677246,-0.6190000176429749
1621844317847,-2.5899999141693115,24.11400032043457,-4.135000228881836,-0.0780000016093254,-9.609999656677246,-0.6190000176429749
1621844317857,-2.380000114440918,23.368000030517575,-4.3379998207092285,-0.0780000016093254,-9.602999687194824,-0.6579999923706054
1621844317867,-1.8899999856948853,22.71500015258789,-4.665999889373779,-0.0780000016093254,-9.635000228881836,-0.703000009059906
1621844317877,-1.6799999475479126,21.709999084472656,-4.203999996185303,-0.0780000016093254,-9.642000198364256,-0.6639999747276306
1621844317887,-1.2599999904632568,20.874000549316406,-4.706999778747559,-0.0780000016093254,-9.635000228881836,-0.703000009059906
1621844317897,-1.1200000047683716,19.780000686645508,-4.544000148773193,-0.0780000016093254,-9.628000259399414,-0.7419999837875366
1621844317907,-0.9100000262260436,18.441999435424805,-4.211999893188477,-0.0390000008046627,-9.621000289916992,-0.7799999713897705
1621844317917,-0.7350000143051147,17.880001068115234,-4.453000068664551,-0.0390000008046627,-9.635000228881836,-0.703000009059906
1621844317927,-0.5600000023841857,17.31800079345703,-4.693999767303467,-0.0390000008046627,-9.621000289916992,-0.7799999713897705
1621844317937,0.3499999940395355,16.280000686645508,-5.658999919891357,-0.0390000008046627,-9.635000228881836,-0.703000009059906
1621844317947,1.0499999523162842,15.050999641418455,-5.947000026702881,0.0,-9.666999816894531,-0.7490000128746032
1621844317957,1.2599999904632568,13.696999549865724,-6.328000068664551,-0.0390000008046627,-9.711999893188477,-0.7170000076293945
1621844317967,1.399999976158142,12.779999732971191,-6.77400016784668,-0.0780000016093254,-9.68000030517578,-0.6710000038146972
1621844317977,1.6100000143051147,11.953000068664553,-6.919000148773193,-0.0780000016093254,-9.718999862670898,-0.6779999732971191
1621844317987,1.399999976158142,11.133999824523926,-6.709000110626221,-0.0780000016093254,-9.75100040435791,-0.7239999771118164
1621844317997,0.9800000190734864,10.307000160217283,-6.854000091552734,-0.0780000016093254,-9.79599952697754,-0.6919999718666076
1621844318007,0.6299999952316284,9.788000106811523,-6.732999801635742,-0.1180000007152557,-9.788999557495115,-0.7300000190734863
1621844318017,0.2800000011920929,9.272999763488768,-7.0370001792907715,-0.1180000007152557,-9.782999992370604,-0.7689999938011169
1621844318027,-0.209999993443489,8.501999855041504,-7.10099983215332,-0.1180000007152557,-9.75100040435791,-0.7239999771118164
1621844318037,-0.4199999868869781,7.861999988555909,-7.499000072479248,-0.1180000007152557,-9.744000434875488,-0.762000024318695
1621844318047,-0.3499999940395355,7.484000205993653,-7.77899980545044,-0.1180000007152557,-9.67300033569336,-0.7099999785423278
1621844318057,-0.209999993443489,6.831999778747559,-8.107000350952148,-0.1180000007152557,-9.635000228881836,-0.703000009059906
1621844318067,0.209999993443489,6.559999942779541,-8.581000328063965,-0.1180000007152557,-9.67300033569336,-0.7099999785423278
1621844318077,0.3499999940395355,6.5269999504089355,-8.800000190734863,-0.1959999948740005,-9.75100040435791,-0.7239999771118164
1621844318087,0.4900000095367431,7.026000022888184,-9.210000038146973,-0.1570000052452087,-9.79599952697754,-0.6919999718666076
1621844318097,0.9100000262260436,7.083000183105469,-9.128999710083008,-0.1180000007152557,-9.79599952697754,-0.6919999718666076
1621844318107,0.699999988079071,6.426000118255615,-7.822999954223632,-0.1180000007152557,-9.79599952697754,-0.6919999718666076
1621844318117,0.0700000002980232,5.9720001220703125,-6.054999828338623,-0.1570000052452087,-9.75100040435791,-0.7239999771118164
1621844318127,-0.1749999970197677,5.982000350952148,-5.9110002517700195,-0.1959999948740005,-9.718999862670898,-0.6779999732971191
1621844318137,-0.4199999868869781,5.992000102996826,-5.767000198364258,-0.1570000052452087,-9.763999938964846,-0.6460000276565551
1621844318147,0.0,5.421000003814697,-6.1519999504089355,-0.1180000007152557,-9.763999938964846,-0.6460000276565551
1621844318157,0.0,5.245999813079834,-7.177999973297119,-0.1570000052452087,-9.718999862670898,-0.6779999732971191
1621844318167,0.2800000011920929,4.788000106811523,-7.401000022888184,-0.1570000052452087,-9.711999893188477,-0.7170000076293945
1621844318177,0.209999993443489,4.464000225067139,-7.173999786376953,-0.1570000052452087,-9.68000030517578,-0.6710000038146972
1621844318187,0.1400000005960464,4.296999931335449,-7.842999935150147,-0.1180000007152557,-9.65999984741211,-0.787000000476837
1621844318197,0.1400000005960464,4.025000095367432,-8.317000389099121,-0.0780000016093254,-9.704999923706056,-0.7549999952316284
1621844318207,-0.209999993443489,3.7049999237060542,-8.515999794006348,-0.1180000007152557,-9.65999984741211,-0.787000000476837
1621844318217,-0.4900000095367431,3.461999893188477,-8.345999717712402,-0.1570000052452087,-9.718999862670898,-0.6779999732971191
1621844318227,-0.6299999952316284,2.8010001182556152,-7.822000026702882,-0.1180000007152557,-9.704999923706056,-0.7549999952316284
1621844318237,-0.9800000190734864,2.7809998989105225,-8.109999656677246,-0.1570000052452087,-9.744000434875488,-0.762000024318695
1621844318247,-1.2599999904632568,2.9749999046325684,-8.005000114440918,-0.1570000052452087,-9.75100040435791,-0.7239999771118164
1621844318257,-1.6100000143051147,3.0160000324249268,-7.42899990081787,-0.1570000052452087,-9.75100040435791,-0.7239999771118164
1621844318267,-1.6799999475479126,2.9749999046325684,-6.796999931335449,-0.1959999948740005,-9.704999923706056,-0.7549999952316284
1621844318277,-1.0499999523162842,3.49399995803833,-6.918000221252441,-0.1570000052452087,-9.666999816894531,-0.7490000128746032
1621844318287,-1.0499999523162842,3.6400001049041744,-6.5370001792907715,-0.1180000007152557,-9.666999816894531,-0.7490000128746032
1621844318297,-0.699999988079071,3.328000068664551,-6.379000186920166,-0.1180000007152557,-9.711999893188477,-0.7170000076293945
1621844318307,-0.4900000095367431,3.5230000019073486,-6.27400016784668,-0.0780000016093254,-9.744000434875488,-0.762000024318695
1621844318317,-0.209999993443489,3.203000068664551,-6.4720001220703125,-0.0780000016093254,-9.697999954223633,-0.7940000295639038
1621844318327,-0.209999993443489,2.861999988555908,-6.959000110626221,-0.0780000016093254,-9.737000465393066,-0.8009999990463256
1621844318337,-0.0700000002980232,2.4000000953674316,-6.75600004196167,-0.0390000008046627,-9.776000022888184,-0.8080000281333923
1621844318347,-0.0700000002980232,1.406000018119812,-6.361999988555908,-0.0390000008046627,-9.782999992370604,-0.7689999938011169
1621844318357,-0.209999993443489,1.2360000610351565,-6.001500129699707,-0.1180000007152557,-9.782999992370604,-0.7689999938011169
1621844318367,-0.3499999940395355,1.0659999847412107,-5.640999794006348,-0.1570000052452087,-9.821000099182127,-0.7760000228881835
1621844318377,-0.1400000005960464,1.2719999551773071,-5.604000091552734,-0.1570000052452087,-9.788999557495115,-0.7300000190734863
1621844318387,-0.0700000002980232,0.9399999976158142,-5.734000205993652,-0.1570000052452087,-9.75100040435791,-0.7239999771118164
1621844318397,0.3499999940395355,1.3209999799728394,-5.880000114440918,-0.1959999948740005,-9.67300033569336,-0.7099999785423278
1621844318407,0.4900000095367431,1.378000020980835,-5.798999786376953,-0.1959999948740005,-9.642000198364256,-0.6639999747276306
1621844318417,1.1200000047683716,1.5199999809265137,-6.199999809265137,-0.1570000052452087,-9.666999816894531,-0.7490000128746032
1621844318427,1.2599999904632568,1.475000023841858,-6.349999904632568,-0.1180000007152557,-9.711999893188477,-0.7170000076293945
1621844318437,1.3300000429153442,1.3619999885559082,-6.513000011444092,-0.1180000007152557,-9.758000373840332,-0.6850000023841857
1621844318447,1.190000057220459,1.4220000505447388,-6.85699987411499,-0.1180000007152557,-9.75100040435791,-0.7239999771118164
1621844318457,1.2599999904632568,0.8259999752044677,-7.104000091552734,-0.0780000016093254,-9.79599952697754,-0.6919999718666076
1621844318467,0.7699999809265136,0.550000011920929,-7.1529998779296875,-0.1180000007152557,-9.788999557495115,-0.7300000190734863
1621844318477,0.209999993443489,0.2790000140666961,-7.626999855041504,-0.0780000016093254,-9.76900005340576,-0.8460000157356262
1621844318487,0.0,-0.2160000056028366,-7.644000053405762,-0.1180000007152557,-9.704999923706056,-0.7549999952316284
1621844318497,-0.1400000005960464,-1.006999969482422,-7.995999813079834,-0.1180000007152557,-9.67300033569336,-0.7099999785423278
1621844318507,-0.4199999868869781,-0.9419999718666076,-8.767000198364258,-0.0780000016093254,-9.595999717712402,-0.6959999799728394
1621844318517,-0.2800000011920929,-1.493000030517578,-8.86400032043457,-0.0780000016093254,-9.58899974822998,-0.7350000143051147
1621844318527,-0.2800000011920929,-2.061000108718872,-8.467000007629395,-0.0780000016093254,-9.621000289916992,-0.7799999713897705
1621844318537,0.5600000023841857,-2.99399995803833,-8.418000221252441,-0.0780000016093254,-9.583000183105469,-0.7739999890327453
1621844318547,0.9100000262260436,-3.901999950408935,-8.506999969482422,-0.0780000016093254,-9.550999641418455,-0.7279999852180481
1621844318557,1.1200000047683716,-4.375999927520752,-8.234999656677246,-0.1180000007152557,-9.550999641418455,-0.7279999852180481
1621844318567,1.75,-4.830999851226807,-7.675000190734864,-0.1180000007152557,-9.635000228881836,-0.703000009059906
1621844318577,2.240000009536743,-5.431000232696533,-7.497000217437744,-0.1180000007152557,-9.67300033569336,-0.7099999785423278
1621844318587,2.2750000953674316,-5.621500015258789,-7.423999786376954,-0.1180000007152557,-9.75100040435791,-0.7239999771118164
1621844318597,2.309999942779541,-5.811999797821045,-7.35099983215332,-0.1570000052452087,-9.79599952697754,-0.6919999718666076
1621844318607,2.309999942779541,-5.556000232696533,-7.5900001525878915,-0.1959999948740005,-9.75100040435791,-0.7239999771118164
1621844318617,2.309999942779541,-5.519999980926514,-7.796999931335449,-0.1959999948740005,-9.75100040435791,-0.7239999771118164
1621844318627,2.450000047683716,-5.808000087738037,-7.776999950408936,-0.1959999948740005,-9.758000373840332,-0.6850000023841857
1621844318637,2.450000047683716,-6.063000202178955,-7.5370001792907715,-0.1959999948740005,-9.79599952697754,-0.6919999718666076
1621844318647,2.309999942779541,-5.811999797821045,-7.35099983215332,-0.2349999994039535,-9.744000434875488,-0.762000024318695
1621844318657,2.380000114440918,-6.111999988555908,-7.262000083923339,-0.2750000059604644,-9.635000228881836,-0.703000009059906
1621844318667,2.450000047683716,-5.843999862670898,-7.570000171661377,-0.3140000104904174,-9.642000198364256,-0.6639999747276306
1621844318677,2.5899999141693115,-5.293000221252441,-7.473000049591064,-0.3140000104904174,-9.647999763488768,-0.6259999871253967
1621844318687,2.940000057220459,-4.583000183105469,-8.272000312805176,-0.3140000104904174,-9.647999763488768,-0.6259999871253967
1621844318697,3.359999895095825,-3.9549999237060542,-9.013999938964846,-0.2349999994039535,-9.687000274658203,-0.6330000162124633
1621844318707,3.430000066757202,-4.056000232696533,-9.244999885559082,-0.2349999994039535,-9.72599983215332,-0.6389999985694885
1621844318717,3.2899999618530273,-3.740000009536743,-8.619999885559082,-0.2349999994039535,-9.763999938964846,-0.6460000276565551
1621844318727,2.799999952316284,-3.9830000400543217,-7.242000102996825,-0.1959999948740005,-9.770999908447264,-0.6079999804496765
1621844318737,2.7300000190734863,-4.0229997634887695,-6.609000205993652,-0.1959999948740005,-9.81700038909912,-0.5759999752044677
1621844318747,2.450000047683716,-4.13700008392334,-6.770999908447266,-0.2750000059604644,-9.79800033569336,-0.453000009059906
1621844318757,2.380000114440918,-4.388000011444092,-6.958000183105469,-0.2349999994039535,-9.71399974822998,-0.4779999852180481
1621844318767,2.1700000762939453,-4.396999835968018,-7.315000057220459,-0.1570000052452087,-9.661999702453612,-0.5490000247955322
1621844318777,1.8899999856948853,-4.704999923706055,-7.581999778747559,-0.1959999948740005,-9.623000144958496,-0.5419999957084655
1621844318787,1.9600000381469729,-4.5269999504089355,-8.1899995803833,-0.1959999948740005,-9.623000144958496,-0.5419999957084655
1621844318796,2.0299999713897705,-4.935999870300293,-8.689000129699707,-0.1570000052452087,-9.661999702453612,-0.5490000247955322
1621844318807,1.8899999856948853,-5.046000003814697,-9.277000427246092,-0.1570000052452087,-9.746000289916992,-0.5239999890327453
1621844318817,1.8899999856948853,-5.307499885559082,-9.003499984741211,-0.1180000007152557,-9.753000259399414,-0.4850000143051147
1621844318827,1.8899999856948853,-5.568999767303467,-8.729999542236328,-0.1180000007152557,-9.78499984741211,-0.5299999713897705
1621844318836,1.9600000381469729,-6.031000137329102,-8.527000427246094,-0.1180000007152557,-9.822999954223633,-0.537000000476837
1621844318846,2.240000009536743,-6.423999786376953,-8.312000274658203,-0.1959999948740005,-9.81700038909912,-0.5759999752044677
1621844318856,2.240000009536743,-6.526000022888184,-8.543000221252441,-0.2349999994039535,-9.822999954223633,-0.537000000476837
1621844318866,2.0999999046325684,-7.02400016784668,-8.133000373840332,-0.1959999948740005,-9.822999954223633,-0.537000000476837
1621844318876,2.1700000762939453,-6.789000034332275,-7.452000141143799,-0.1959999948740005,-9.760000228881836,-0.4460000097751617
1621844318886,2.5899999141693115,-6.752999782562256,-7.6589999198913565,-0.1959999948740005,-9.675999641418455,-0.4709999859333038
1621844318896,2.869999885559082,-6.992000102996826,-7.914000034332275,-0.1570000052452087,-9.64400005340576,-0.4259999990463256
1621844318906,2.5899999141693115,-7.300000190734864,-8.182000160217285,-0.1180000007152557,-9.682000160217283,-0.4329999983310699
1621844318916,2.5899999141693115,-7.449999809265136,-8.13700008392334,-0.1180000007152557,-9.689000129699709,-0.3939999938011169
1621844318926,2.5199999809265137,-7.311999797821045,-8.11299991607666,-0.1570000052452087,-9.727999687194824,-0.4009999930858612
1621844318936,2.309999942779541,-7.35699987411499,-8.262999534606934,-0.1570000052452087,-9.727999687194824,-0.4009999930858612
1621844318946,2.0299999713897705,-7.5229997634887695,-7.723999977111816,-0.1570000052452087,-9.720999717712402,-0.4390000104904174
1621844318956,1.9600000381469729,-7.631999969482423,-7.103000164031982,-0.1570000052452087,-9.79800033569336,-0.453000009059906
1621844318966,1.6799999475479126,-7.7870001792907715,-6.632999897003174,-0.1959999948740005,-9.80500030517578,-0.414000004529953
1621844318976,1.6799999475479126,-7.900000095367432,-6.795000076293945,-0.2750000059604644,-9.79800033569336,-0.453000009059906
1621844318986,1.9600000381469729,-7.35699987411499,-7.054999828338623,-0.2349999994039535,-9.760000228881836,-0.4460000097751617
1621844318996,1.8200000524520872,-7.170000076293945,-7.306000232696533,-0.1959999948740005,-9.767000198364256,-0.4079999923706054
1621844319006,1.8899999856948853,-6.64300012588501,-7.071000099182129,-0.1959999948740005,-9.767000198364256,-0.4079999923706054
1621844319016,1.4700000286102295,-6.5980000495910645,-6.921000003814697,-0.1959999948740005,-9.727999687194824,-0.4009999930858612
1621844319026,1.1200000047683716,-6.184999942779541,-6.8480000495910645,-0.1959999948740005,-9.772999763488768,-0.3689999878406524
1621844319036,0.7699999809265136,-5.732500076293945,-6.5904998779296875,-0.1959999948740005,-9.767000198364256,-0.4079999923706054
1621844319046,0.4199999868869781,-5.28000020980835,-6.333000183105469,-0.3140000104904174,-9.843999862670898,-0.4210000038146972
1621844319056,-0.3499999940395355,-4.538000106811523,-5.704999923706055,-0.3140000104904174,-9.85099983215332,-0.3829999864101409
1621844319066,-0.8399999737739563,-4.574999809265137,-5.498000144958496,-0.3140000104904174,-9.812000274658203,-0.3759999871253967
1621844319076,-0.8399999737739563,-4.160999774932861,-5.425000190734863,-0.3529999852180481,-9.812000274658203,-0.3759999871253967
1621844319086,-1.5399999618530271,-3.138999938964844,-5.173999786376953,-0.3529999852180481,-9.80500030517578,-0.414000004529953
1621844319096,-1.4700000286102295,-2.5510001182556152,-5.2829999923706055,-0.3919999897480011,-9.767000198364256,-0.4079999923706054
1621844319106,-1.6799999475479126,-1.8739999532699585,-5.0929999351501465,-0.4309999942779541,-9.727999687194824,-0.4009999930858612
1621844319116,-1.75,-1.0549999475479126,-5.303999900817871,-0.4309999942779541,-9.689000129699709,-0.3939999938011169
1621844319126,-2.0299999713897705,-0.31700000166893,-5.458000183105469,-0.3919999897480011,-9.689000129699709,-0.3939999938011169
1621844319136,-1.6100000143051147,0.4939999878406524,-6.026000022888184,-0.3529999852180481,-9.651000022888184,-0.3869999945163726
1621844319146,-1.3300000429153442,1.0859999656677246,-6.560999870300293,-0.3140000104904174,-9.689000129699709,-0.3939999938011169
1621844319156,-0.9100000262260436,1.1139999628067017,-7.125,-0.2750000059604644,-9.727999687194824,-0.4009999930858612
1621844319166,-0.9100000262260436,1.2760000228881836,-7.237999916076661,-0.2349999994039535,-9.727999687194824,-0.4009999930858612
1621844319176,-1.1200000047683716,1.5160000324249268,-6.982999801635742,-0.1959999948740005,-9.772999763488768,-0.3689999878406524
1621844319186,-1.6100000143051147,1.5199999809265137,-7.4089999198913565,-0.1570000052452087,-9.80500030517578,-0.414000004529953
1621844319196,-2.450000047683716,0.9679999947547911,-7.506000041961671,-0.1959999948740005,-9.843999862670898,-0.4210000038146972
1621844319206,-2.7300000190734863,1.0290000438690186,-7.85099983215332,-0.1959999948740005,-9.85099983215332,-0.3829999864101409
1621844319216,-3.0799999237060547,0.984000027179718,-8.00100040435791,-0.2349999994039535,-9.85099983215332,-0.3829999864101409
1621844319226,-3.0799999237060547,0.6520000100135803,-8.130000114440918,-0.2349999994039535,-9.779999732971191,-0.3300000131130218
1621844319236,-3.2899999618530273,0.8379999995231628,-8.381999969482422,-0.2349999994039535,-9.741999626159668,-0.3240000009536743
1621844319246,-3.5,1.1749999523162842,-8.678000450134277,-0.2750000059604644,-9.734999656677246,-0.3619999885559082
1621844319256,-3.3600001335144043,1.0894999504089355,-8.79949951171875,-0.3140000104904174,-9.767000198364256,-0.4079999923706054
1621844319266,-3.2200000286102295,1.0039999485015867,-8.920999526977539,-0.2750000059604644,-9.772999763488768,-0.3689999878406524
1621844319276,-3.430000066757202,0.9520000219345092,-9.428000450134276,-0.2750000059604644,-9.80500030517578,-0.414000004529953
1621844319286,-3.5,0.9470000267028807,-10.211000442504885,-0.2349999994039535,-9.767000198364256,-0.4079999923706054
1621844319296,-3.7100000381469727,1.2640000581741333,-10.795000076293944,-0.2349999994039535,-9.79800033569336,-0.453000009059906
1621844319306,-4.550000190734863,1.1619999408721924,-11.026000022888184,-0.2349999994039535,-9.79800033569336,-0.453000009059906
1621844319316,-5.110000133514404,2.075000047683716,-11.362000465393066,-0.2349999994039535,-9.829999923706056,-0.4990000128746032
1621844319326,-5.53000020980835,1.996999979019165,-11.730999946594238,-0.2349999994039535,-9.89400005340576,-0.5889999866485595
1621844319336,-5.809999942779541,2.009999990463257,-11.800000190734863,-0.1570000052452087,-9.862000465393066,-0.5440000295639038
1621844319346,-6.300000190734863,1.9450000524520872,-11.029999732971191,-0.0780000016093254,-9.79800033569336,-0.453000009059906
1621844319356,-6.579999923706055,1.7910000085830688,-10.559000015258787,-0.0780000016093254,-9.682000160217283,-0.4329999983310699
1621844319366,-6.230000019073486,1.3940000534057615,-9.918999671936035,-0.0780000016093254,-9.612000465393066,-0.3799999952316284
1621844319376,-6.019999980926514,2.0829999446868896,-9.796999931335447,-0.1180000007152557,-9.56700038909912,-0.4120000004768371
1621844319386,-5.53000020980835,2.4760000705718994,-10.01200008392334,-0.0780000016093254,-9.604999542236328,-0.4189999997615814
1621844319396,-5.739999771118164,2.9019999504089355,-10.008000373840332,-0.0780000016093254,-9.630000114440918,-0.5030000209808348
1621844319406,-6.090000152587891,2.513000011444092,-9.01099967956543,-0.0780000016093254,-9.701000213623049,-0.5550000071525573
1621844319416,-6.929999828338623,2.249000072479248,-7.920000076293945,-0.0780000016093254,-9.701000213623049,-0.5550000071525573
1621844319426,-6.929999828338623,1.3860000371932983,-6.650000095367432,-0.1180000007152557,-9.701000213623049,-0.5550000071525573
1621844319436,-6.860000133514404,0.5260000228881835,-5.807000160217285,-0.0780000016093254,-9.694000244140623,-0.5939999818801879
1621844319446,-6.650000095367432,0.125,-4.739999771118164,-0.1180000007152557,-9.694000244140623,-0.5939999818801879
1621844319456,-6.440000057220459,-0.1140000000596046,-3.786999940872192,-0.1570000052452087,-9.701000213623049,-0.5550000071525573
1621844319466,-6.369999885559082,0.1620000004768371,-3.739000082015991,-0.2349999994039535,-9.73900032043457,-0.5619999766349792
1621844319476,-6.650000095367432,0.1940000057220459,-4.728000164031982,-0.1959999948740005,-9.73900032043457,-0.5619999766349792
1621844319486,-7.034999847412109,0.0360000021755695,-5.040500164031982,-0.1570000052452087,-9.8100004196167,-0.6140000224113464
1621844319496,-7.420000076293945,-0.1220000013709068,-5.353000164031982,-0.1180000007152557,-9.880000114440918,-0.6669999957084655
1621844319506,-8.260000228881836,-0.9409999847412108,-5.142000198364258,-0.1180000007152557,-9.95699977874756,-0.6800000071525573
1621844319516,-10.220000267028809,-1.7239999771118164,-3.928999900817871,-0.1180000007152557,-9.95699977874756,-0.6800000071525573
1621844319526,-11.760000228881836,-2.364000082015991,-3.118000030517578,-0.1180000007152557,-9.951000213623049,-0.7189999818801879
1621844319536,-13.020000457763672,-3.187999963760376,-2.4809999465942383,-0.2349999994039535,-9.951000213623049,-0.7189999818801879
1621844319546,-14.420000076293944,-3.1710000038146973,-2.9760000705718994,-0.3140000104904174,-9.911999702453612,-0.7120000123977661
1621844319556,-14.979999542236328,-2.888000011444092,-3.7790000438690186,-0.3529999852180481,-9.788999557495115,-0.7300000190734863
1621844319566,-15.119999885559082,-1.906999945640564,-5.311999797821045,-0.3529999852180481,-9.67300033569336,-0.7099999785423278
1621844319576,-15.329999923706056,-0.9290000200271606,-6.419000148773193,-0.3140000104904174,-9.635000228881836,-0.703000009059906
1621844319586,-14.770000457763672,0.2460000067949295,-7.84600019454956,-0.3140000104904174,-9.595999717712402,-0.6959999799728394
1621844319596,-13.93000030517578,1.1790000200271606,-9.104000091552734,-0.1570000052452087,-9.550999641418455,-0.7279999852180481
1621844319606,-13.369999885559082,1.8400000333786013,-9.626999855041506,-0.1570000052452087,-9.635000228881836,-0.703000009059906
1621844319616,-12.600000381469728,2.187999963760376,-9.991999626159668,-0.1959999948740005,-9.635000228881836,-0.703000009059906
1621844319626,-11.899999618530272,2.687000036239624,-10.401000022888184,-0.2750000059604644,-9.543999671936035,-0.7670000195503234
1621844319636,-10.56999969482422,3.2219998836517334,-11.017999649047852,-0.1959999948740005,-9.472999572753906,-0.7139999866485595
1621844319646,-9.100000381469728,3.687999963760376,-11.645999908447266,-0.1570000052452087,-9.487000465393066,-0.637000024318695
1621844319656,-7.980000019073486,4.0370001792907715,-12.01099967956543,-0.1180000007152557,-9.487000465393066,-0.637000024318695
1621844319666,-7.699999809265136,4.28000020980835,-12.182000160217283,-0.1570000052452087,-9.550999641418455,-0.7279999852180481
1621844319676,-7.769999980926514,4.885000228881836,-11.578000068664553,-0.1570000052452087,-9.61400032043457,-0.8190000057220459
1621844319686,-7.630000114440918,5.493000030517578,-10.190999984741213,-0.1570000052452087,-9.652999877929688,-0.8259999752044677
1621844319696,-7.80500030517578,5.870500087738037,-9.307000160217283,-0.2349999994039535,-9.69200038909912,-0.8330000042915344
1621844319706,-7.980000019073486,6.248000144958496,-8.42300033569336,-0.3140000104904174,-9.6850004196167,-0.8709999918937683
1621844319716,-7.489999771118165,8.194000244140625,-7.368999958038329,-0.3919999897480011,-9.6850004196167,-0.8709999918937683
1621844319726,-6.510000228881836,10.534000396728516,-7.737999916076661,-0.4309999942779541,-9.652999877929688,-0.8259999752044677
1621844319736,-4.96999979019165,13.121000289916992,-8.704000473022461,-0.3919999897480011,-9.61400032043457,-0.8190000057220459
1621844319746,-3.2200000286102295,15.493000030517578,-8.854000091552734,-0.3140000104904174,-9.505000114440918,-0.7599999904632568
1621844319756,-1.8899999856948853,17.28499984741211,-8.538000106811523,-0.2750000059604644,-9.467000007629396,-0.7530000209808348
1621844319766,-0.7699999809265136,19.11000061035156,-8.003000259399414,-0.3140000104904174,-9.529999732971191,-0.8439999818801879
1621844319776,-0.209999993443489,21.072999954223633,-8.652000427246094,-0.2349999994039535,-9.722999572753906,-0.8780000209808348
1621844319786,-0.3499999940395355,22.66200065612793,-8.79800033569336,-0.1959999948740005,-9.800999641418455,-0.8920000195503234
1621844319796,-0.8399999737739563,23.753000259399418,-9.743000030517578,-0.1180000007152557,-9.762000083923342,-0.8849999904632568
1621844319806,-0.8399999737739563,24.361000061035156,-10.77299976348877,-0.0780000016093254,-9.710000038146973,-0.9549999833106994
1621844319816,-1.190000057220459,25.04599952697754,-11.4350004196167,0.0,-9.6850004196167,-0.8709999918937683
1621844319826,-1.8899999856948853,25.054000854492188,-12.28600025177002,0.1180000007152557,-9.638999938964846,-0.902999997138977
1621844319836,-2.5199999809265137,24.858999252319336,-12.390999794006348,0.1959999948740005,-9.67099952697754,-0.9480000138282776
1621844319846,-3.2200000286102295,24.10099983215332,-12.524999618530272,0.1959999948740005,-9.70300006866455,-0.9940000176429749
1621844319856,-4.550000190734863,23.56999969482422,-12.335000038146973,0.1959999948740005,-9.734999656677246,-1.0390000343322754
1621844319866,-6.230000019073486,22.72699928283691,-11.986000061035156,0.1959999948740005,-9.79800033569336,-1.1299999952316284
1621844319876,-8.050000190734863,22.354000091552734,-11.482999801635742,0.1570000052452087,-9.836999893188477,-1.1369999647140503
1621844319886,-8.75,22.454999923706055,-11.251999855041504,0.1570000052452087,-9.857999801635742,-1.0210000276565552
1621844319896,-7.769999980926514,22.0049991607666,-12.326000213623049,0.1570000052452087,-9.772999763488768,-1.0460000038146973
1621844319906,-7.0,21.93400001525879,-12.729499816894531,0.2750000059604644,-9.522999763488768,-0.8830000162124633
1621844319916,-6.230000019073486,21.863000869750977,-13.133000373840332,0.2750000059604644,-9.413999557495115,-0.8240000009536743
1621844319926,-4.96999979019165,21.79400062561035,-11.937000274658203,0.2349999994039535,-9.336999893188477,-0.8100000023841857
1621844319936,-3.990000009536743,21.871000289916992,-10.359000205993652,0.1959999948740005,-9.43299961090088,-0.9459999799728392
1621844319946,-3.1500000953674316,22.673999786376953,-10.076000213623049,0.1570000052452087,-9.689000129699709,-1.0709999799728394
1621844319956,-4.550000190734863,23.829999923706055,-10.583000183105469,0.1180000007152557,-9.753000259399414,-1.1619999408721924
1621844319966,-6.650000095367432,24.933000564575195,-11.597000122070312,0.2349999994039535,-9.71399974822998,-1.1549999713897705
1621844319976,-7.420000076293945,26.60300064086914,-14.215999603271484,0.3140000104904174,-9.619000434875488,-1.0190000534057615
1621844319986,-6.159999847412109,28.138999938964844,-17.285999298095703,0.3140000104904174,-9.460000038146973,-0.7919999957084655
1621844319996,-3.1500000953674316,30.011999130249023,-20.652000427246097,0.4309999942779541,-9.326000213623049,-0.6489999890327453
1621844320006,1.2599999904632568,30.27899932861328,-23.37700080871582,0.4709999859333038,-9.262000083923342,-0.5580000281333923
1621844320016,5.110000133514404,29.51300048828125,-22.659000396728516,0.6280000209808348,-9.286999702453612,-0.6420000195503234
1621844320026,7.699999809265136,28.23699951171875,-16.628999710083008,0.6280000209808348,-9.35099983215332,-0.7329999804496765
1621844320036,9.449999809265137,26.923999786376953,-10.392999649047852,0.5490000247955322,-9.428000450134276,-0.7459999918937683
1621844320046,9.9399995803833,26.288000106811523,-6.381999969482422,0.4709999859333038,-9.467000007629396,-0.7530000209808348
1621844320056,10.640000343322754,26.299999237060547,-5.243000030517578,0.3919999897480011,-9.498000144958496,-0.7990000247955322
1621844320066,11.829999923706056,26.13400077819824,-5.9120001792907715,0.3919999897480011,-9.543999671936035,-0.7670000195503234
1621844320076,12.600000381469728,25.27400016784668,-5.067999839782715,0.4309999942779541,-9.55799961090088,-0.6890000104904174
1621844320086,13.4399995803833,24.062000274658203,-2.2249999046325684,0.4309999942779541,-9.395999908447264,-0.7009999752044677
