timestamp,gyro_x,gyro_y,gyro_z,acc_x,acc_y,acc_z
1622102973395,0.0,0.0,0.0,0.0,0.0,0.0
1622102974044,-19.31999969482422,84.86399841308594,-22.13999938964844,0.5490000247955322,-9.371000289916992,1.4149999618530271
1622102974054,-19.040000915527344,86.00700378417967,-21.3700008392334,0.5490000247955322,-9.279999732971191,1.35099995136261
1622102974064,-17.639999389648438,87.24400329589844,-23.142000198364254,0.6669999957084655,-9.472999572753906,1.3170000314712524
1622102974074,-15.75,87.98200225830078,-24.503999710083008,0.8240000009536743,-9.472999572753906,1.3170000314712524
1622102974084,-14.420000076293944,87.9739990234375,-23.652999877929688,0.9020000100135804,-9.460000038146973,1.2400000095367432
1622102974094,-13.859999656677246,87.26799774169922,-22.070999145507812,0.9409999847412108,-9.638999938964846,1.128000020980835
1622102974104,-13.720000267028809,86.0479965209961,-20.79400062561035,0.9409999847412108,-9.722999572753906,1.1529999971389773
1622102974114,-14.0,84.91699981689453,-19.215999603271484,0.9020000100135804,-9.83899974822998,1.1330000162124634
1622102974124,-14.489999771118164,84.02100372314453,-18.166000366210938,0.8629999756813049,-9.954999923706056,1.1130000352859497
1622102974134,-15.1899995803833,82.79199981689453,-18.45400047302246,0.8629999756813049,-10.038999557495115,1.1380000114440918
1622102974144,-15.81999969482422,81.5999984741211,-18.947999954223633,0.981000006198883,-9.947999954223633,1.0740000009536743
1622102974154,-16.450000762939453,80.05899810791016,-19.07799911499023,0.981000006198883,-9.871000289916992,1.0880000591278076
1622102974164,-16.59000015258789,77.85700225830078,-18.68400001525879,1.0199999809265137,-9.86400032043457,1.0490000247955322
1622102974174,-16.799999237060547,75.33899688720702,-17.70599937438965,0.9020000100135804,-9.824999809265137,1.055999994277954
1622102974184,-17.360000610351562,73.17400360107422,-16.31100082397461,0.7850000262260437,-9.824999809265137,1.055999994277954
1622102974194,-18.059999465942383,71.64900207519531,-15.72700023651123,0.7850000262260437,-9.819000244140623,1.0169999599456787
1622102974204,-18.760000228881836,70.06400299072266,-16.006999969482422,0.8240000009536743,-10.005000114440918,0.944000005722046
1622102974214,-20.649999618530273,68.25499725341797,-15.828000068664553,0.8629999756813049,-10.069000244140623,0.8539999723434448
1622102974224,-22.75,65.70500183105469,-15.069000244140623,0.9409999847412108,-9.89400005340576,0.7649999856948853
1622102974234,-23.135000228881836,64.30599975585938,-14.996000289916992,1.0199999809265137,-9.840999603271484,0.6940000057220459
1622102974244,-23.520000457763672,62.90700149536133,-14.92300033569336,1.0199999809265137,-9.635000228881836,0.6510000228881835
1622102974254,-23.799999237060547,59.777000427246094,-14.906000137329102,0.981000006198883,-9.522999763488768,0.4720000028610229
1622102974264,-24.010000228881836,56.09099960327149,-14.560999870300291,0.9409999847412108,-9.329999923706056,0.5059999823570251
1622102974274,-23.450000762939453,53.2400016784668,-14.921999931335447,0.8629999756813049,-9.246000289916992,0.481000006198883
1622102974284,-21.770000457763672,50.86000061035156,-15.128000259399414,0.7850000262260437,-9.201000213623049,0.4490000009536743
1622102974294,-19.670000076293945,49.472999572753906,-15.727999687194824,0.8240000009536743,-9.168999671936035,0.4939999878406524
1622102974304,-17.010000228881836,48.22800064086914,-15.520999908447266,0.8240000009536743,-9.218999862670898,0.3260000050067901
1622102974314,-14.5600004196167,47.112998962402344,-14.437999725341797,0.8629999756813049,-9.071000099182127,0.3919999897480011
1622102974324,-12.31999969482422,45.75899887084961,-13.611000061035156,0.9020000100135804,-8.954999923706055,0.4129999876022338
1622102974334,-9.9399995803833,43.917999267578125,-12.442999839782717,0.8240000009536743,-8.979999542236328,0.328000009059906
1622102974344,-6.579999923706055,42.256000518798835,-10.675000190734863,0.6669999957084655,-9.102999687194824,0.3470000028610229
1622102974354,-2.869999885559082,41.07600021362305,-8.821000099182129,0.5099999904632568,-9.25699996948242,0.3190000057220459
1622102974364,-0.4199999868869781,41.125,-7.888999938964843,0.3529999852180481,-9.335000038146973,0.3059999942779541
1622102974374,1.5399999618530271,41.84600067138672,-8.755999565124512,0.3140000104904174,-9.513999938964846,0.1940000057220459
1622102974384,2.309999942779541,42.604000091552734,-11.039999961853027,0.3919999897480011,-9.43000030517578,0.1689999997615814
1622102974394,1.8899999856948853,43.922000885009766,-11.659999847412108,0.4709999859333038,-9.1850004196167,0.1330000013113021
1622102974404,1.1200000047683716,44.58300018310547,-10.975000381469728,0.5490000247955322,-9.010000228881836,0.0439999997615814
1622102974414,1.8899999856948853,44.375999450683594,-11.01099967956543,0.7059999704360961,-9.163999557495115,0.0170000009238719
1622102974424,2.940000057220459,43.61000061035156,-10.293999671936035,0.8629999756813049,-8.96399974822998,0.0130000002682209
1622102974434,3.7799999713897705,41.777000427246094,-8.769000053405762,1.0590000152587893,-9.227999687194824,-0.0740000009536743
1622102974444,3.7799999713897705,38.88999938964844,-8.92199993133545,1.215999960899353,-9.112000465393066,-0.0529999993741512
1622102974454,3.9549999237060542,37.28849792480469,-9.310999870300291,1.3730000257492063,-9.329999923706056,-0.1710000038146972
1622102974464,4.130000114440918,35.6870002746582,-9.699999809265137,1.3730000257492063,-9.645999908447264,-0.1870000064373016
1622102974474,3.430000066757202,31.136999130249023,-10.503000259399414,1.2940000295639038,-9.722999572753906,-0.2010000050067901
1622102974484,1.3300000429153442,26.599000930786133,-10.166000366210938,1.3339999914169312,-9.678000450134276,-0.2329999953508377
1622102974494,-0.3499999940395355,22.905000686645508,-8.968999862670898,1.2549999952316284,-9.63199996948242,-0.2649999856948852
1622102974504,-0.6299999952316284,19.30500030517578,-9.105999946594238,1.2940000295639038,-9.656999588012695,-0.3490000069141387
1622102974514,0.4900000095367431,15.29800033569336,-8.960000038146973,1.215999960899353,-9.604999542236328,-0.4189999997615814
1622102974524,1.190000057220459,11.324999809265137,-7.386000156402587,1.0590000152587893,-9.835000038146973,-0.6990000009536743
1622102974534,2.7300000190734863,8.51099967956543,-5.535999774932861,0.8240000009536743,-10.003000259399414,-0.6480000019073486
1622102974544,5.110000133514404,6.916999816894531,-3.7560000419616695,0.6669999957084655,-9.946000099182127,-0.5189999938011169
1622102974554,7.630000114440918,5.9730000495910645,-2.430000066757202,0.5099999904632568,-9.843999862670898,-0.4210000038146972
1622102974564,10.56999969482422,5.883999824523926,-0.3129999935626983,0.3140000104904174,-9.902999877929688,-0.3120000064373016
1622102974574,13.649999618530272,6.4679999351501465,3.628000020980835,0.1180000007152557,-10.135000228881836,-0.3529999852180481
1622102974584,16.59000015258789,7.426000118255616,5.857999801635742,-0.0390000008046627,-10.3100004196167,-0.2639999985694885
1622102974594,18.059999465942383,8.083000183105469,6.968999862670898,-0.1959999948740005,-10.347999572753906,-0.2709999978542327
1622102974604,18.34000015258789,9.494000434875488,8.640000343322754,-0.4309999942779541,-10.534999847412108,-0.3440000116825103
1622102974614,17.709999084472656,10.812000274658203,9.227999687194824,-0.6669999957084655,-10.52299976348877,-0.1829999983310699
1622102974624,16.520000457763672,12.41800022125244,8.586999893188477,-0.7450000047683715,-10.491000175476074,-0.1369999945163726
1622102974634,14.909999847412108,13.95400047302246,5.517000198364258,-0.7059999704360961,-10.357000350952148,0.006000000052154
1622102974644,13.649999618530272,15.243000030517578,3.0429999828338623,-0.7450000047683715,-10.178000450134276,0.1169999986886978
1622102974654,12.18000030517578,17.14900016784668,1.1050000190734863,-0.7450000047683715,-10.036999702453612,0.2220000028610229
1622102974664,10.640000343322754,18.677000045776367,-2.322000026702881,-0.7059999704360961,-9.772999763488768,0.3079999983310699
1622102974674,10.56999969482422,19.319499969482425,-4.554500102996826,-0.5099999904632568,-9.541000366210936,0.3490000069141387
1622102974684,10.5,19.961999893188477,-6.7870001792907715,-0.3140000104904174,-9.513999938964846,0.1940000057220459
1622102974694,10.640000343322754,20.35099983215332,-10.201000213623049,-0.1959999948740005,-9.482000350952148,0.2399999946355819
1622102974704,10.289999961853027,19.957000732421875,-12.402999877929688,0.0,-9.668999671936035,0.1669999957084655
1622102974714,9.029999732971191,19.274999618530273,-14.583999633789064,0.0390000008046627,-9.71399974822998,0.1990000009536743
1622102974724,6.440000057220459,17.4950008392334,-16.17799949645996,0.0390000008046627,-9.46399974822998,0.3630000054836273
1622102974734,3.849999904632568,16.31100082397461,-16.31599998474121,0.0,-9.218999862670898,0.3260000050067901
1622102974744,3.009999990463257,15.223999977111816,-15.79599952697754,-0.1570000052452087,-9.07800006866455,0.4309999942779541
1622102974754,2.869999885559082,15.730999946594238,-14.640999794006348,-0.3919999897480011,-9.020999908447264,0.5600000023841857
1622102974764,3.849999904632568,18.070999145507812,-15.010000228881836,-0.4709999859333038,-8.97599983215332,0.527999997138977
1622102974774,5.460000038146973,21.165000915527344,-17.23699951171875,-0.4309999942779541,-9.0600004196167,0.5529999732971191
1622102974784,7.070000171661377,24.558000564575195,-19.55299949645996,-0.3140000104904174,-9.30500030517578,0.5899999737739563
1622102974794,7.349999904632568,27.08099937438965,-19.74799919128418,-0.1180000007152557,-9.666000366210936,0.606000006198883
1622102974804,5.739999771118164,28.415000915527344,-18.445999145507812,0.0780000016093254,-9.840999603271484,0.6940000057220459
1622102974814,3.5,28.92200088500977,-17.290000915527344,0.3140000104904174,-9.847999572753906,0.7329999804496765
1622102974824,1.2599999904632568,27.56399917602539,-16.03700065612793,0.5099999904632568,-9.939000129699709,0.7969999909400939
1622102974834,-0.9800000190734864,26.05500030517578,-14.73900032043457,0.7850000262260437,-10.074999809265137,0.8920000195503234
1622102974844,-3.430000066757202,23.56599998474121,-13.116999626159668,0.9409999847412108,-10.152999877929688,0.8790000081062316
1622102974854,-5.949999809265137,20.12299919128418,-11.734000205993652,1.0980000495910645,-9.822999954223633,0.8169999718666076
1622102974864,-5.039999961853027,16.58300018310547,-11.008000373840332,1.2549999952316284,-9.711999893188477,0.6380000114440918
1622102974874,-2.240000009536743,12.767999649047852,-10.329999923706056,1.4119999408721924,-10.86400032043457,0.395000010728836
1622102974883,-3.430000066757202,9.097999572753906,-8.062999725341797,1.4119999408721924,-11.822999954223633,0.1860000044107437
1622102974893,-5.039999961853027,6.040999889373779,-7.250999927520752,1.2549999952316284,-11.925000190734863,0.0879999995231628
1622102974903,-5.215000152587891,4.394499778747559,-8.394499778747559,1.2549999952316284,-11.633999824523926,0.0199999995529651
1622102974913,-5.389999866485596,2.747999906539917,-9.538000106811523,1.2549999952316284,-11.208999633789064,0.0949999988079071
1622102974923,-7.699999809265136,-0.6259999871253967,-9.35099983215332,1.0590000152587893,-10.746000289916992,0.1759999990463256
1622102974933,-10.989999771118164,-2.7750000953674316,-7.242000102996825,0.8240000009536743,-10.300000190734863,0.1360000073909759
1622102974943,-13.510000228881836,-3.7070000171661377,-8.401000022888184,0.5879999995231628,-9.906999588012695,0.1650000065565109
1622102974953,-14.350000381469728,-4.28000020980835,-12.411999702453612,0.4309999942779541,-9.592000007629396,0.1809999942779541
1622102974963,-14.140000343322754,-2.819999933242798,-15.85099983215332,0.3140000104904174,-9.288999557495115,0.2739999890327453
1622102974973,-13.859999656677246,-0.615000009536743,-17.878000259399414,0.1959999948740005,-8.991999626159668,0.1669999957084655
1622102974983,-12.670000076293944,2.190999984741211,-21.292999267578125,0.3140000104904174,-8.913999557495117,0.1809999942779541
1622102974993,-10.640000343322754,5.511000156402588,-24.40399932861328,0.4309999942779541,-8.805000305175781,0.2399999946355819
1622102975003,-9.029999732971191,8.989999771118164,-25.993999481201172,0.5879999995231628,-8.843999862670898,0.2329999953508377
1622102975013,-5.949999809265137,11.734999656677246,-26.64699935913086,0.7850000262260437,-8.786999702453613,0.3630000054836273
1622102975023,-3.0799999237060547,14.651000022888184,-25.849000930786133,0.9409999847412108,-8.833000183105469,0.3939999938011169
1622102975033,-0.4900000095367431,16.780000686645508,-23.41200065612793,1.1380000114440918,-8.83899974822998,0.4329999983310699
1622102975043,1.8899999856948853,18.200000762939453,-20.176000595092773,1.2940000295639038,-8.911999702453613,0.6190000176429749
1622102975053,3.569999933242798,20.26499938964844,-15.76099967956543,1.4509999752044678,-9.04800033569336,0.7149999737739563
1622102975063,4.619999885559082,21.85099983215332,-10.647000312805176,1.5299999713897705,-9.107000350952148,0.8240000009536743
1622102975073,4.690000057220459,23.17799949645996,-4.86899995803833,1.569000005722046,-9.08199977874756,0.9079999923706054
1622102975083,4.480000019073486,23.981000900268555,0.2479999959468841,1.6080000400543213,-8.928000450134277,0.9350000023841856
1622102975093,4.96999979019165,24.277999877929688,5.418000221252441,1.6480000019073486,-8.86400032043457,1.0260000228881836
1622102975103,6.579999923706055,24.20199966430664,11.090999603271484,1.6480000019073486,-8.878000259399414,1.1030000448226929
1622102975113,9.100000381469728,23.517000198364254,15.376999855041504,1.6480000019073486,-8.930000305175781,1.1740000247955322
1622102975123,11.760000228881836,22.256000518798828,18.496000289916992,1.5299999713897705,-9.053000450134276,1.1920000314712524
1622102975133,12.950000762939451,21.475500106811523,19.495500564575195,1.491000056266785,-9.090999603271484,1.184999942779541
1622102975143,14.140000343322754,20.69499969482422,20.4950008392334,1.4119999408721924,-9.248000144958496,1.3969999551773071
1622102975153,16.450000762939453,19.048999786376953,21.768999099731445,1.1770000457763672,-9.378000259399414,1.4529999494552612
1622102975163,18.760000228881836,16.94099998474121,22.03700065612793,1.1380000114440918,-9.5,1.4720000028610227
1622102975173,20.09000015258789,14.791999816894531,21.729000091552734,1.0590000152587893,-9.70699977874756,1.5149999856948853
1622102975183,21.420000076293945,12.111000061035156,20.402999877929688,0.9409999847412108,-9.906999588012695,1.5190000534057615
1622102975193,22.68000030517578,9.913000106811523,19.163000106811523,0.7450000047683715,-10.11400032043457,1.562999963760376
1622102975203,23.940000534057617,7.85699987411499,17.520999908447266,0.5099999904632568,-10.237000465393066,1.5809999704360962
1622102975213,25.1299991607666,6.754000186920166,14.909000396728516,0.2349999994039535,-10.288999557495115,1.6510000228881836
1622102975223,25.34000015258789,6.59499979019165,12.18000030517578,0.0390000008046627,-10.243000030517578,1.61899995803833
1622102975233,25.549999237060547,7.539999961853027,9.645999908447264,-0.0780000016093254,-10.166000366210938,1.6330000162124634
1622102975243,26.18000030517578,9.267000198364256,8.3149995803833,-0.1570000052452087,-10.152999877929688,1.555999994277954
1622102975253,26.459999084472656,11.29800033569336,7.67899990081787,-0.1570000052452087,-10.08199977874756,1.6080000400543213
1622102975263,26.739999771118164,13.569000244140623,7.296999931335449,-0.1180000007152557,-9.928000450134276,1.6349999904632568
1622102975273,27.719999313354492,15.230999946594238,6.736999988555908,-0.0390000008046627,-9.79800033569336,1.5779999494552612
1622102975283,29.049999237060547,16.844999313354492,6.453000068664551,0.0,-9.73900032043457,1.468999981880188
1622102975293,30.450000762939453,17.566999435424805,6.794000148773193,0.0780000016093254,-9.777999877929688,1.462000012397766
1622102975303,30.8700008392334,17.746000289916992,7.394000053405762,0.1180000007152557,-9.96399974822998,1.3899999856948853
1622102975313,29.88999938964844,16.94700050354004,7.89300012588501,0.1570000052452087,-10.015999794006348,1.4600000381469729
1622102975323,27.229999542236328,15.958000183105469,9.069000244140623,0.0780000016093254,-9.970999717712402,1.4279999732971191
1622102975333,24.010000228881836,14.628000259399414,9.758000373840332,0.0390000008046627,-9.862000465393066,1.4869999885559082
1622102975343,22.78499984741211,13.999500274658203,9.895999908447264,0.0390000008046627,-9.862000465393066,1.4869999885559082
1622102975353,21.559999465942383,13.371000289916992,10.034000396728516,-0.0390000008046627,-9.777999877929688,1.462000012397766
1622102975363,18.549999237060547,12.494999885559082,11.373000144958496,-0.1959999948740005,-9.623000144958496,1.4900000095367432
1622102975373,16.170000076293945,11.437000274658203,12.53600025177002,-0.3529999852180481,-9.54599952697754,1.503000020980835
1622102975383,14.699999809265137,10.734999656677246,12.484000205993652,-0.5099999904632568,-9.437000274658203,1.562000036239624
1622102975393,13.090000152587892,10.468000411987305,11.583999633789064,-0.6669999957084655,-9.211999893188477,1.6419999599456787
1622102975403,12.25,10.265000343322754,9.913000106811523,-0.8240000009536743,-8.888999938964844,1.61899995803833
1622102975413,13.020000457763672,10.604999542236328,6.77400016784668,-1.0199999809265137,-8.748000144958496,1.7239999771118164
1622102975423,14.979999542236328,11.821000099182127,2.2980000972747803,-1.0980000495910645,-8.645999908447266,1.8209999799728391
1622102975433,17.43000030517578,13.6850004196167,-1.4249999523162842,-1.1380000114440918,-8.576000213623047,1.8739999532699585
1622102975443,19.8799991607666,15.602999687194824,-4.640999794006348,-1.2940000295639038,-8.460000038146973,1.8940000534057615
1622102975453,22.61000061035156,18.575000762939453,-7.387000083923339,-1.2940000295639038,-8.395999908447266,1.9850000143051147
1622102975463,26.040000915527344,22.38999938964844,-10.480999946594238,-1.2940000295639038,-8.378000259399414,2.1080000400543213
1622102975473,29.68000030517578,26.19700050354004,-13.93299961090088,-1.2549999952316284,-8.8100004196167,2.071000099182129
1622102975483,31.149999618530273,30.437999725341797,-17.023000717163086,-1.1770000457763672,-9.211999893188477,2.319000005722046
1622102975493,30.520000457763672,34.90299987792969,-19.363000869750977,-1.1380000114440918,-9.25699996948242,2.3510000705718994
1622102975503,29.469999313354492,39.90999984741211,-21.96299934387207,-1.1770000457763672,-9.291000366210936,2.5439999103546143
1622102975513,28.280000686645508,46.053001403808594,-24.149999618530273,-1.1770000457763672,-9.538999557495115,2.819000005722046
1622102975523,27.15999984741211,52.61800003051758,-25.906999588012695,-1.1770000457763672,-9.656999588012695,3.0369999408721924
1622102975533,25.059999465942383,59.9370002746582,-27.104000091552734,-1.1770000457763672,-9.567999839782717,3.211999893188477
1622102975543,23.309999465942383,67.96600341796875,-29.100000381469727,-1.215999960899353,-9.564000129699709,3.4119999408721924
1622102975553,22.049999237060547,76.8949966430664,-30.156000137329105,-1.215999960899353,-9.732000350952148,3.461999893188477
1622102975563,21.24499893188477,81.14250183105469,-30.86400032043457,-1.1770000457763672,-10.138999938964844,3.509999990463257
1622102975573,20.440000534057617,85.38999938964844,-31.57200050354004,-1.2549999952316284,-10.435999870300291,3.6170001029968266
1622102975583,18.969999313354492,94.11199951171876,-32.66400146484375,-1.2940000295639038,-10.628999710083008,3.5829999446868896
1622102975593,16.729999542236328,102.55799865722656,-33.80500030517578,-1.3339999914169312,-10.836000442504885,3.625999927520752
1622102975603,14.279999732971191,111.45099639892578,-34.65299987792969,-1.3339999914169312,-10.94499969482422,3.566999912261963
1622102975613,10.989999771118164,121.29599761962892,-35.26300048828125,-1.4119999408721924,-10.939000129699709,3.5280001163482666
1622102975623,6.440000057220459,130.64300537109375,-36.67100143432618,-1.4119999408721924,-10.95699977874756,3.4049999713897705
1622102975633,1.9600000381469729,140.2570037841797,-37.179000854492195,-1.4509999752044678,-11.111000061035156,3.378000020980835
1622102975643,-1.8899999856948853,150.50799560546875,-38.073001861572266,-1.569000005722046,-10.75,3.361999988555908
1622102975653,-3.359999895095825,160.53599548339844,-39.71699905395508,-1.6480000019073486,-10.61400032043457,3.2669999599456787
1622102975663,-3.6400001049041744,170.78599548339844,-43.027000427246094,-1.6480000019073486,-10.343000411987305,3.315000057220459
1622102975673,-4.619999885559082,181.697998046875,-44.444000244140625,-1.72599995136261,-10.097999572753906,3.2780001163482666
1622102975683,-6.159999847412109,192.0019989013672,-44.83000183105469,-1.687000036239624,-9.961000442504885,3.183000087738037
1622102975693,-7.630000114440918,201.36900329589844,-44.742000579833984,-1.687000036239624,-9.86400032043457,3.0799999237060547
1622102975703,-8.890000343322754,209.1219940185547,-43.1619987487793,-1.4509999752044678,-9.663999557495115,3.075999975204468
1622102975713,-10.289999961853027,215.8939971923828,-40.04899978637695,-1.1770000457763672,-9.449999809265137,2.99399995803833
1622102975723,-10.43000030517578,221.43800354003903,-36.01499938964844,-0.9020000100135804,-9.314000129699709,2.8989999294281006
1622102975733,-10.56999969482422,224.8249969482422,-31.437000274658203,-0.6280000209808348,-9.255000114440918,2.7890000343322754
1622102975743,-10.710000038146973,226.71499633789065,-25.631000518798828,-0.3140000104904174,-9.079999923706056,2.700999975204468
1622102975753,-10.779999732971191,226.2819976806641,-18.74099922180176,-0.0390000008046627,-8.904999732971191,2.611999988555908
1622102975763,-10.710000038146973,224.17100524902344,-10.796999931335447,0.1570000052452087,-8.678000450134277,2.453000068664551
1622102975773,-8.960000038146973,220.62399291992188,-3.177000045776367,0.3529999852180481,-8.38700008392334,2.384999990463257
1622102975783,-7.489999771118165,218.18299865722656,0.5859999656677246,0.4709999859333038,-8.281999588012695,2.24399995803833
1622102975793,-6.019999980926514,215.74200439453125,4.348999977111816,0.5099999904632568,-8.255000114440918,2.0889999866485596
1622102975803,-2.799999952316284,209.10499572753903,10.145000457763672,0.5879999995231628,-8.369000434875488,1.830000042915344
1622102975813,-0.4199999868869781,200.8459930419922,14.659000396728516,0.7059999704360961,-8.404999732971191,1.5850000381469729
1622102975823,1.6799999475479126,189.91000366210935,18.631000518798828,0.7850000262260437,-8.666999816894531,1.2599999904632568
1622102975833,2.380000114440918,177.17799377441406,22.711999893188477,0.9020000100135804,-9.01900005340576,0.9990000128746032
1622102975843,1.1200000047683716,161.39599609375,26.753000259399418,0.8629999756813049,-8.767000198364258,0.9240000247955322
1622102975853,2.450000047683716,143.65199279785156,29.025999069213867,0.7850000262260437,-8.508000373840332,0.8100000023841857
1622102975863,6.929999828338623,124.8209991455078,28.19300079345703,0.6669999957084655,-8.33899974822998,0.7599999904632568
1622102975873,11.760000228881836,103.63700103759766,25.381999969482425,0.4709999859333038,-8.241999626159668,0.6579999923706054
1622102975883,16.239999771118164,82.66400146484375,19.76499938964844,0.1570000052452087,-8.20300006866455,0.6650000214576721
1622102975893,20.440000534057617,62.05899810791016,11.654000282287598,-0.1959999948740005,-8.248000144958496,0.6959999799728394
1622102975903,25.549999237060547,42.69100189208984,2.9790000915527344,-0.5490000247955322,-8.26200008392334,0.7739999890327453
1622102975913,29.190000534057617,24.641000747680664,-6.316999912261963,-1.0980000495910645,-8.359999656677246,0.8759999871253967
1622102975923,32.20000076293945,9.246999740600586,-16.56599998474121,-1.6080000400543213,-8.612000465393066,0.9509999752044676
1622102975933,34.439998626708984,-3.109999895095825,-27.913999557495117,-2.236000061035156,-8.961999893188477,1.128000020980835
1622102975943,35.4900016784668,-11.50100040435791,-38.7760009765625,-2.7850000858306885,-9.272999763488768,1.312000036239624
1622102975953,35.279998779296875,-15.732000350952148,-49.047000885009766,-3.25600004196167,-9.50699996948242,1.5099999904632568
1622102975963,34.5099983215332,-17.18899917602539,-55.70100021362305,-3.6089999675750737,-9.812000274658203,1.656000018119812
1622102975973,31.920000076293945,-15.741999626159668,-60.27899932861328,-3.92300009727478,-10.189000129699709,1.986999988555908
1622102975983,27.229999542236328,-11.67099952697754,-62.404998779296875,-4.11899995803833,-10.58899974822998,1.996999979019165
1622102975993,22.190000534057617,-5.710000038146973,-63.55699920654297,-4.276000022888184,-10.687000274658203,2.0989999771118164
1622102976003,20.19499969482422,-1.5579999685287476,-63.92649841308594,-4.276000022888184,-10.559000015258787,2.2809998989105225
1622102976013,18.200000762939453,2.5940001010894775,-64.2959976196289,-4.197000026702881,-10.48900032043457,2.3329999446868896
1622102976023,14.699999809265137,12.512999534606934,-62.90299987792969,-4.039999961853027,-10.54800033569336,2.441999912261963
1622102976033,10.56999969482422,22.042999267578125,-60.512001037597656,-3.8050000667572026,-10.38700008392334,2.430999994277954
1622102976043,6.230000019073486,30.979999542236328,-57.584999084472656,-3.5299999713897705,-10.263999938964844,2.4119999408721924
1622102976053,2.5199999809265137,39.487998962402344,-54.23699951171875,-3.177000045776367,-10.140999794006348,2.3940000534057617
1622102976063,-0.8399999737739563,46.82400131225586,-49.887001037597656,-2.7850000858306885,-10.04300022125244,2.2920000553131104
1622102976073,-3.6400001049041744,52.849998474121094,-45.76800155639648,-2.4709999561309814,-9.906999588012695,2.196000099182129
1622102976083,-5.949999809265137,57.36800003051758,-41.55899810791016,-2.1570000648498535,-9.840999603271484,2.049000024795532
1622102976093,-6.860000133514404,60.88899993896485,-37.7400016784668,-1.9220000505447388,-9.621000289916992,1.9279999732971191
1622102976103,-7.210000038146973,62.65700149536133,-34.86899948120117,-1.687000036239624,-9.508999824523924,1.7489999532699585
1622102976113,-7.9099998474121085,63.654998779296875,-32.06399917602539,-1.4119999408721924,-9.649999618530272,1.6440000534057615
1622102976123,-9.380000114440918,63.53400039672851,-28.957000732421875,-1.215999960899353,-9.741000175476074,1.7079999446868896
1622102976133,-11.0600004196167,62.37799835205078,-27.242000579833984,-1.0590000152587893,-9.630000114440918,1.5279999971389773
1622102976143,-12.529999732971191,60.94300079345703,-26.357999801635746,-0.981000006198883,-9.699999809265137,1.47599995136261
1622102976153,-14.350000381469728,59.32099914550781,-25.222000122070312,-0.9020000100135804,-9.829999923706056,1.5329999923706057
1622102976163,-16.65999984741211,57.804000854492195,-25.489999771118164,-0.981000006198883,-9.906999588012695,1.5190000534057615
1622102976173,-18.270000457763672,56.15399932861328,-26.207000732421875,-0.981000006198883,-9.753000259399414,1.5470000505447388
1622102976183,-17.56999969482422,54.04100036621094,-25.51300048828125,-0.9409999847412108,-9.307000160217283,1.50600004196167
1622102976193,-15.329999923706056,51.678001403808594,-23.79800033569336,-0.8240000009536743,-9.20300006866455,1.3650000095367432
1622102976203,-14.630000114440918,48.8390007019043,-21.809999465942383,-0.7850000262260437,-9.51900005340576,1.3489999771118164
1622102976213,-14.559999465942385,47.0265007019043,-21.20599937438965,-0.8240000009536743,-9.465999603271484,1.2779999971389773
1622102976223,-14.489999771118164,45.2140007019043,-20.60199928283691,-0.7450000047683715,-9.270999908447264,1.0740000009536743
1622102976233,-14.0,41.73099899291992,-18.586000442504883,-0.6280000209808348,-9.373000144958496,0.9760000109672546
1622102976243,-14.699999809265137,37.59199905395508,-16.472999572753906,-0.5099999904632568,-9.47599983215332,0.8780000209808348
1622102976253,-15.539999961853027,32.823001861572266,-16.034000396728516,-0.4709999859333038,-9.378000259399414,0.7760000228881835
1622102976263,-15.399999618530272,27.636999130249023,-16.451000213623047,-0.4309999942779541,-9.345999717712402,0.8220000267028807
1622102976273,-14.770000457763672,22.665000915527344,-15.265999794006348,-0.5099999904632568,-9.215999603271484,0.7649999856948853
1622102976283,-14.350000381469728,17.636999130249023,-14.161999702453612,-0.6669999957084655,-9.086999893188477,0.7080000042915344
1622102976293,-13.859999656677246,12.770999908447266,-14.380999565124512,-0.8240000009536743,-9.079999923706056,0.6690000295639038
1622102976303,-13.789999961853027,8.814000129699707,-14.510000228881836,-0.9409999847412108,-9.086999893188477,0.7080000042915344
1622102976313,-13.859999656677246,5.071000099182129,-14.246000289916992,-1.0199999809265137,-9.069000244140623,0.8309999704360961
1622102976323,-13.720000267028809,1.2630000114440918,-14.420000076293944,-1.1770000457763672,-8.998000144958496,0.8830000162124633
1622102976333,-13.579999923706056,-2.759000062942505,-14.987000465393066,-1.2549999952316284,-9.029999732971191,0.8370000123977661
1622102976343,-12.460000038146973,-6.867000102996826,-15.071000099182127,-1.2940000295639038,-9.416000366210936,0.7689999938011169
1622102976353,-10.779999732971191,-10.414999961853027,-14.70199966430664,-1.4119999408721924,-9.732000350952148,0.7530000209808348
1622102976363,-8.1899995803833,-13.281999588012695,-14.567999839782717,-1.5299999713897705,-9.932000160217283,0.7580000162124633
1622102976373,-4.900000095367432,-15.237000465393066,-15.979000091552734,-1.6480000019073486,-10.131999969482422,0.7630000114440918
1622102976383,-2.0999999046325684,-15.821000099182127,-17.503000259399414,-1.8040000200271609,-10.003000259399414,0.7059999704360961
1622102976393,-0.699999988079071,-14.041000366210938,-19.53499984741211,-2.0789999961853027,-9.862000465393066,0.8100000023841857
1622102976403,0.4199999868869781,-9.760000228881836,-23.257999420166016,-2.3929998874664307,-9.720999717712402,0.915000021457672
1622102976413,1.6100000143051147,-2.368000030517578,-28.493999481201172,-2.549999952316284,-9.625,1.0509999990463257
1622102976423,3.7799999713897705,6.511000156402588,-35.316001892089844,-2.5889999866485596,-9.67099952697754,1.0829999446868896
1622102976433,4.934999942779541,11.875499725341797,-38.52799987792969,-2.7070000171661377,-9.600000381469728,1.1349999904632568
1622102976443,6.090000152587891,17.239999771118164,-41.7400016784668,-2.746000051498413,-9.569000244140623,1.180999994277954
1622102976453,8.890000343322754,29.48900032043457,-47.1150016784668,-2.7850000858306885,-9.65999984741211,1.24399995803833
1622102976463,12.18000030517578,43.48699951171875,-52.32400131225586,-2.6670000553131104,-9.479999542236328,1.3559999465942385
1622102976473,15.260000228881836,57.13899993896485,-56.38399887084961,-2.549999952316284,-9.138999938964846,1.4559999704360962
1622102976483,18.899999618530273,70.75900268554688,-59.45600128173828,-2.3929998874664307,-8.836999893188477,1.5490000247955322
1622102976493,23.520000457763672,84.60299682617188,-60.569000244140625,-2.236000061035156,-8.86400032043457,1.7029999494552612
1622102976503,27.510000228881836,97.94400024414062,-59.63800048828125,-2.0789999961853027,-8.944000244140625,1.9279999732971191
1622102976513,29.540000915527344,109.77700042724608,-57.40999984741211,-1.687000036239624,-9.086999893188477,2.062000036239624
1622102976522,29.68000030517578,120.04100036621094,-53.53900146484375,-1.4119999408721924,-9.159000396728516,2.249000072479248
1622102976532,28.06999969482422,129.10800170898438,-48.52799987792969,-1.1770000457763672,-9.354999542236328,2.453000068664551
1622102976542,24.010000228881836,138.33399963378906,-41.99700164794922,-0.981000006198883,-9.550000190734863,2.6579999923706055
1622102976552,19.040000915527344,146.15699768066406,-35.56999969482422,-0.6669999957084655,-9.692999839782717,2.7920000553131104
1622102976562,14.489999771118164,152.56900024414065,-29.606000900268555,-0.3140000104904174,-9.906999588012695,2.874000072479248
1622102976572,10.149999618530272,156.7259979248047,-22.54700088500977,0.0780000016093254,-9.913999557495115,2.9119999408721924
1622102976582,7.139999866485596,158.81500244140625,-17.06100082397461,0.3919999897480011,-9.843000411987305,2.9639999866485596
1622102976592,5.809999942779541,158.85699462890625,-12.859999656677246,0.7850000262260437,-9.696000099182127,3.0299999713897705
1622102976602,6.019999980926514,156.9029998779297,-9.437999725341797,1.0980000495910645,-9.593000411987305,3.128000020980835
1622102976612,7.139999866485596,153.27000427246094,-6.169000148773193,1.4509999752044678,-9.663999557495115,3.075999975204468
1622102976622,8.1899995803833,147.60499572753906,-3.4709999561309814,1.8040000200271609,-9.741000175476074,3.062000036239624
1622102976632,8.260000228881836,143.53799438476565,-2.375999927520752,2.1570000648498535,-9.772999763488768,3.0169999599456787
1622102976642,8.329999923706055,139.4709930419922,-1.281000018119812,2.5889999866485596,-9.689000129699709,2.9920001029968266
1622102976652,9.449999809265137,129.5780029296875,2.0220000743865967,2.941999912261963,-9.661999702453612,2.836999893188477
1622102976662,10.710000038146973,117.12100219726564,6.151000022888184,3.138000011444092,-9.590999603271484,2.888999938964844
1622102976672,12.600000381469728,102.23999786376952,9.925000190734863,3.25600004196167,-9.517999649047852,2.703000068664551
1622102976682,14.420000076293944,85.5260009765625,12.805999755859377,3.2950000762939453,-9.55500030517578,2.4579999446868896
1622102976692,15.890000343322754,67.78500366210938,14.652999877929688,3.177000045776367,-9.572999954223633,2.3350000381469727
1622102976702,16.239999771118164,49.935001373291016,13.496000289916992,2.8239998817443848,-9.538999557495115,2.1419999599456787
1622102976712,16.239999771118164,32.57099914550781,10.789999961853027,2.4709999561309814,-9.293999671936035,2.1050000190734863
1622102976722,16.030000686645508,16.788999557495117,6.372000217437744,2.0789999961853027,-9.26599979400635,1.950999975204468
1622102976732,15.119999885559082,2.8420000076293945,-1.2050000429153442,1.6080000400543213,-9.505000114440918,1.9490000009536743
1622102976742,12.390000343322754,-9.361000061035156,-13.02299976348877,1.0199999809265137,-9.737000465393066,1.9079999923706057
1622102976752,8.399999618530273,-18.856000900268555,-27.704999923706055,0.5099999904632568,-9.883999824523924,1.8420000076293943
1622102976762,2.869999885559082,-25.479000091552734,-40.529998779296875,0.0,-10.038999557495115,1.815000057220459
1622102976772,-3.430000066757202,-28.184999465942383,-50.176998138427734,-0.4709999859333038,-10.17300033569336,1.6720000505447388
1622102976782,-10.850000381469728,-28.44099998474121,-55.979000091552734,-1.0199999809265137,-10.274999618530272,1.5740000009536743
1622102976792,-18.270000457763672,-24.038000106811523,-59.18299865722656,-1.569000005722046,-10.248000144958496,1.4190000295639038
1622102976802,-24.920000076293945,-15.449999809265137,-60.724998474121094,-2.118000030517578,-10.196000099182127,1.3489999771118164
1622102976812,-30.239999771118164,-4.943999767303467,-61.858001708984375,-2.431999921798706,-9.741000175476074,1.031000018119812
1622102976822,-34.15999984741211,7.635000228881835,-61.84400177001953,-2.431999921798706,-9.50699996948242,0.8330000042915344
1622102976832,-35.31500244140625,14.080499649047852,-61.311500549316406,-2.3929998874664307,-9.326000213623049,0.7059999704360961
1622102976842,-36.470001220703125,20.525999069213867,-60.77899932861328,-2.197000026702881,-9.182000160217283,0.5720000267028807
1622102976852,-37.72999954223633,32.88600158691406,-59.52399826049805,-1.9609999656677248,-9.006999969482422,0.4830000102519989
1622102976862,-38.150001525878906,44.698001861572266,-58.79100036621094,-1.72599995136261,-8.755000114440918,0.4079999923706054
1622102976872,-37.65999984741211,55.597999572753906,-57.72200012207031,-1.569000005722046,-8.638999938964844,0.4280000030994415
1622102976882,-36.119998931884766,66.46199798583984,-56.446998596191406,-1.4509999752044678,-8.467000007629395,0.578000009059906
1622102976892,-33.040000915527344,77.40599822998047,-55.22800064086914,-1.215999960899353,-8.333000183105469,0.7210000157356262
1622102976902,-28.770000457763672,89.23100280761719,-54.56399917602539,-0.9020000100135804,-8.314000129699707,0.8439999818801879
1622102976912,-24.36000061035156,100.01699829101564,-53.65700149536133,-0.5490000247955322,-8.244000434875488,0.8960000276565551
1622102976922,-20.3700008392334,111.09200286865234,-50.354000091552734,-0.1959999948740005,-8.21399974822998,1.1799999475479126
1622102976932,-17.079999923706055,120.77200317382812,-45.59099960327149,0.2349999994039535,-8.121000289916992,1.5549999475479126
1622102976942,-13.649999618530272,129.30799865722656,-40.38899993896485,0.6669999957084655,-8.092000007629395,1.8389999866485596
1622102976952,-9.029999732971191,136.6479949951172,-34.04899978637695,1.0980000495910645,-8.371000289916992,2.069000005722046
1622102976962,-3.6400001049041744,142.7519989013672,-27.143999099731445,1.491000056266785,-8.696000099182129,2.3299999237060547
1622102976972,1.1200000047683716,146.2689971923828,-21.690000534057617,1.843999981880188,-9.04599952697754,2.5079998970031734
1622102976982,4.409999847412109,148.13499450683594,-15.746000289916992,2.1570000648498535,-9.83199977874756,2.4489998817443848
1622102976992,6.650000095367432,149.20599365234375,-8.520000457763672,2.3540000915527344,-10.902000427246094,2.4189999103546143
1622102977002,6.300000190734863,149.42599487304688,-1.3020000457763672,2.549999952316284,-12.447999954223633,2.1470000743865967
1622102977012,2.869999885559082,149.10699462890625,3.3329999446868896,2.6670000553131104,-13.975000381469728,1.996999979019165
1622102977022,0.0,148.34849548339844,4.40749979019165,2.6670000553131104,-14.253999710083008,2.2269999980926514
1622102977032,-2.869999885559082,147.58999633789065,5.48199987411499,2.7850000858306885,-13.446999549865724,2.1700000762939453
1622102977042,-9.59000015258789,142.77699279785156,5.770999908447266,2.941999912261963,-12.45199966430664,1.9470000267028809
1622102977052,-14.0,136.6790008544922,11.732000350952148,2.746000051498413,-11.83899974822998,1.8559999465942385
1622102977062,-15.260000228881836,128.68800354003906,23.18899917602539,2.2750000953674316,-11.425000190734863,1.7690000534057615
1622102977072,-13.510000228881836,118.84400177001952,32.25699996948242,1.6480000019073486,-10.888999938964844,1.6649999618530271
1622102977082,-8.890000343322754,108.9990005493164,34.07500076293945,1.1380000114440918,-10.17300033569336,1.6720000505447388
1622102977092,-1.6799999475479126,100.03299713134766,30.503999710083008,0.8240000009536743,-9.28499984741211,1.8279999494552612
1622102977102,6.929999828338623,91.24500274658205,26.323999404907227,0.5490000247955322,-8.571000099182129,2.0739998817443848
1622102977112,14.979999542236328,81.8290023803711,22.886999130249023,0.4309999942779541,-8.166000366210938,2.263999938964844
1622102977122,20.86000061035156,72.31099700927734,19.218999862670895,0.3140000104904174,-8.25100040435791,2.2890000343322754
1622102977132,22.88999938964844,61.41899871826172,16.09000015258789,0.0780000016093254,-8.824999809265137,2.38700008392334
1622102977142,20.020000457763672,51.48400115966797,12.77400016784668,-0.4709999859333038,-9.439000129699709,2.4779999256134033
1622102977152,14.909999847412108,43.619998931884766,5.771999835968018,-1.0980000495910645,-9.79300022125244,2.4549999237060547
1622102977162,10.289999961853027,39.10900115966797,-6.538000106811523,-1.3730000257492063,-9.734000205993652,2.3459999561309814
1622102977172,7.349999904632568,37.23899841308594,-18.099000930786133,-1.4509999752044678,-9.553000450134276,2.2190001010894775
1622102977182,6.300000190734863,37.262001037597656,-24.277999877929688,-1.491000056266785,-9.33899974822998,2.13700008392334
1622102977192,5.739999771118164,37.60200119018555,-27.41699981689453,-1.491000056266785,-9.286999702453612,2.066999912261963
1622102977202,4.690000057220459,37.59000015258789,-28.555999755859375,-1.3339999914169312,-9.086999893188477,2.062000036239624
1622102977212,4.340000152587891,36.88800048828125,-28.608999252319336,-1.3339999914169312,-8.718999862670898,2.0079998970031734
1622102977222,4.235000133514404,36.49300003051758,-27.57699966430664,-1.0980000495910645,-8.343999862670898,1.9140000343322752
1622102977232,4.130000114440918,36.097999572753906,-26.545000076293945,-0.981000006198883,-8.335000038146973,1.6369999647140503
1622102977242,4.269999980926514,34.82500076293945,-24.56599998474121,-0.9020000100135804,-8.553000450134277,1.5190000534057615
1622102977252,4.269999980926514,34.15599822998047,-23.19099998474121,-0.8629999756813049,-8.706999778747559,1.4919999837875366
1622102977262,2.5899999141693115,33.78300094604492,-22.687999725341797,-0.9020000100135804,-8.63700008392334,1.5440000295639038
1622102977272,0.4199999868869781,34.15599822998047,-23.19099998474121,-0.9409999847412108,-8.5600004196167,1.5579999685287476
1622102977282,-1.399999976158142,35.7859992980957,-23.969999313354492,-0.9020000100135804,-8.644000053405762,1.5829999446868896
1622102977292,-3.2899999618530273,37.946998596191406,-24.93899917602539,-0.7850000262260437,-8.79800033569336,1.555999994277954
1622102977302,-5.039999961853027,40.35200119018555,-26.07900047302246,-0.7059999704360961,-9.022999763488768,1.47599995136261
1622102977312,-6.579999923706055,42.930999755859375,-26.19300079345703,-0.5879999995231628,-9.107000350952148,1.5010000467300415
1622102977322,-7.8400001525878915,45.46500015258789,-25.249000549316406,-0.3919999897480011,-9.166000366210936,1.6100000143051147
1622102977332,-8.539999961853027,47.48899841308594,-23.826000213623047,-0.1570000052452087,-9.315999984741213,1.7829999923706057
1622102977342,-9.100000381469728,49.53300094604492,-22.114999771118164,0.0,-9.529999732971191,1.8650000095367432
1622102977352,-9.9399995803833,51.131000518798835,-19.48699951171875,0.0780000016093254,-9.911999702453612,1.9960000514984133
1622102977362,-11.6899995803833,52.119998931884766,-17.038000106811523,0.1570000052452087,-10.27299976348877,2.01200008392334
1622102977372,-15.260000228881836,53.56800079345703,-16.783000946044922,0.3140000104904174,-10.529999732971191,1.888000011444092
1622102977382,-20.510000228881836,54.67499923706055,-17.013999938964844,0.5490000247955322,-10.649999618530272,1.6670000553131104
1622102977392,-28.209999084472656,55.09299850463867,-17.367000579833984,0.7850000262260437,-10.513999938964844,1.5720000267028809
1622102977402,-36.959999084472656,54.321998596191406,-17.43199920654297,0.9020000100135804,-10.314000129699709,1.5670000314712524
1622102977412,-42.06999969482422,52.452999114990234,-18.117000579833984,1.0980000495910645,-9.991000175476074,1.5440000295639038
1622102977422,-44.30999755859375,51.175498962402344,-19.337501525878903,1.491000056266785,-9.784000396728516,1.5010000467300415
1622102977432,-46.54999923706055,49.89799880981445,-20.558000564575195,1.9220000505447388,-9.880000114440918,1.3650000095367432
1622102977442,-49.41999816894531,47.229000091552734,-23.160999298095703,2.236000061035156,-10.013999938964844,1.2220000028610227
1622102977452,-51.45000076293945,43.560001373291016,-22.10199928283691,2.4709999561309814,-10.057000160217283,1.0149999856948853
1622102977462,-52.5,37.959999084472656,-17.757999420166016,2.628000020980835,-9.932000160217283,0.7580000162124633
1622102977472,-52.849998474121094,30.868999481201172,-12.611000061035156,2.628000020980835,-9.90999984741211,0.4040000140666961
1622102977482,-52.5,21.71299934387207,-7.046999931335449,2.4709999561309814,-10.010000228881836,0.06700000166893
1622102977492,-51.310001373291016,13.243000030517578,-0.934000015258789,2.236000061035156,-10.0600004196167,-0.101000003516674
1622102977502,-50.400001525878906,5.296000003814697,2.2130000591278076,2.000999927520752,-9.755000114440918,-0.2460000067949295
1622102977512,-49.560001373291016,-1.9340000152587893,1.2940000295639038,1.8830000162124632,-9.56700038909912,-0.4120000004768371
1622102977522,-47.599998474121094,-8.272000312805176,-0.25,1.7649999856948853,-9.694000244140623,-0.5939999818801879
1622102977532,-43.81999969482422,-13.309000015258787,-0.7120000123977661,1.6080000400543213,-10.322999954223633,-0.8640000224113464
1622102977542,-38.56999969482422,-17.452999114990234,-0.5899999737739563,1.4509999752044678,-11.071000099182127,-0.9160000085830688
1622102977552,-33.599998474121094,-21.670000076293945,-1.2619999647140503,1.3730000257492063,-11.168999671936035,-0.8140000104904174
1622102977562,-30.940000534057617,-27.829999923706055,-0.9980000257492064,1.4509999752044678,-10.76200008392334,-0.8619999885559082
1622102977572,-29.61000061035156,-34.981998443603516,0.8690000176429749,1.491000056266785,-11.314000129699709,-1.11899995803833
1622102977582,-24.989999771118164,-42.21599960327149,5.208000183105469,1.215999960899353,-12.756999969482422,-1.2929999828338623
1622102977592,-18.549999237060547,-49.08000183105469,10.68000030517578,0.7450000047683715,-12.972999572753906,-0.9729999899864196
1622102977602,-16.100000381469727,-55.54399871826172,11.458999633789064,0.5099999904632568,-11.531999588012695,-0.5600000023841857
1622102977612,-15.75,-61.25400161743164,4.339000225067139,0.5099999904632568,-9.814000129699709,-0.1369999945163726
1622102977622,-13.020000457763672,-63.428001403808594,-1.8730000257492063,0.4709999859333038,-8.638999938964844,0.4280000030994415
1622102977632,-10.5,-62.30950164794922,-3.98550009727478,0.4709999859333038,-8.373000144958496,0.953000009059906
1622102977642,-7.980000019073486,-61.19100189208984,-6.0980000495910645,0.5099999904632568,-8.72599983215332,1.36899995803833
1622102977652,-2.0299999713897705,-59.006000518798835,-14.456000328063965,0.8240000009536743,-9.038999557495115,1.7920000553131104
1622102977662,1.75,-58.029998779296875,-25.229999542236328,1.1380000114440918,-9.097999572753906,1.9010000228881836
1622102977672,2.799999952316284,-58.09199905395508,-33.34400177001953,1.4509999752044678,-9.291000366210936,1.8669999837875368
1622102977682,2.799999952316284,-58.72600173950195,-38.21799850463867,1.6080000400543213,-9.645999908447264,1.843999981880188
1622102977692,2.240000009536743,-59.779998779296875,-39.89699935913086,1.7649999856948853,-9.807000160217283,1.8559999465942385
1622102977702,0.2800000011920929,-60.696998596191406,-40.34299850463867,2.000999927520752,-9.814000129699709,1.8940000534057615
1622102977712,-1.2599999904632568,-61.10200119018555,-40.05899810791016,2.197000026702881,-10.006999969482422,1.8600000143051147
1622102977722,-0.2800000011920929,-61.60900115966797,-38.79800033569336,2.2750000953674316,-10.04599952697754,1.8530000448226929
1622102977732,1.3300000429153442,-61.542999267578125,-34.73500061035156,2.431999921798706,-9.880000114440918,2.0420000553131104
1622102977742,1.190000057220459,-61.91600036621094,-29.39800071716309,2.628000020980835,-9.439000129699709,1.8009999990463257
1622102977752,0.3499999940395355,-62.073001861572266,-23.667999267578125,2.549999952316284,-9.263999938964846,1.712000012397766
1622102977762,-0.2800000011920929,-62.624000549316406,-16.514999389648438,2.549999952316284,-9.074999809265137,1.5460000038146973
1622102977772,-1.75,-63.39300155639648,-8.121000289916992,2.549999952316284,-8.911999702453613,1.2960000038146973
1622102977782,-2.380000114440918,-65.1760025024414,-2.0390000343322754,2.4709999561309814,-8.852999687194824,1.187000036239624
1622102977792,-2.450000047683716,-68.2979965209961,3.1679999828338623,2.313999891281128,-8.755000114440918,1.0850000381469729
1622102977802,-1.8200000524520872,-71.30999755859375,7.755000114440918,2.2750000953674316,-8.572999954223633,0.9580000042915344
1622102977812,-0.9100000262260436,-74.5979995727539,9.87600040435791,2.2750000953674316,-8.425999641418457,1.02400004863739
1622102977822,0.0,-77.61100006103516,9.628999710083008,2.197000026702881,-8.432000160217285,1.062000036239624
1622102977832,1.3300000429153442,-81.19999694824219,9.42300033569336,2.1570000648498535,-8.477999687194824,1.093999981880188
1622102977842,1.75,-84.6709976196289,8.95300006866455,2.118000030517578,-8.607000350952148,1.1510000228881836
1622102977852,1.4700000286102295,-86.32550048828125,9.26550006866455,2.000999927520752,-8.6850004196167,1.1369999647140503
1622102977862,1.190000057220459,-87.9800033569336,9.57800006866455,1.8830000162124632,-8.769000053405762,1.1619999408721924
1622102977872,0.1400000005960464,-91.2030029296875,10.928999900817873,1.687000036239624,-8.717000007629395,1.0920000076293943
1622102977882,-1.8200000524520872,-94.23999786376952,13.236000061035156,1.491000056266785,-8.696000099182129,0.9760000109672546
1622102977892,-4.199999809265137,-96.63999938964844,15.159000396728516,1.1770000457763672,-8.656999588012695,0.9829999804496764
1622102977902,-5.179999828338623,-98.53399658203124,17.027999877929688,0.6669999957084655,-8.663999557495117,1.0210000276565552
1622102977912,-4.269999980926514,-99.21499633789062,18.472000122070312,0.0780000016093254,-8.819000244140625,0.9940000176429749
1622102977922,-3.1500000953674316,-97.72200012207033,20.086000442504883,-0.5490000247955322,-9.01900005340576,0.9990000128746032
1622102977932,-2.0999999046325684,-93.28199768066406,20.299999237060547,-0.981000006198883,-9.263999938964846,1.0349999666213987
1622102977942,0.0,-86.44200134277344,17.384000778198242,-1.215999960899353,-9.354999542236328,1.0989999771118164
1622102977952,0.4900000095367431,-77.9469985961914,13.550000190734863,-1.3730000257492063,-9.482000350952148,0.9169999957084656
1622102977962,0.5600000023841857,-68.4469985961914,10.463000297546388,-1.4119999408721924,-9.770999908447264,0.746999979019165
1622102977972,-1.1200000047683716,-58.6619987487793,8.989999771118164,-1.4119999408721924,-10.097999572753906,0.5690000057220459
1622102977982,-3.1500000953674316,-49.65999984741211,7.520999908447266,-1.3339999914169312,-10.277999877929688,0.4580000042915344
1622102977992,-7.349999904632568,-41.0359992980957,5.771999835968018,-1.2940000295639038,-10.256999969482422,0.3420000076293945
1622102978002,-12.390000343322754,-33.09199905395508,3.049999952316284,-1.0980000495910645,-10.321000099182127,0.2509999871253967
1622102978012,-16.100000381469727,-25.108999252319336,-0.3050000071525573,-1.0590000152587893,-10.43000030517578,0.19200000166893
1622102978022,-18.690000534057617,-18.11400032043457,-3.6919999122619633,-0.9409999847412108,-10.454999923706056,0.1080000028014183
1622102978032,-21.489999771118164,-11.281999588012695,-6.965000152587891,-0.8240000009536743,-10.371000289916992,0.0829999968409538
1622102978042,-24.709999084472656,-4.64900016784668,-11.12600040435791,-0.7059999704360961,-10.279999732971191,0.0199999995529651
1622102978052,-27.15999984741211,2.4189999103546143,-14.927000045776367,-0.5099999904632568,-10.119000434875488,0.0080000003799796
1622102978062,-28.209999084472656,5.429499626159668,-16.88399887084961,-0.3919999897480011,-9.982000350952148,-0.0869999974966049
1622102978072,-29.260000228881836,8.4399995803833,-18.840999603271484,-0.1180000007152557,-9.994000434875488,-0.248999997973442
1622102978082,-31.36000061035156,13.560999870300291,-22.48699951171875,0.0780000016093254,-10.385000228881836,-0.5170000195503234
1622102978092,-33.7400016784668,18.320999145507812,-26.906999588012695,0.5099999904632568,-10.98900032043457,-0.703000009059906
1622102978102,-36.540000915527344,23.738000869750977,-31.424999237060547,0.9020000100135804,-11.631999969482422,-0.8960000276565551
1622102978112,-40.459999084472656,28.481000900268555,-35.35100173950195,1.1770000457763672,-12.36400032043457,-1.2640000581741333
1622102978121,-45.08000183105469,32.85200119018555,-38.77399826049805,1.3730000257492063,-12.76200008392334,-1.493000030517578
1622102978131,-49.4900016784668,36.93899917602539,-40.18600082397461,1.6480000019073486,-12.541000366210938,-1.6139999628067017
1622102978141,-56.349998474121094,41.57400131225586,-39.86600112915039,1.9609999656677248,-12.043999671936035,-1.725000023841858
1622102978151,-64.26000213623047,45.000999450683594,-38.3380012512207,2.236000061035156,-11.8100004196167,-1.9229999780654907
1622102978161,-70.69999694824219,48.52899932861328,-34.1619987487793,2.313999891281128,-11.866000175476074,-2.052999973297119
1622102978171,-75.31999969482422,51.23500061035156,-26.93199920654297,2.3540000915527344,-11.465999603271484,-2.062000036239624
1622102978181,-79.16999816894531,52.90299987792969,-19.458999633789062,2.3540000915527344,-10.61400032043457,-2.1500000953674316
1622102978191,-80.56999969482422,53.04100036621094,-13.392999649047852,2.431999921798706,-9.583000183105469,-2.128000020980835
1622102978201,-77.48999786376953,51.652000427246094,-6.316999912261963,2.4709999561309814,-8.557999610900879,-2.066999912261963
1622102978211,-70.83999633789062,48.1619987487793,3.8010001182556152,2.510999917984009,-7.500999927520752,-1.9600000381469729
1622102978221,-62.02000045776367,42.34000015258789,15.852999687194824,2.431999921798706,-6.539999961853027,-1.9900000095367432
1622102978231,-50.189998626708984,34.88100051879883,27.118999481201172,2.3540000915527344,-5.894999980926514,-2.0350000858306885
1622102978241,-35.630001068115234,26.025999069213867,36.220001220703125,2.1570000648498535,-5.539999961853027,-2.013000011444092
1622102978251,-20.229999542236328,15.845000267028809,43.16699981689453,1.8830000162124632,-5.46999979019165,-1.9600000381469729
1622102978261,-4.199999809265137,5.26200008392334,46.347999572753906,1.4509999752044678,-5.739999771118164,-2.0079998970031734
1622102978271,11.199999809265137,-5.548999786376953,44.369998931884766,0.9020000100135804,-6.315000057220459,-1.9099999666213987
1622102978281,24.010000228881836,-15.366999626159668,37.16600036621094,0.5099999904632568,-7.076000213623047,-1.8849999904632568
1622102978291,28.80500030517578,-19.347999572753903,32.128501892089844,0.2349999994039535,-7.697000026702882,-1.7549999952316284
1622102978301,33.599998474121094,-23.32900047302246,27.090999603271484,0.0780000016093254,-8.21500015258789,-1.5279999971389773
1622102978311,39.40999984741211,-30.10199928283691,16.726999282836914,0.0390000008046627,-8.71500015258789,-1.1779999732971191
1622102978321,43.540000915527344,-36.733001708984375,7.170000076293945,0.0390000008046627,-8.996000289916992,-0.7099999785423278
1622102978331,46.47999954223633,-43.882999420166016,-1.055999994277954,0.1570000052452087,-8.987000465393066,-0.3100000023841857
1622102978341,48.439998626708984,-50.4010009765625,-8.034000396728516,0.3529999852180481,-8.951000213623047,-0.0649999976158142
1622102978351,50.959999084472656,-57.6150016784668,-14.281999588012695,0.5879999995231628,-9.197999954223633,0.209999993443489
1622102978361,54.38999938964844,-64.26599884033203,-19.292999267578125,0.8629999756813049,-9.755000114440918,0.4309999942779541
1622102978371,57.189998626708984,-70.81099700927734,-22.082000732421875,1.215999960899353,-10.215999603271484,0.7879999876022338
1622102978381,56.97999954223633,-78.74299621582033,-23.054000854492188,1.5299999713897705,-10.513999938964844,0.8939999938011169
1622102978391,54.810001373291016,-87.21800231933594,-21.350000381469727,1.72599995136261,-10.618000030517578,1.0349999666213987
1622102978401,52.0099983215332,-96.23999786376952,-17.75200080871582,1.72599995136261,-10.600000381469728,1.1579999923706057
1622102978411,49.630001068115234,-103.91100311279295,-13.347000122070312,1.6480000019073486,-10.536999702453612,1.2489999532699585
1622102978421,47.25,-110.9459991455078,-9.32699966430664,1.4509999752044678,-10.465999603271484,1.3009999990463257
1622102978431,45.779998779296875,-115.81900024414064,-5.068999767303467,1.215999960899353,-10.402999877929688,1.3919999599456787
1622102978441,43.88999938964844,-119.0469970703125,-2.0840001106262207,0.9409999847412108,-10.395999908447266,1.3530000448226929
1622102978451,41.439998626708984,-120.63999938964844,-1.5119999647140503,0.7450000047683715,-10.248000144958496,1.4190000295639038
1622102978461,37.72999954223633,-121.0009994506836,-2.2860000133514404,0.6669999957084655,-10.04800033569336,1.4149999618530271
1622102978471,33.880001068115234,-120.90399932861328,-4.046000003814697,0.6280000209808348,-9.887000083923342,1.4029999971389773
1622102978481,29.88999938964844,-120.33699798583984,-4.443999767303467,0.4709999859333038,-9.840999603271484,1.371999979019165
1622102978491,25.200000762939453,-120.09700012207033,-4.188000202178955,0.3140000104904174,-9.694000244140623,1.437000036239624
1622102978501,20.440000534057617,-119.32700347900392,-5.331999778747559,0.1570000052452087,-9.538999557495115,1.4650000333786013
1622102978511,18.51499938964844,-118.81600189208984,-5.810500144958496,0.0390000008046627,-9.454999923706056,1.440000057220459
1622102978521,16.59000015258789,-118.30500030517578,-6.289000034332275,0.0,-9.454999923706056,1.440000057220459
1622102978531,13.300000190734863,-117.20600128173828,-5.669000148773193,0.1570000052452087,-9.524999618530272,1.3869999647140503
1622102978541,9.869999885559082,-116.93399810791016,-3.986000061035156,0.3529999852180481,-9.67300033569336,1.3220000267028809
1622102978551,7.210000038146973,-117.41699981689452,-1.6540000438690186,0.5490000247955322,-9.862000465393066,1.4869999885559082
1622102978561,5.389999866485596,-120.3759994506836,1.0219999551773071,0.6669999957084655,-9.928000450134276,1.6349999904632568
1622102978571,5.039999961853027,-124.74700164794922,3.236999988555908,0.7850000262260437,-10.005000114440918,1.621999979019165
1622102978581,5.25,-130.73599243164065,4.953000068664551,0.7450000047683715,-10.211999893188477,1.6649999618530271
1622102978591,5.25,-136.95199584960938,6.34499979019165,0.5490000247955322,-10.380000114440918,1.7150000333786013
1622102978601,3.990000009536743,-142.17100524902344,6.916999816894531,0.2750000059604644,-10.38700008392334,1.753000020980835
1622102978611,1.5399999618530271,-146.20599365234375,6.419000148773193,-0.0780000016093254,-10.399999618530272,1.830999970436096
1622102978621,-1.399999976158142,-148.10800170898438,5.514999866485596,-0.5099999904632568,-10.30500030517578,1.9670000076293943
1622102978631,-4.269999980926514,-148.41200256347656,4.822000026702881,-0.8629999756813049,-9.96399974822998,2.066999912261963
1622102978641,-5.809999942779541,-146.9080047607422,2.740999937057495,-1.215999960899353,-9.79599952697754,2.0169999599456787
1622102978651,-5.739999771118164,-143.9239959716797,1.1349999904632568,-1.3730000257492063,-9.571000099182127,2.0959999561309814
1622102978661,-4.690000057220459,-139.75100708007812,0.4490000009536743,-1.4119999408721924,-9.395999908447264,2.0079998970031734
1622102978671,-2.380000114440918,-135.3679962158203,-0.6259999871253967,-1.4509999752044678,-9.395999908447264,2.0079998970031734
1622102978681,-0.5600000023841857,-130.95599365234375,-1.055999994277954,-1.3730000257492063,-9.395999908447264,2.0079998970031734
1622102978691,-0.4900000095367431,-126.8730010986328,-0.8339999914169312,-1.215999960899353,-9.458999633789062,1.9170000553131104
1622102978701,-1.2599999904632568,-123.90399932861328,0.4709999859333038,-1.0199999809265137,-9.678000450134276,1.7990000247955322
1622102978711,-3.7799999713897705,-121.79100036621094,2.194000005722046,-0.8629999756813049,-10.036999702453612,1.5759999752044678
1622102978721,-6.650000095367432,-120.60700225830078,3.5409998893737793,-0.7059999704360961,-10.395999908447266,1.3530000448226929
1622102978731,-8.364999771118164,-120.24200439453124,3.88949990272522,-0.6280000209808348,-10.458999633789064,1.2630000114440918
1622102978741,-10.079999923706056,-119.8769989013672,4.23799991607666,-0.5490000247955322,-10.380000114440918,1.037999987602234
1622102978751,-13.649999618530272,-120.12799835205078,5.260000228881836,-0.4709999859333038,-10.378000259399414,0.7990000247955322
1622102978761,-15.960000038146973,-120.29000091552734,6.581999778747559,-0.4309999942779541,-10.119000434875488,0.6850000023841857
1622102978771,-17.639999389648438,-120.59799957275392,7.5229997634887695,-0.3919999897480011,-9.472999572753906,0.6399999856948853
1622102978781,-19.040000915527344,-121.4990005493164,6.581999778747559,-0.2349999994039535,-8.737000465393066,0.531000018119812
1622102978791,-18.200000762939453,-123.00299835205078,5.0370001792907715,-0.1180000007152557,-8.45300006866455,0.5009999871253967
1622102978801,-15.260000228881836,-124.98200225830078,4.9730000495910645,-0.0390000008046627,-8.37600040435791,0.5149999856948853
1622102978811,-11.550000190734863,-127.22100067138672,3.1559998989105225,-0.0390000008046627,-8.336999893188477,0.5220000147819519
1622102978821,-7.070000171661377,-129.31399536132812,-0.6959999799728394,0.0,-8.324000358581543,0.4440000057220459
1622102978831,-1.0499999523162842,-130.95700073242188,-4.681000232696533,0.1180000007152557,-8.336999893188477,0.5220000147819519
1622102978841,5.460000038146973,-132.7899932861328,-7.989999771118165,0.2349999994039535,-8.319000244140625,0.6439999938011169
1622102978851,12.109999656677246,-134.46099853515625,-11.411999702453612,0.3919999897480011,-8.39799976348877,0.8690000176429749
1622102978861,17.989999771118164,-135.91299438476565,-14.866999626159668,0.5879999995231628,-8.529999732971191,1.1649999618530271
1622102978871,23.450000762939453,-136.81399536132812,-17.016000747680664,0.7450000047683715,-8.616000175476074,1.4279999732971191
1622102978881,27.299999237060547,-136.69200134277344,-18.913999557495117,0.9409999847412108,-8.86400032043457,1.7029999494552612
1622102978891,30.239999771118164,-136.1820068359375,-23.017000198364254,1.1380000114440918,-9.189000129699709,1.9650000333786013
1622102978901,31.290000915527344,-135.66299438476565,-25.555999755859375,1.3339999914169312,-9.637000083923342,2.24399995803833
1622102978911,30.3799991607666,-134.35800170898438,-26.107999801635746,1.5299999713897705,-9.968000411987305,2.5439999103546143
1622102978921,28.979999542236328,-132.70700073242188,-26.597999572753903,1.72599995136261,-10.208999633789064,2.7799999713897705
1622102978931,26.459999084472656,-131.4709930419922,-27.16200065612793,2.000999927520752,-10.538999557495115,2.8420000076293945
1622102978941,21.90999984741211,-130.10800170898438,-26.423999786376953,2.2750000953674316,-10.965999603271484,3.00600004196167
1622102978951,16.3799991607666,-129.60499572753906,-26.051000595092773,2.510999917984009,-11.218000411987305,3.0810000896453857
1622102978961,13.579999923706056,-129.6334991455078,-25.487499237060547,2.7850000858306885,-11.354000091552734,3.1760001182556152
1622102978971,10.779999732971191,-129.66200256347656,-24.923999786376953,2.9809999465942383,-11.277000427246094,3.190000057220459
1622102978981,6.650000095367432,-129.60499572753906,-23.635000228881836,3.0989999771118164,-11.07699966430664,3.184999942779541
1622102978991,2.5199999809265137,-129.7550048828125,-21.17300033569336,3.25600004196167,-10.845000267028809,3.2260000705718994
1622102979001,-1.399999976158142,-129.5919952392578,-16.452999114990234,3.25600004196167,-10.567999839782717,3.234999895095825
1622102979011,-3.7799999713897705,-128.906005859375,-12.281000137329102,3.25600004196167,-10.20699977874756,3.2190001010894775
1622102979021,-4.760000228881836,-127.90399932861328,-8.692000389099121,3.2950000762939453,-9.961000442504885,3.183000087738037
1622102979031,-4.059999942779541,-126.9219970703125,-4.183000087738037,3.2950000762939453,-9.645999908447264,3.1989998817443848
1622102979041,-2.799999952316284,-125.03199768066406,0.4149999916553497,3.2170000076293945,-9.663999557495115,3.075999975204468
1622102979051,-2.0999999046325684,-123.41699981689452,4.964000225067139,3.0989999771118164,-9.80500030517578,2.9709999561309814
1622102979061,-2.6600000858306885,-121.89600372314452,9.638999938964846,2.941999912261963,-9.836999893188477,2.9260001182556152
1622102979071,-3.0799999237060547,-120.20400238037108,13.350000381469728,2.746000051498413,-9.64099979400635,2.7209999561309814
1622102979081,-3.009999990463257,-118.73200225830078,17.091999053955078,2.5889999866485596,-9.61400032043457,2.566999912261963
1622102979091,-3.2200000286102295,-117.14600372314452,20.996999740600582,2.431999921798706,-9.522999763488768,2.503000020980835
1622102979101,-3.2200000286102295,-116.34700012207033,22.915000915527344,2.2750000953674316,-9.399999618530272,2.484999895095825
1622102979111,-2.869999885559082,-115.56400299072266,24.118999481201172,2.1570000648498535,-9.354999542236328,2.453000068664551
1622102979121,-2.240000009536743,-114.78099822998048,25.322999954223633,1.9609999656677248,-9.397999763488768,2.246000051498413
1622102979131,-2.1700000762939453,-114.77700042724608,26.106000900268555,1.7649999856948853,-9.5,2.1489999294281006
1622102979141,-2.940000057220459,-114.42400360107422,26.52300071716309,1.6080000400543213,-9.595999717712402,2.01200008392334
1622102979151,-5.53000020980835,-114.1969985961914,26.847999572753903,1.4509999752044678,-9.718000411987305,2.0309998989105225
1622102979161,-9.100000381469728,-113.45899963378906,26.694000244140625,1.2940000295639038,-9.718000411987305,2.0309998989105225
1622102979171,-12.18000030517578,-112.875,25.801000595092773,1.1380000114440918,-9.440999984741213,2.0399999618530273
1622102979181,-12.530000686645508,-112.41699981689452,24.81599998474121,1.0980000495910645,-9.234000205993652,1.9960000514984133
1622102979191,-12.880000114440918,-111.95899963378906,23.83099937438965,1.0590000152587893,-9.26599979400635,1.950999975204468
1622102979201,-12.390000343322754,-110.56800079345705,21.58799934387207,1.0199999809265137,-9.30500030517578,1.944000005722046
1622102979211,-12.18000030517578,-108.91400146484376,19.46299934387207,0.981000006198883,-9.253000259399414,1.8739999532699585
1622102979221,-11.619999885559082,-107.89700317382812,17.722999572753906,0.981000006198883,-9.470999717712402,1.75600004196167
1622102979231,-11.829999923706056,-106.79000091552734,16.283000946044922,0.981000006198883,-9.541000366210936,1.7029999494552612
1622102979241,-12.880000114440918,-106.13300323486328,16.18600082397461,0.9409999847412108,-9.534000396728516,1.6649999618530271
1622102979251,-14.06999969482422,-105.18800354003906,16.06800079345703,0.981000006198883,-9.585000038146973,1.496999979019165
1622102979261,-14.979999542236328,-103.87000274658205,15.447999954223633,0.9020000100135804,-9.687000274658203,1.39900004863739
1622102979271,-16.170000076293945,-102.96600341796876,15.963000297546388,0.9020000100135804,-9.781999588012695,1.2630000114440918
1622102979281,-18.1299991607666,-102.2519989013672,15.946000099182127,0.981000006198883,-9.755000114440918,1.1080000400543213
1622102979291,-20.09000015258789,-102.18000030517578,15.532999992370604,1.0199999809265137,-9.656999588012695,1.00600004196167
1622102979301,-21.979999542236328,-102.10299682617188,14.692999839782717,1.0199999809265137,-9.520999908447264,0.9100000262260436
1622102979311,-23.450000762939453,-102.21600341796876,13.322999954223633,1.0590000152587893,-9.494000434875488,0.7559999823570251
1622102979321,-24.219999313354492,-102.03800201416016,11.505999565124512,1.0590000152587893,-9.602999687194824,0.6970000267028807
1622102979331,-25.549999237060547,-102.28600311279295,9.6850004196167,0.981000006198883,-9.58899974822998,0.6190000176429749
1622102979341,-27.299999237060547,-102.48500061035156,7.58900022506714,0.8629999756813049,-9.576000213623049,0.5419999957084655
1622102979351,-28.489999771118164,-102.89900207519533,5.098999977111816,0.7850000262260437,-9.576000213623049,0.5419999957084655
1622102979361,-30.030000686645508,-102.22599792480467,3.299000024795532,0.5879999995231628,-9.562000274658203,0.4650000035762786
1622102979371,-31.290000915527344,-101.09100341796876,1.2949999570846558,0.4309999942779541,-9.678000450134276,0.4440000057220459
1622102979381,-34.29999923706055,-98.3010025024414,-1.625,0.1959999948740005,-9.6850004196167,0.4830000102519989
1622102979391,-38.36000061035156,-93.4520034790039,-6.953000068664551,-0.0390000008046627,-9.635000228881836,0.6510000228881835
1622102979401,-40.810001373291016,-87.75599670410156,-13.057000160217283,-0.1959999948740005,-9.65999984741211,0.5669999718666076
1622102979411,-43.435001373291016,-81.42849731445312,-16.49049949645996,-0.1959999948740005,-9.987000465393066,0.3899999856948852
1622102979421,-46.060001373291016,-75.10099792480469,-19.923999786376953,-0.2349999994039535,-10.43000030517578,0.19200000166893
1622102979431,-47.25,-69.5459976196289,-22.000999450683594,-0.2349999994039535,-10.666000366210938,-0.0489999987185001
1622102979441,-47.040000915527344,-65.28500366210938,-26.011999130249023,-0.1180000007152557,-10.727999687194824,-0.3779999911785125
1622102979451,-45.9900016784668,-61.38399887084961,-28.3799991607666,0.0780000016093254,-10.763999938964844,-0.6230000257492065
1622102979461,-43.81999969482422,-58.05500030517578,-28.71699905395508,0.2750000059604644,-10.737000465393066,-0.777999997138977
1622102979471,-41.02000045776367,-56.30799865722656,-28.551000595092773,0.4309999942779541,-10.529999732971191,-0.8209999799728394
1622102979481,-37.939998626708984,-55.172000885009766,-26.93000030517578,0.6669999957084655,-9.904999732971191,-0.7509999871253967
1622102979491,-34.15999984741211,-54.89099884033203,-22.472999572753903,0.8629999756813049,-9.003000259399414,-0.6710000038146972
1622102979501,-28.90999984741211,-55.92399978637695,-14.196999549865724,1.0590000152587893,-8.170999526977539,-0.6439999938011169
1622102979511,-22.540000915527344,-57.79199981689453,-4.00600004196167,1.1770000457763672,-7.546999931335449,-0.5740000009536743
1622102979521,-14.979999542236328,-60.52799987792969,6.671000003814697,1.2549999952316284,-7.198999881744385,-0.5130000114440918
1622102979531,-5.739999771118164,-63.993999481201165,16.650999069213867,1.215999960899353,-7.044000148773193,-0.4850000143051147
1622102979541,4.550000190734863,-68.322998046875,26.69099998474121,1.1770000457763672,-7.076000213623047,-0.531000018119812
1622102979551,15.399999618530272,-73.3499984741211,37.46200180053711,0.9409999847412108,-7.333000183105469,-0.656000018119812
1622102979561,26.18000030517578,-78.4209976196289,46.874000549316406,0.6669999957084655,-7.796000003814697,-0.7369999885559082
1622102979571,35.41999816894531,-82.33300018310547,52.9370002746582,0.2750000059604644,-8.35099983215332,-0.7559999823570251
1622102979581,43.33000183105469,-85.25299835205078,53.77299880981445,-0.2349999994039535,-9.020999908447264,-0.7940000295639038
1622102979591,48.439998626708984,-87.48799896240233,49.11399841308594,-0.8240000009536743,-9.526000022888184,-0.6439999938011169
1622102979601,52.56999969482422,-89.7760009765625,41.53200149536133,-1.4119999408721924,-9.720999717712402,-0.4390000104904174
1622102979611,55.29999923706055,-91.58899688720705,34.88600158691406,-1.9609999656677248,-9.755000114440918,-0.2460000067949295
1622102979621,56.41999816894531,-92.635498046875,32.355499267578125,-2.3540000915527344,-9.718999862670898,-0.0010000000474974
1622102979631,57.540000915527344,-93.68199920654298,29.825000762939453,-2.6670000553131104,-9.54599952697754,0.1490000039339065
1622102979641,58.65999984741211,-96.5260009765625,23.780000686645508,-2.9809999465942383,-9.612000465393066,0.2969999909400939
1622102979651,57.04999923706055,-97.8000030517578,17.299999237060547,-3.2950000762939453,-10.01200008392334,0.3059999942779541
1622102979661,52.779998779296875,-97.13600158691406,9.10099983215332,-3.6480000019073486,-10.5600004196167,0.248999997973442
1622102979671,46.7599983215332,-94.85800170898438,-0.5910000205039978,-3.961999893188477,-11.019000053405762,0.367000013589859
1622102979681,40.66999816894531,-90.44000244140624,-11.539999961853027,-4.1579999923706055,-11.109000205993652,0.4309999942779541
1622102979691,35.349998474121094,-83.8239974975586,-21.249000549316406,-4.197000026702881,-10.968000411987305,0.5360000133514404
1622102979701,30.799999237060547,-75.99500274658203,-30.174999237060547,-4.079999923706055,-10.744000434875488,0.615000009536743
1622102979711,27.09000015258789,-67.50499725341797,-38.41600036621094,-3.8829998970031734,-10.447999954223633,0.746999979019165
1622102979721,24.920000076293945,-58.39799880981445,-46.12099838256836,-3.6089999675750737,-10.04800033569336,0.7379999756813049
1622102979731,24.010000228881836,-49.61600112915039,-52.391998291015625,-3.25600004196167,-9.616000175476074,0.7739999890327453
1622102979741,23.8700008392334,-41.35300064086914,-56.12300109863281,-2.8239998817443848,-9.20300006866455,0.6880000233650208
1622102979751,23.729999542236328,-33.805999755859375,-58.20500183105469,-2.3540000915527344,-8.873000144958496,0.6259999871253967
1622102979760,23.8700008392334,-26.92099952697754,-57.34600067138672,-1.8830000162124632,-8.65999984741211,0.5440000295639038
1622102979770,23.940000534057617,-20.34000015258789,-55.97200012207031,-1.491000056266785,-8.692000389099121,0.4990000128746032
1622102979780,23.520000457763672,-13.689000129699709,-54.58599853515625,-1.1770000457763672,-8.666999816894531,0.5830000042915344
1622102979790,23.170000076293945,-7.074999809265137,-51.78499984741211,-0.9409999847412108,-8.64799976348877,0.7059999704360961
1622102979800,23.239999771118164,-4.140999794006348,-49.27750015258789,-0.7059999704360961,-8.456999778747559,0.977999985218048
1622102979810,23.309999465942383,-1.2070000171661377,-46.77000045776367,-0.4309999942779541,-8.38700008392334,1.031000018119812
1622102979820,22.88999938964844,3.9849998950958256,-39.52899932861328,-0.1570000052452087,-8.295999526977539,0.9670000076293944
1622102979830,22.959999084472656,8.024999618530273,-30.996999740600582,0.0780000016093254,-8.335000038146973,0.9599999785423278
1622102979840,24.36000061035156,10.70199966430664,-21.996000289916992,0.3140000104904174,-8.373000144958496,0.953000009059906
1622102979850,26.739999771118164,12.187000274658203,-13.48900032043457,0.4709999859333038,-8.411999702453613,0.9459999799728392
1622102979860,30.450000762939453,12.727999687194824,-4.863999843597412,0.6669999957084655,-8.366999626159668,0.915000021457672
1622102979870,35.06999969482422,12.218000411987305,4.073999881744385,0.7850000262260437,-8.295999526977539,0.9670000076293944
1622102979880,39.900001525878906,10.503999710083008,13.793999671936035,0.9020000100135804,-8.342000007629395,0.9990000128746032
1622102979890,44.72999954223633,8.166000366210938,22.621999740600582,0.8629999756813049,-8.555000305175781,1.0809999704360962
1622102979900,47.66999816894531,5.822999954223633,29.458999633789062,0.7450000047683715,-8.83899974822998,1.1100000143051147
1622102979910,49.41999816894531,2.924999952316284,35.41600036621094,0.6280000209808348,-9.090999603271484,1.184999942779541
1622102979920,49.630001068115234,-0.6510000228881835,39.9739990234375,0.4309999942779541,-9.465999603271484,1.2779999971389773
1622102979930,47.18000030517578,-3.9600000381469727,43.01599884033203,0.1959999948740005,-9.961999893188477,1.1510000228881836
1622102979940,41.58000183105469,-7.289000034332275,43.35300064086914,-0.1570000052452087,-10.607000350952148,1.1970000267028809
1622102979950,33.11000061035156,-10.55799961090088,39.720001220703125,-0.5879999995231628,-10.96399974822998,1.412999987602234
1622102979960,24.149999618530273,-14.053999900817873,33.34600067138672,-0.9020000100135804,-11.057000160217283,1.7150000333786013
1622102979970,19.915000915527344,-15.453500747680664,30.398500442504883,-1.1770000457763672,-11.052000045776367,1.9149999618530271
1622102979980,15.68000030517578,-16.85300064086914,27.451000213623047,-1.4509999752044678,-10.91800022125244,2.058000087738037
1622102979990,8.329999923706055,-19.14900016784668,21.92799949645996,-1.6480000019073486,-10.746000289916992,2.2079999446868896
1622102980000,2.7300000190734863,-21.62700080871582,16.231000900268555,-1.8040000200271609,-10.590999603271484,2.234999895095825
1622102980010,-0.6299999952316284,-23.60300064086914,9.699000358581545,-1.8830000162124632,-10.559000015258787,2.2809998989105225
1622102980020,-2.799999952316284,-26.0,3.9449999332427974,-1.9220000505447388,-10.475000381469728,2.25600004196167
1622102980030,-3.1500000953674316,-28.770000457763672,-1.305999994277954,-1.9220000505447388,-10.538999557495115,2.1649999618530273
1622102980040,-2.309999942779541,-31.34199905395508,-5.669000148773193,-1.843999981880188,-10.654999732971191,2.1440000534057617
1622102980050,-0.9100000262260436,-34.375999450683594,-9.82900047302246,-1.843999981880188,-10.725000381469728,2.0920000076293945
1622102980060,0.2800000011920929,-36.73600006103515,-14.581000328063965,-1.8040000200271609,-10.82699966430664,1.99399995803833
1622102980070,2.0999999046325684,-38.66699981689453,-18.54599952697754,-1.7649999856948853,-11.23900032043457,1.8420000076293943
1622102980080,2.940000057220459,-39.98099899291992,-21.97699928283691,-1.8040000200271609,-11.843000411987305,1.656000018119812
1622102980090,2.869999885559082,-40.874000549316406,-26.184999465942383,-1.7649999856948853,-12.190999984741213,1.5950000286102295
1622102980100,2.240000009536743,-41.4379997253418,-31.04700088500977,-1.569000005722046,-12.152000427246094,1.60099995136261
1622102980110,2.450000047683716,-41.85200119018555,-34.744998931884766,-1.4119999408721924,-11.854999542236328,1.4950000047683716
1622102980120,4.96999979019165,-41.16299819946289,-38.249000549316406,-1.2940000295639038,-11.557000160217283,1.3880000114440918
1622102980130,7.524999618530273,-40.845001220703125,-40.25450134277344,-1.2549999952316284,-11.427000045776367,1.3309999704360962
1622102980140,10.079999923706056,-40.527000427246094,-42.2599983215332,-1.215999960899353,-11.008999824523926,1.444000005722046
1622102980150,17.010000228881836,-39.77799987792969,-47.31600189208984,-1.1380000114440918,-10.237000465393066,1.5809999704360962
1622102980160,23.59000015258789,-37.722999572753906,-52.92499923706055,-0.981000006198883,-9.199999809265137,1.8029999732971191
1622102980170,28.700000762939453,-34.46699905395508,-57.68199920654297,-0.8240000009536743,-8.029999732971191,2.1689999103546143
1622102980180,32.689998626708984,-29.099000930786133,-64.34100341796875,-0.7059999704360961,-6.892000198364258,2.489000082015991
1622102980190,36.33000183105469,-22.097000122070312,-70.99600219726562,-0.4709999859333038,-6.03000020980835,2.799999952316284
1622102980200,40.529998779296875,-13.638999938964844,-74.62200164794922,-0.1180000007152557,-5.426000118255615,2.986999988555908
1622102980210,45.56999969482422,-5.427999973297119,-74.0270004272461,0.2750000059604644,-5.208000183105469,3.1050000190734863
1622102980220,52.709999084472656,2.865000009536743,-69.86399841308594,0.6669999957084655,-5.4079999923706055,3.1089999675750732
1622102980230,61.18000030517578,10.453000068664553,-61.70199966430664,0.9409999847412108,-6.0279998779296875,3.239000082015991
1622102980240,67.76000213623047,17.631999969482422,-49.20600128173828,1.2549999952316284,-6.635000228881836,3.2909998893737793
1622102980250,72.23999786376953,24.017000198364254,-33.01100158691406,1.5299999713897705,-6.932000160217285,3.3980000019073486
1622102980260,76.37000274658203,29.753000259399418,-16.36199951171875,1.7649999856948853,-6.797999858856201,3.5409998893737793
1622102980270,81.12999725341797,34.54399871826172,-0.8040000200271606,1.9609999656677248,-6.478000164031982,3.7569999694824214
1622102980280,83.78999328613281,36.51599884033203,5.550000190734863,2.1570000648498535,-6.248000144958496,4.0370001792907715
1622102980290,86.44999694824219,38.487998962402344,11.904000282287598,2.1570000648498535,-6.263999938964844,4.3520002365112305
1622102980300,92.33000183105467,40.444000244140625,22.98200035095215,2.0789999961853027,-6.5,4.789000034332275
1622102980310,98.13999938964844,41.45899963378906,31.334999084472656,1.8040000200271609,-6.98199987411499,5.261000156402588
1622102980320,102.2699966430664,41.06600189208984,37.59199905395508,1.5299999713897705,-7.797999858856201,5.5960001945495605
1622102980330,101.36000061035156,39.4370002746582,41.99599838256836,1.1770000457763672,-8.722999572753906,5.870999813079834
1622102980340,94.98999786376952,38.006000518798835,44.87099838256836,0.7059999704360961,-9.402000427246092,6.109000205993652
1622102980350,85.68000030517578,36.45600128173828,43.176998138427734,0.2750000059604644,-9.784000396728516,6.241000175476074
1622102980360,76.0199966430664,35.279998779296875,37.354000091552734,0.0390000008046627,-9.94499969482422,6.252999782562256
1622102980370,66.36000061035156,34.51599884033203,30.395000457763672,-0.2750000059604644,-9.795000076293944,6.079999923706055
1622102980380,56.90999984741211,33.185001373291016,25.042999267578125,-0.4309999942779541,-9.491000175476074,5.934000015258789
1622102980390,48.5099983215332,31.959999084472656,20.70400047302246,-0.4309999942779541,-9.178999900817873,5.75
1622102980400,42.0,31.204999923706055,16.520000457763672,-0.5099999904632568,-8.836000442504883,5.611999988555908
1622102980410,37.45000076293945,30.73500061035156,13.949000358581545,-0.5490000247955322,-8.5,5.51200008392334
1622102980420,34.720001220703125,30.836000442504883,12.972000122070312,-0.6669999957084655,-8.20199966430664,5.40500020980835
1622102980430,33.25,31.62700080871582,12.116000175476074,-0.7450000047683715,-7.988999843597413,5.322999954223633
1622102980440,32.79499816894531,32.14799880981445,11.781499862670898,-0.8240000009536743,-7.697999954223632,5.255000114440918
1622102980450,32.34000015258789,32.66899871826172,11.446999549865724,-0.9409999847412108,-7.459000110626221,5.256999969482422
1622102980460,31.780000686645508,34.11600112915039,11.70199966430664,-1.0199999809265137,-7.336999893188477,5.238999843597412
1622102980470,32.130001068115234,35.70199966430664,11.982000350952148,-1.0590000152587893,-7.342999935150147,5.2769999504089355
1622102980480,32.54999923706055,36.78900146484375,12.67099952697754,-1.1770000457763672,-7.381999969482423,5.270999908447266
1622102980490,32.20000076293945,38.297000885009766,13.789999961853027,-1.2940000295639038,-7.427999973297118,5.302000045776367
1622102980500,31.43000030517578,39.76100158691406,14.758999824523926,-1.4119999408721924,-7.480000019073486,5.373000144958496
1622102980510,31.010000228881836,41.305999755859375,14.461999893188477,-1.4509999752044678,-7.447999954223632,5.418000221252441
1622102980520,29.61000061035156,42.882999420166016,13.177000045776367,-1.687000036239624,-7.422999858856201,5.501999855041504
1622102980530,27.790000915527344,44.0629997253418,11.324000358581545,-1.7649999856948853,-7.3979997634887695,5.585999965667725
1622102980540,26.25,46.374000549316406,9.10099983215332,-1.843999981880188,-7.380000114440918,5.709000110626221
1622102980550,24.219999313354492,48.16600036621094,7.0,-1.9220000505447388,-7.348000049591064,5.755000114440918
1622102980560,22.540000915527344,50.09199905395508,4.140999794006348,-1.9609999656677248,-7.2839999198913565,5.84499979019165
1622102980570,21.280000686645508,51.28400039672851,1.0110000371932983,-2.000999927520752,-7.2729997634887695,6.006999969482422
1622102980580,20.15999984741211,52.617000579833984,-2.5209999084472656,-2.000999927520752,-7.190999984741211,6.21999979019165
1622102980590,19.600000381469727,54.09299850463867,-6.454999923706055,-2.0399999618530273,-7.296000003814697,6.361000061035156
1622102980600,20.440000534057617,54.71099853515625,-8.54949951171875,-2.0789999961853027,-7.736000061035157,6.6020002365112305
1622102980610,21.280000686645508,55.32899856567382,-10.644000053405762,-2.1570000648498535,-8.229000091552734,6.914000034332275
1622102980620,22.75,56.459999084472656,-14.637999534606934,-2.1570000648498535,-8.534000396728516,7.059000015258789
1622102980630,23.030000686645508,57.87900161743164,-17.44499969482422,-2.118000030517578,-8.902000427246094,7.113999843597412
1622102980640,22.260000228881836,59.27299880981445,-20.113000869750977,-2.000999927520752,-9.567999839782717,7.275000095367432
1622102980650,21.420000076293945,60.0629997253418,-22.177000045776367,-2.000999927520752,-9.935999870300291,7.329999923706055
1622102980660,18.690000534057617,60.165000915527344,-23.15399932861328,-2.0399999618530273,-10.199999809265137,7.243000030517577
1622102980670,14.630000114440918,59.369998931884766,-23.08099937438965,-2.0399999618530273,-10.494999885559082,7.111999988555908
1622102980680,10.920000076293944,58.00699996948242,-23.819000244140625,-2.1570000648498535,-10.89900016784668,6.921000003814697
1622102980690,9.239999771118164,56.417999267578125,-23.67300033569336,-2.3929998874664307,-10.744999885559082,6.947999954223633
1622102980700,8.119999885559082,55.849998474121094,-24.483999252319336,-2.549999952316284,-10.03600025177002,6.993000030517578
1622102980710,7.0,55.86199951171875,-29.38599967956543,-2.549999952316284,-9.435999870300291,6.980000019073486
1622102980720,8.680000305175781,56.38800048828125,-33.98500061035156,-2.5889999866485596,-8.902000427246094,7.113999843597412
1622102980730,10.989999771118164,57.7140007019043,-34.24800109863281,-2.628000020980835,-8.406999588012695,7.241000175476073
1622102980740,12.8100004196167,58.095001220703125,-31.97800064086914,-2.628000020980835,-7.922999858856201,7.206999778747559
1622102980750,14.699999809265137,56.77399826049805,-29.722999572753903,-2.628000020980835,-7.515999794006347,7.158999919891357
1622102980760,15.68000030517578,54.52799987792969,-25.854000091552734,-2.6670000553131104,-7.140999794006348,7.065999984741211
1622102980770,15.155000686645508,53.04999923706055,-23.520000457763672,-2.8239998817443848,-6.9019999504089355,7.067999839782715
1622102980780,14.630000114440918,51.571998596191406,-21.18600082397461,-3.059999942779541,-6.7270002365112305,6.979000091552734
1622102980790,12.460000038146973,47.93899917602539,-19.125999450683594,-3.2170000076293945,-6.770999908447266,6.7729997634887695
1622102980800,10.220000267028809,44.233001708984375,-20.277000427246097,-3.413000106811523,-6.908999919891357,6.428999900817871
1622102980810,7.420000076293945,41.483001708984375,-24.031999588012695,-3.490999937057495,-7.008999824523926,6.0929999351501465
1622102980820,3.7799999713897705,39.551998138427734,-29.204999923706055,-3.569999933242798,-6.883999824523926,5.835999965667725
1622102980830,-0.7699999809265136,38.6510009765625,-34.97999954223633,-3.5299999713897705,-6.513999938964844,5.543000221252441
1622102980840,-4.130000114440918,38.1879997253418,-40.819000244140625,-3.3340001106262207,-6.189000129699707,5.2820000648498535
1622102980850,-4.480000019073486,37.875,-45.493999481201165,-3.2170000076293945,-5.922999858856201,5.129000186920166
1622102980860,-2.1700000762939453,37.595001220703125,-47.53400039672851,-3.0199999809265137,-5.755000114440918,5.078999996185303
1622102980870,0.8399999737739563,37.58300018310547,-47.46500015258789,-2.864000082015991,-5.631999969482422,5.060999870300293
1622102980880,5.670000076293945,36.83300018310547,-46.03300094604492,-2.7070000171661377,-5.35099983215332,5.269999980926514
1622102980890,10.779999732971191,35.560001373291016,-44.054000854492195,-2.628000020980835,-5.301000118255615,5.438000202178955
1622102980900,14.840000152587892,34.194000244140625,-41.95000076293945,-2.549999952316284,-5.366000175476074,5.585999965667725
1622102980910,18.690000534057617,32.64500045776367,-40.01900100708008,-2.549999952316284,-5.565999984741211,5.591000080108643
1622102980920,21.770000457763672,30.784000396728516,-39.13899993896485,-2.5889999866485596,-5.811999797821045,5.626999855041504
1622102980930,23.8700008392334,29.020000457763672,-38.810001373291016,-2.5889999866485596,-5.940999984741211,5.684000015258789
1622102980940,24.079999923706055,27.65800094604492,-39.54800033569336,-2.628000020980835,-6.103000164031982,5.695000171661377
1622102980950,23.904998779296875,27.076000213623047,-40.681499481201165,-2.628000020980835,-6.193999767303467,5.758999824523926
1622102980960,23.729999542236328,26.493999481201172,-41.814998626708984,-2.628000020980835,-6.309000015258789,5.738999843597412
1622102980970,23.170000076293945,25.770999908447266,-44.571998596191406,-2.549999952316284,-6.361999988555908,5.809000015258789
1622102980980,21.770000457763672,25.597000122070312,-46.805999755859375,-2.4709999561309814,-6.453000068664551,5.873000144958496
1622102980990,20.15999984741211,26.167999267578125,-48.8380012512207,-2.3929998874664307,-6.544000148773193,5.935999870300293
1622102981000,18.899999618530273,26.763999938964844,-49.79899978637695,-2.313999891281128,-6.51800012588501,6.019999980926514
1622102981010,17.290000915527344,27.347999572753903,-49.483001708984375,-2.236000061035156,-6.603000164031982,6.045000076293945
1622102981020,15.68000030517578,28.07799911499023,-47.57699966430664,-2.1570000648498535,-6.692999839782715,6.109000205993652
1622102981030,14.770000457763672,28.584999084472656,-45.2130012512207,-2.0789999961853027,-6.829999923706055,6.203999996185303
1622102981040,14.420000076293944,29.47800064086914,-43.42100143432618,-2.000999927520752,-6.868000030517578,6.197999954223633
1622102981050,13.859999656677246,29.75,-40.529998779296875,-1.9609999656677248,-6.934000015258789,6.34499979019165
1622102981060,12.25,29.929000854492188,-37.51300048828125,-1.9220000505447388,-6.986999988555908,6.415999889373779
1622102981070,10.079999923706056,30.143999099731445,-34.702999114990234,-1.843999981880188,-7.0320000648498535,6.447999954223633
1622102981080,7.630000114440918,29.937999725341797,-32.321998596191406,-1.7649999856948853,-7.084000110626221,6.51800012588501
1622102981090,4.550000190734863,29.881000518798828,-29.98699951171875,-1.6080000400543213,-7.130000114440918,6.550000190734863
1622102981100,0.9100000262260436,29.375,-27.517000198364254,-1.569000005722046,-7.421000003814697,6.618000030517578
1622102981110,-2.240000009536743,28.11400032043457,-24.39900016784668,-1.5299999713897705,-7.929999828338623,6.567999839782715
1622102981120,-4.480000019073486,25.847999572753903,-20.81800079345703,-1.5299999713897705,-8.439000129699707,6.51800012588501
1622102981130,-8.1899995803833,22.795000076293945,-16.80699920654297,-1.569000005722046,-8.902000427246094,6.435999870300293
1622102981140,-12.039999961853027,18.638999938964844,-12.991000175476074,-1.687000036239624,-9.152000427246092,6.2729997634887695
1622102981150,-14.280000686645508,16.289499282836914,-11.557000160217283,-1.8040000200271609,-9.317999839782717,6.084000110626221
1622102981160,-16.520000457763672,13.9399995803833,-10.123000144958496,-1.9220000505447388,-9.347999572753906,5.800000190734863
1622102981170,-20.86000061035156,9.51599979400635,-8.414999961853027,-1.9609999656677248,-9.225000381469728,5.7820000648498535
1622102981180,-25.059999465942383,4.39900016784668,-7.611999988555909,-2.0399999618530273,-9.236000061035156,5.620999813079834
1622102981190,-28.489999771118164,-0.6779999732971191,-7.440999984741211,-2.1570000648498535,-9.666000366210936,5.3460001945495605
1622102981200,-29.81999969482422,-5.589000225067139,-7.809000015258789,-2.3929998874664307,-9.666000366210936,5.3460001945495605
1622102981210,-27.510000228881836,-10.151000022888184,-8.541999816894531,-2.4709999561309814,-8.866000175476074,5.328000068664551
1622102981220,-24.63999938964844,-14.76200008392334,-10.208000183105469,-2.4709999561309814,-8.041000366210938,5.39300012588501
1622102981230,-23.100000381469727,-18.992000579833984,-14.437000274658203,-2.549999952316284,-7.5,5.488999843597412
1622102981240,-19.040000915527344,-22.483999252319336,-20.02899932861328,-2.746000051498413,-7.186999797821045,5.743000030517578
1622102981250,-11.829999923706056,-24.597000122070312,-24.167999267578125,-2.746000051498413,-6.796000003814697,6.011000156402588
1622102981260,-2.309999942779541,-26.44300079345703,-31.03300094604492,-2.6670000553131104,-6.186999797821045,6.396999835968018
1622102981270,7.420000076293945,-28.000999450683594,-41.54399871826172,-2.4709999561309814,-5.525000095367432,6.7129998207092285
1622102981280,16.170000076293945,-28.177000045776367,-52.23699951171875,-2.1570000648498535,-5.204999923706055,6.928999900817871
1622102981290,25.1299991607666,-26.597000122070312,-63.6150016784668,-1.7649999856948853,-5.484000205993652,7.158999919891357
1622102981300,33.66999816894531,-23.54599952697754,-74.8759994506836,-1.491000056266785,-6.0269999504089355,7.302000045776368
1622102981310,38.150001525878906,-19.527999877929688,-83.55000305175781,-0.981000006198883,-6.557000160217285,7.368000030517577
1622102981320,37.52000045776367,-15.015999794006348,-88.58300018310547,-0.4709999859333038,-7.0269999504089355,7.324999809265136
1622102981330,33.599998474121094,-9.55799961090088,-91.31700134277344,0.1570000052452087,-7.375,7.263000011444091
1622102981340,29.190000534057617,-3.5360000133514404,-90.39700317382812,0.7059999704360961,-7.543000221252441,7.313000202178955
1622102981350,25.690000534057617,1.2660000324249268,-84.57499694824219,1.1770000457763672,-7.491000175476073,7.243000030517577
1622102981360,22.049999237060547,5.953999996185303,-75.29000091552734,1.687000036239624,-7.23199987411499,7.129000186920166
1622102981370,20.229999542236328,8.58650016784668,-69.45899963378906,2.000999927520752,-7.005000114440918,6.96999979019165
1622102981380,18.40999984741211,11.218999862670898,-63.62799835205078,2.236000061035156,-6.984000205993652,6.854000091552734
1622102981390,17.010000228881836,14.97599983215332,-51.87799835205078,2.313999891281128,-6.964000225067139,6.73799991607666
1622102981399,17.850000381469727,17.961999893188477,-41.400001525878906,2.3929998874664307,-6.90500020980835,6.629000186920166
1622102981409,18.969999313354492,21.288000106811523,-31.643999099731445,2.4709999561309814,-6.7820000648498535,6.611000061035156
1622102981419,19.38999938964844,23.670000076293945,-22.979000091552734,2.549999952316284,-6.645999908447266,6.515999794006348
1622102981429,20.229999542236328,24.55900001525879,-14.718999862670898,2.4709999561309814,-6.650000095367432,6.315999984741211
1622102981439,20.3700008392334,24.617000579833984,-6.178999900817871,2.3540000915527344,-6.668000221252441,6.192999839782715
1622102981449,20.510000228881836,23.680999755859375,1.5460000038146973,2.1570000648498535,-6.6479997634887695,6.077000141143799
1622102981459,19.25,20.924999237060547,8.3100004196167,2.0399999618530273,-6.574999809265137,5.890999794006348
1622102981469,18.34000015258789,17.823999404907227,13.80500030517578,1.8040000200271609,-6.439000129699707,5.795000076293945
1622102981479,17.43000030517578,13.413000106811523,19.069000244140625,1.569000005722046,-6.270999908447266,5.744999885559082
1622102981489,17.010000228881836,8.868000030517578,23.882999420166016,1.2940000295639038,-6.179999828338623,5.682000160217285
1622102981499,17.149999618530273,4.285999774932861,27.69499969482422,0.981000006198883,-6.127999782562256,5.611000061035156
1622102981509,17.850000381469727,-0.9279999732971193,30.257999420166016,0.5879999995231628,-6.0960001945495605,5.6570000648498535
1622102981519,19.11000061035156,-5.290999889373779,31.621999740600582,0.2750000059604644,-6.140999794006348,5.689000129699707
1622102981529,20.440000534057617,-9.45199966430664,31.030000686645508,-0.0390000008046627,-6.15500020980835,5.765999794006348
1622102981539,21.84000015258789,-12.91100025177002,29.28300094604492,-0.3529999852180481,-6.238999843597412,5.790999889373779
1622102981549,22.540000915527344,-14.781000137329102,26.180999755859375,-0.6280000209808348,-6.265999794006348,5.945000171661377
1622102981559,22.540000915527344,-15.621000289916992,22.479000091552734,-0.8629999756813049,-6.164000034332275,6.043000221252441
1622102981569,23.239999771118164,-15.130999565124512,18.086999893188477,-1.0199999809265137,-6.015999794006348,6.109000205993652
1622102981579,24.5,-14.085000038146973,13.366999626159668,-1.0980000495910645,-5.953000068664551,6.199999809265137
1622102981589,25.549999237060547,-12.3100004196167,8.13599967956543,-1.2549999952316284,-6.019000053405762,6.3470001220703125
1622102981599,26.18000030517578,-9.68299961090088,2.913000106811523,-1.4119999408721924,-6.1479997634887695,6.4039998054504395
1622102981609,25.6200008392334,-6.974999904632568,-1.159000039100647,-1.4509999752044678,-6.258999824523926,6.584000110626221
1622102981619,24.56999969482422,-2.628000020980835,-5.6519999504089355,-1.4509999752044678,-6.293000221252441,6.7769999504089355
1622102981629,23.76499938964844,-0.6700000166893005,-7.687999725341797,-1.3730000257492063,-6.2820000648498535,6.938000202178955
1622102981639,22.959999084472656,1.287999987602234,-9.723999977111816,-1.2549999952316284,-6.1620001792907715,7.158999919891357
1622102981649,21.350000381469727,5.493000030517578,-13.815999984741213,-1.1380000114440918,-6.079999923706055,7.372000217437744
1622102981659,20.440000534057617,9.854999542236328,-17.59600067138672,-1.0199999809265137,-6.061999797821045,7.494999885559082
1622102981669,19.8799991607666,14.095999717712402,-20.68600082397461,-0.9409999847412108,-6.126999855041504,7.64300012588501
1622102981679,19.739999771118164,18.215999603271484,-24.29599952697754,-0.7450000047683715,-6.263999938964844,7.737999916076661
1622102981689,20.510000228881836,22.554000854492188,-27.937999725341797,-0.6280000209808348,-6.560999870300293,7.844999790191651
1622102981699,21.489999771118164,26.4950008392334,-30.93899917602539,-0.5490000247955322,-6.859000205993652,7.952000141143799
1622102981709,21.06999969482422,30.257999420166016,-32.124000549316406,-0.3919999897480011,-7.182000160217285,7.974999904632568
1622102981719,19.25,33.72100067138672,-32.01100158691406,-0.3140000104904174,-7.35699987411499,8.062999725341797
1622102981729,15.81999969482422,36.39300155639648,-31.04199981689453,-0.3919999897480011,-7.4089999198913565,8.133999824523926
1622102981739,12.109999656677246,38.44100189208984,-29.756999969482425,-0.3529999852180481,-7.5,8.196999549865723
1622102981749,8.960000038146973,39.766998291015625,-28.812000274658203,-0.4309999942779541,-7.744999885559082,8.234000205993652
1622102981759,6.090000152587891,40.49300003051758,-27.68899917602539,-0.5879999995231628,-7.868000030517577,8.251999855041504
1622102981769,3.2899999618530273,41.097999572753906,-27.084999084472656,-0.7450000047683715,-8.022000312805176,8.225000381469727
1622102981779,1.9600000381469729,41.34099960327149,-27.2549991607666,-0.8240000009536743,-8.20199966430664,8.11299991607666
1622102981789,1.4700000286102295,41.957000732421875,-29.136999130249023,-1.0980000495910645,-8.156999588012695,8.081999778747559
1622102981799,1.3300000429153442,43.23400115966797,-32.75,-1.2940000295639038,-7.873000144958496,8.052000045776367
1622102981809,0.9800000190734864,45.42300033569336,-37.90800094604492,-1.3730000257492063,-7.394999980926514,8.055999755859375
1622102981819,2.940000057220459,48.00899887084961,-41.29100036621094,-1.4119999408721924,-6.984000205993652,8.208999633789062
1622102981829,6.230000019073486,50.694000244140625,-41.5989990234375,-1.569000005722046,-6.565999984741211,8.321999549865723
1622102981839,9.449999809265137,53.4630012512207,-41.18199920654297,-1.72599995136261,-6.238999843597412,8.49899959564209
1622102981849,11.550000190734863,55.4630012512207,-40.82899856567382,-1.7649999856948853,-6.039000034332275,8.494999885559082
1622102981859,12.460000038146973,57.145999908447266,-38.68399810791016,-2.000999927520752,-5.7769999504089355,8.819999694824219
1622102981869,11.829999923706056,58.20000076293945,-35.797000885009766,-2.1570000648498535,-5.73199987411499,8.788000106811523
1622102981879,10.149999618530272,58.45600128173828,-33.619998931884766,-2.2750000953674316,-5.73199987411499,8.788000106811523
1622102981889,7.769999980926514,57.96200180053711,-32.428001403808594,-2.3929998874664307,-5.724999904632568,8.74899959564209
1622102981899,4.619999885559082,56.84199905395508,-32.12699890136719,-2.510999917984009,-5.697999954223633,8.595000267028809
1622102981909,0.1400000005960464,55.79600143432618,-33.44900131225586,-2.549999952316284,-5.625,8.407999992370605
1622102981919,-3.6400001049041744,55.36199951171875,-36.22700119018555,-2.549999952316284,-5.5269999504089355,8.305999755859375
1622102981929,-4.829999923706055,54.90349960327149,-37.65850067138672,-2.549999952316284,-5.383999824523926,8.17199993133545
1622102981939,-6.019999980926514,54.44499969482422,-39.09000015258789,-2.549999952316284,-5.339000225067139,8.140000343322754
1622102981949,-6.159999847412109,53.694000244140625,-41.28300094604492,-2.510999917984009,-5.300000190734863,8.147000312805176
1622102981959,-4.690000057220459,52.79399871826172,-42.2239990234375,-2.510999917984009,-5.255000114440918,8.114999771118164
1622102981969,-2.380000114440918,51.62200164794922,-42.430999755859375,-2.510999917984009,-5.28000020980835,8.031000137329102
1622102981979,-0.4900000095367431,50.551998138427734,-42.40599822998047,-2.4709999561309814,-5.28000020980835,8.031000137329102
1622102981989,1.1200000047683716,49.303001403808594,-41.77299880981445,-2.510999917984009,-5.395999908447266,8.01099967956543
1622102981999,2.0999999046325684,48.43899917602539,-41.71200180053711,-2.4709999561309814,-5.589000225067139,7.9770002365112305
1622102982009,2.240000009536743,48.03799819946289,-41.854000091552734,-2.431999921798706,-5.821000099182129,7.935999870300293
1622102982019,0.6299999952316284,47.21900177001953,-41.64300155639648,-2.431999921798706,-5.876999855041504,7.806000232696533
1622102982029,-2.0999999046325684,46.62300109863281,-40.68199920654297,-2.313999891281128,-5.915999889373779,7.798999786376954
1622102982039,-4.900000095367432,46.03900146484375,-39.790000915527344,-2.236000061035156,-5.980000019073486,7.709000110626221
1622102982049,-8.1899995803833,44.99300003051758,-38.69499969482422,-2.1570000648498535,-6.043000221252441,7.618000030517577
1622102982059,-10.779999732971191,44.02799987792969,-37.65700149536133,-2.0789999961853027,-6.0929999351501465,7.449999809265136
1622102982069,-13.4399995803833,43.37099838256836,-36.35100173950195,-2.000999927520752,-6.079999923706055,7.372000217437744
1622102982079,-16.100000381469727,43.17300033569336,-36.03099822998047,-1.9220000505447388,-6.020999908447266,7.263000011444091
1622102982089,-19.11000061035156,43.444000244140625,-35.555999755859375,-1.843999981880188,-6.0320000648498535,7.1020002365112305
1622102982099,-21.559999465942383,42.79600143432618,-33.89400100708008,-1.7649999856948853,-6.133999824523926,7.004000186920166
1622102982109,-23.520000457763672,42.249000549316406,-32.0,-1.6480000019073486,-6.177999973297119,6.796999931335449
1622102982119,-25.059999465942383,41.52299880981445,-29.49799919128418,-1.6080000400543213,-6.304999828338623,6.616000175476074
1622102982129,-26.11000061035156,40.854000091552734,-26.915000915527344,-1.569000005722046,-6.425000190734863,6.394999980926514
1622102982139,-26.459999084472656,39.54499816894531,-24.729000091552734,-1.6080000400543213,-6.552999973297119,6.2129998207092285
1622102982149,-26.31999969482422,38.15800094604492,-22.91200065612793,-1.6480000019073486,-6.616000175476074,6.123000144958496
1622102982159,-26.040000915527344,36.54899978637695,-20.636999130249023,-1.6480000019073486,-6.640999794006348,6.039000034332275
1622102982169,-25.479999542236328,35.3489990234375,-19.070999145507812,-1.6480000019073486,-6.5960001945495605,6.006999969482422
1622102982179,-24.149999618530273,33.80400085449219,-17.566999435424805,-1.6480000019073486,-6.550000190734863,5.974999904632568
1622102982189,-23.520000457763672,32.46200180053711,-15.600000381469728,-1.6480000019073486,-6.633999824523926,6.0
1622102982199,-23.030000686645508,30.804000854492188,-14.258000373840332,-1.6480000019073486,-6.756999969482422,6.01800012588501
1622102982209,-23.030000686645508,29.83700180053711,-13.611000061035156,-1.6480000019073486,-6.841000080108643,6.043000221252441
1622102982219,-23.030000686645508,28.8700008392334,-12.96399974822998,-1.687000036239624,-6.918000221252441,6.0289998054504395
1622102982229,-22.75,26.781999588012695,-11.199999809265137,-1.72599995136261,-6.995999813079834,6.015999794006348
1622102982239,-22.959999084472656,24.218999862670895,-7.954999923706055,-1.72599995136261,-7.072999954223633,6.001999855041504
1622102982249,-23.309999465942383,21.503000259399418,-4.239999771118164,-1.8040000200271609,-7.196000099182129,6.019999980926514
1622102982259,-24.149999618530273,18.27199935913086,-0.8299999833106994,-1.9220000505447388,-7.234000205993653,6.013999938964844
1622102982269,-25.760000228881836,14.850000381469728,3.2579998970031734,-2.0399999618530273,-7.280000209808349,6.045000076293945
1622102982279,-28.350000381469727,11.866000175476074,7.281000137329101,-2.118000030517578,-7.33900022506714,6.15500020980835
1622102982289,-30.940000534057617,9.546999931335447,10.354999542236328,-2.236000061035156,-7.293000221252441,6.123000144958496
1622102982299,-34.29999923706055,7.677999973297118,12.086999893188477,-2.313999891281128,-7.2160000801086435,6.136000156402588
1622102982309,-37.52000045776367,6.2829999923706055,13.546999931335447,-2.2750000953674316,-7.138999938964844,6.150000095367432
1622102982319,-40.38999938964844,5.124000072479248,15.687999725341797,-2.313999891281128,-7.138999938964844,6.150000095367432
1622102982329,-43.04999923706055,4.223999977111816,17.163999557495117,-2.3540000915527344,-7.177000045776367,6.14300012588501
1622102982339,-45.63999938964844,3.924000024795532,18.461999893188477,-2.3540000915527344,-7.2870001792907715,6.084000110626221
1622102982349,-47.459999084472656,4.2769999504089355,20.08799934387207,-2.2750000953674316,-7.550000190734864,5.998000144958496
1622102982359,-47.31999969482422,4.414999961853027,22.52899932861328,-2.313999891281128,-8.006999969482422,5.876999855041504
1622102982369,-47.11000061035156,2.9110000133514404,25.81800079345703,-2.2750000953674316,-8.361000061035156,5.855000019073486
1622102982379,-47.25,0.8069999814033508,29.28499984741211,-2.197000026702881,-8.54800033569336,5.7820000648498535
1622102982389,-46.900001525878906,-2.2260000705718994,33.58399963378906,-2.1570000648498535,-8.579999923706055,5.736999988555908
1622102982399,-46.619998931884766,-5.922999858856201,37.62300109863281,-2.1570000648498535,-8.432000160217285,5.802000045776367
1622102982409,-48.02000045776367,-9.357000350952148,39.362998962402344,-2.236000061035156,-8.21399974822998,5.921000003814697
1622102982419,-49.84000015258789,-11.708999633789064,38.59299850463867,-2.3540000915527344,-7.918000221252441,6.052000045776367
1622102982429,-50.68000030517578,-13.409000396728516,35.73400115966797,-2.4709999561309814,-7.724999904632568,6.085999965667725
1622102982439,-51.029998779296875,-13.961000442504885,30.804000854492188,-2.549999952316284,-7.738999843597413,6.164000034332275
1622102982449,-52.220001220703125,-13.30500030517578,25.87299919128418,-2.5889999866485596,-7.809000015258789,6.111000061035156
1622102982459,-53.130001068115234,-11.821000099182127,21.08799934387207,-2.7070000171661377,-7.848000049591064,6.105000019073486
1622102982469,-53.62000274658203,-10.63949966430664,18.417499542236328,-2.746000051498413,-7.91099977493286,6.013999938964844
1622102982479,-54.11000061035156,-9.458000183105469,15.746999740600586,-2.8239998817443848,-8.090999603271484,5.9019999504089355
1622102982489,-55.86000061035156,-6.72599983215332,9.121000289916992,-2.864000082015991,-8.302000045776367,5.745999813079834
1622102982499,-57.81999969482422,-2.364000082015991,2.924000024795532,-2.8239998817443848,-8.359000205993652,5.616000175476074
1622102982509,-59.56999969482422,0.8109999895095825,-2.984999895095825,-2.7070000171661377,-8.395999908447266,5.370999813079834
1622102982519,-60.47999954223633,3.688999891281128,-8.020999908447266,-2.549999952316284,-8.315999984741211,5.145999908447266
1622102982529,-59.709999084472656,6.328000068664551,-10.897000312805176,-2.431999921798706,-8.133999824523926,5.01800012588501
1622102982539,-57.33000183105469,8.598999977111816,-12.487000465393066,-2.2750000953674316,-7.875,4.90500020980835
1622102982549,-53.34000015258789,10.840999603271484,-14.720999717712402,-2.1570000648498535,-7.605000019073486,4.952000141143799
1622102982559,-47.95000076293945,12.93299961090088,-16.910999298095703,-2.000999927520752,-7.422999858856201,4.824999809265137
1622102982569,-42.349998474121094,15.065999984741213,-18.524999618530273,-1.8830000162124632,-7.4089999198913565,4.748000144958496
1622102982579,-36.959999084472656,16.655000686645508,-19.8799991607666,-1.72599995136261,-7.519000053405762,4.689000129699707
1622102982589,-32.47999954223633,18.427000045776367,-21.059999465942383,-1.6480000019073486,-7.697999954223632,4.578000068664551
1622102982599,-28.979999542236328,19.86199951171875,-21.944000244140625,-1.569000005722046,-7.807000160217285,4.51800012588501
1622102982609,-25.6200008392334,20.76300048828125,-22.211999893188477,-1.4509999752044678,-7.967999935150147,4.53000020980835
1622102982619,-23.239999771118164,21.836999893188477,-21.45400047302246,-1.3730000257492063,-8.031999588012695,4.439000129699707
1622102982629,-20.299999237060547,21.76799964904785,-20.257999420166016,-1.2940000295639038,-8.024999618530273,4.400000095367432
1622102982639,-17.43000030517578,21.257999420166016,-18.570999145507812,-1.215999960899353,-8.095999717712402,4.3480000495910645
1622102982649,-14.770000457763672,20.32900047302246,-16.5310001373291,-1.1770000457763672,-8.237000465393066,4.24399995803833
1622102982659,-12.8100004196167,19.53499984741211,-15.24899959564209,-1.215999960899353,-8.390999794006348,4.216000080108643
1622102982669,-11.550000190734863,18.43600082397461,-14.66100025177002,-1.2940000295639038,-8.531999588012695,4.111999988555908
1622102982679,-11.479999542236328,17.94499969482422,-15.102999687194824,-1.3339999914169312,-8.687000274658203,4.085000038146973
1622102982689,-12.670000076293944,17.774999618530273,-15.347000122070312,-1.4509999752044678,-8.82699966430664,3.9800000190734863
1622102982699,-13.649999618530272,17.764999389648438,-15.49049949645996,-1.491000056266785,-8.904999732971191,3.9660000801086426
1622102982709,-14.630000114440918,17.7549991607666,-15.633999824523926,-1.491000056266785,-9.020999908447264,3.946000099182129
1622102982719,-16.59000015258789,17.871999740600586,-15.89799976348877,-1.491000056266785,-8.968000411987305,3.875999927520752
1622102982729,-18.059999465942383,17.68199920654297,-16.429000854492188,-1.491000056266785,-8.83899974822998,3.8190000057220455
1622102982739,-19.25,17.8799991607666,-16.75,-1.491000056266785,-8.779999732971191,3.7100000381469727
1622102982749,-19.040000915527344,17.722000122070312,-17.062000274658203,-1.491000056266785,-8.682000160217285,3.60700011253357
1622102982759,-18.270000457763672,18.062999725341797,-17.784000396728516,-1.5299999713897705,-8.553000450134277,3.5510001182556152
1622102982769,-16.940000534057617,18.464000701904297,-18.850000381469727,-1.569000005722046,-8.5,3.4800000190734863
1622102982779,-16.3799991607666,19.01099967956543,-19.535999298095703,-1.6480000019073486,-8.524999618530273,3.3959999084472656
1622102982789,-15.75,20.03700065612793,-20.917999267578125,-1.687000036239624,-8.595999717712402,3.3440001010894775
1622102982799,-15.470000267028809,20.78700065612793,-22.350000381469727,-1.687000036239624,-8.58899974822998,3.305000066757202
1622102982809,-15.539999961853027,22.38400077819824,-23.347999572753903,-1.72599995136261,-8.543999671936035,3.2730000019073486
1622102982819,-14.909999847412108,23.729999542236328,-24.531999588012695,-1.72599995136261,-8.465999603271484,3.2869999408721924
1622102982829,-13.93000030517578,24.763999938964844,-25.558000564575195,-1.687000036239624,-8.381999969482422,3.26200008392334
1622102982839,-12.529999732971191,26.174999237060547,-26.304000854492188,-1.6480000019073486,-8.343999862670898,3.2690000534057617
1622102982849,-11.199999809265137,26.989999771118164,-27.29800033569336,-1.6080000400543213,-8.27299976348877,3.321000099182129
1622102982859,-10.079999923706056,27.736000061035156,-28.304000854492188,-1.6080000400543213,-8.27299976348877,3.321000099182129
1622102982869,-9.239999771118164,28.364999771118164,-29.04599952697754,-1.569000005722046,-8.27299976348877,3.321000099182129
1622102982879,-8.680000305175781,29.750999450683594,-29.65399932861328,-1.569000005722046,-8.286999702453613,3.3980000019073486
1622102982889,-8.329999923706055,31.11000061035156,-30.906999588012695,-1.5299999713897705,-8.222999572753906,3.489000082015991
1622102982899,-7.734999656677246,32.072998046875,-31.732498168945312,-1.569000005722046,-8.222999572753906,3.489000082015991
1622102982909,-7.139999866485596,33.0359992980957,-32.55799865722656,-1.569000005722046,-8.244000434875488,3.6050000190734863
1622102982919,-5.739999771118164,35.17599868774414,-33.814998626708984,-1.6480000019073486,-8.373000144958496,3.661999940872192
1622102982929,-4.619999885559082,37.30899810791016,-35.43000030517578,-1.6080000400543213,-8.503000259399414,3.7190001010894775
1622102982939,-3.7799999713897705,39.65700149536133,-36.650001525878906,-1.6080000400543213,-8.631999969482422,3.776000022888184
1622102982949,-3.569999933242798,42.32500076293945,-37.67300033569336,-1.6080000400543213,-8.947999954223633,3.759999990463257
1622102982959,-4.130000114440918,45.097999572753906,-38.88999938964844,-1.569000005722046,-9.123000144958496,3.848000049591065
1622102982969,-5.670000076293945,47.75,-39.41699981689453,-1.5299999713897705,-9.906999588012695,3.5510001182556152
1622102982979,-5.670000076293945,50.154998779296875,-39.3489990234375,-1.5299999713897705,-10.711000442504885,3.36899995803833
1622102982989,-6.789999961853027,52.499000549316406,-38.935001373291016,-1.491000056266785,-10.75,3.361999988555908
1622102982999,-9.029999732971191,53.32600021362305,-41.20600128173828,-1.4119999408721924,-10.45199966430664,3.255000114440918
1622102983009,-10.850000381469728,54.196998596191406,-43.32699966430664,-1.1770000457763672,-10.065999984741213,3.3239998817443848
1622102983018,-13.510000228881836,56.006000518798835,-42.297000885009766,-1.0980000495910645,-9.75699996948242,3.378000020980835
1622102983028,-14.979999542236328,56.79199981689453,-41.51900100708008,-1.0590000152587893,-9.371000289916992,3.446000099182129
1622102983038,-15.81999969482422,56.310001373291016,-42.8120002746582,-0.981000006198883,-9.20199966430664,3.3959999084472656
1622102983048,-15.539999961853027,55.55099868774414,-42.94599914550781,-0.9020000100135804,-9.272999763488768,3.3440001010894775
1622102983058,-15.399999618530272,54.05899810791016,-40.935001373291016,-0.9020000100135804,-9.375,3.246000051498413
1622102983068,-15.260000228881836,51.6150016784668,-37.95399856567382,-0.9020000100135804,-9.432000160217283,3.1170001029968266
1622102983078,-15.329999923706056,48.89799880981445,-35.446998596191406,-0.9020000100135804,-9.572999954223633,3.01200008392334
1622102983088,-16.520000457763672,45.702999114990234,-32.24399948120117,-0.981000006198883,-9.590999603271484,2.888999938964844
1622102983098,-17.290000915527344,42.99100112915039,-30.163000106811523,-1.0980000495910645,-9.524999618530272,2.7420001029968266
1622102983108,-17.46500015258789,42.05249786376953,-29.475500106811523,-1.1770000457763672,-9.42099952697754,2.6010000705718994
1622102983118,-17.639999389648438,41.11399841308594,-28.788000106811523,-1.2940000295639038,-9.315999984741213,2.4600000381469727
1622102983128,-18.059999465942383,38.96900177001953,-28.312999725341797,-1.3730000257492063,-9.211999893188477,2.319000005722046
1622102983138,-17.920000076293945,37.40700149536133,-28.731000900268555,-1.4119999408721924,-9.036999702453612,2.2300000190734863
1622102983148,-16.940000534057617,36.2599983215332,-29.075000762939453,-1.569000005722046,-8.906999588012695,2.174000024795532
1622102983158,-16.3799991607666,35.29899978637695,-29.67099952697754,-1.569000005722046,-8.732000350952148,2.0850000381469727
1622102983168,-14.979999542236328,34.512001037597656,-30.450000762939453,-1.5299999713897705,-8.635000228881836,1.9830000400543213
1622102983178,-12.880000114440918,33.7130012512207,-29.951000213623047,-1.569000005722046,-8.581999778747559,1.9119999408721924
1622102983188,-10.43000030517578,33.43299865722656,-29.573999404907227,-1.6480000019073486,-8.529999732971191,1.8420000076293943
1622102983198,-7.349999904632568,33.1619987487793,-28.84000015258789,-1.6480000019073486,-8.406999588012695,1.8240000009536743
1622102983208,-3.5,33.27899932861328,-27.895000457763672,-1.72599995136261,-8.37600040435791,1.86899995803833
1622102983218,0.0,32.70000076293945,-26.219999313354492,-1.8040000200271609,-8.381999969482422,1.9079999923706057
1622102983228,1.9600000381469729,33.02000045776367,-24.812999725341797,-1.8830000162124632,-8.4350004196167,1.9780000448226929
1622102983238,3.9200000762939458,33.64500045776367,-22.71299934387207,-1.9609999656677248,-8.57800006866455,2.111999988555908
1622102983248,5.25,34.095001220703125,-21.63800048828125,-2.000999927520752,-8.668999671936035,2.1760001182556152
1622102983258,6.300000190734863,34.51300048828125,-20.78300094604492,-2.000999927520752,-8.720999717712402,2.246000051498413
1622102983268,7.630000114440918,34.849998474121094,-19.8700008392334,-1.8830000162124632,-8.819000244140625,2.3489999771118164
1622102983278,8.399999618530273,35.178001403808594,-19.315000534057617,-1.9220000505447388,-8.940999984741211,2.3670001029968266
1622102983288,8.399999618530273,35.680999755859375,-18.941999435424805,-1.9220000505447388,-9.050000190734863,2.308000087738037
1622102983298,8.1899995803833,35.762001037597656,-18.999000549316406,-1.8830000162124632,-9.187000274658203,2.4030001163482666
1622102983308,8.049999237060547,35.808998107910156,-19.061500549316406,-1.843999981880188,-9.29599952697754,2.3440001010894775
1622102983318,7.9099998474121085,35.85599899291992,-19.124000549316406,-1.843999981880188,-9.303000450134276,2.3829998970031734
1622102983328,7.210000038146973,34.9640007019043,-18.5,-1.7649999856948853,-9.29599952697754,2.3440001010894775
1622102983338,6.650000095367432,34.24599838256836,-18.058000564575195,-1.687000036239624,-9.25,2.312000036239624
1622102983348,6.789999961853027,33.01300048828125,-17.920000076293945,-1.6480000019073486,-9.166000366210936,2.2869999408721924
1622102983358,7.630000114440918,31.739999771118164,-17.14900016784668,-1.6080000400543213,-9.133999824523924,2.3329999446868896
1622102983368,8.050000190734863,30.288999557495117,-15.770000457763672,-1.6080000400543213,-9.012000083923342,2.313999891281128
1622102983378,8.890000343322754,28.663000106811523,-15.416999816894531,-1.6080000400543213,-8.909000396728516,2.4119999408721924
1622102983388,11.0600004196167,27.093000411987305,-14.982999801635742,-1.569000005722046,-8.878000259399414,2.4579999446868896
1622102983398,13.369999885559082,25.402000427246097,-15.067999839782717,-1.5299999713897705,-8.807000160217285,2.509999990463257
1622102983408,14.979999542236328,23.59000015258789,-14.463000297546388,-1.491000056266785,-8.904999732971191,2.611999988555908
1622102983418,16.170000076293945,22.11400032043457,-14.154999732971191,-1.491000056266785,-8.949999809265137,2.6440000534057617
1622102983428,17.010000228881836,20.784000396728516,-14.673999786376951,-1.491000056266785,-8.98900032043457,2.63700008392334
1622102983438,16.729999542236328,19.733999252319336,-14.361000061035156,-1.4509999752044678,-9.041000366210936,2.7079999446868896
1622102983448,16.170000076293945,18.94300079345703,-13.505999565124512,-1.4509999752044678,-9.138999938964846,2.809999942779541
1622102983458,15.960000038146973,17.885000228881836,-12.342000007629396,-1.3339999914169312,-9.274999618530272,2.9049999713897705
1622102983468,16.59000015258789,16.677000045776367,-11.133000373840332,-1.2940000295639038,-9.66800022125244,2.875999927520752
1622102983478,16.239999771118164,14.710000038146973,-10.05799961090088,-1.3339999914169312,-9.746000289916992,2.861999988555908
1622102983488,16.170000076293945,12.975000381469728,-9.085000038146973,-1.2940000295639038,-9.43000030517578,2.878000020980835
