timestamp,gyro_x,gyro_y,gyro_z,acc_x,acc_y,acc_z
1621932287165,0.0,0.0,0.0,0.0,0.0,0.0
1621932287174,0.1400000005960464,3.924000024795532,-6.131999969482422,-0.6280000209808348,-9.803000450134276,-0.652999997138977
1621932287184,-0.0700000002980232,4.261000156402588,-6.427999973297119,-0.6669999957084655,-9.763999938964846,-0.6460000276565551
1621932287194,-0.209999993443489,4.295499801635742,-6.421999931335449,-0.6669999957084655,-9.72599983215332,-0.6389999985694885
1621932287204,-0.3499999940395355,4.329999923706055,-6.415999889373779,-0.6280000209808348,-9.687000274658203,-0.6330000162124633
1621932287214,-0.5600000023841857,4.760000228881836,-6.836999893188477,-0.6280000209808348,-9.687000274658203,-0.6330000162124633
1621932287224,-0.8399999737739563,4.828999996185303,-6.824999809265137,-0.6280000209808348,-9.72599983215332,-0.6389999985694885
1621932287234,-0.7699999809265136,5.13700008392334,-6.558000087738037,-0.5879999995231628,-9.718999862670898,-0.6779999732971191
1621932287244,-0.8399999737739563,5.275000095367432,-6.5329999923706055,-0.5879999995231628,-9.763999938964846,-0.6460000276565551
1621932287254,-1.0499999523162842,5.550000190734863,-6.485000133514404,-0.5879999995231628,-9.718999862670898,-0.6779999732971191
1621932287264,-0.9800000190734864,5.49399995803833,-6.565999984741211,-0.6280000209808348,-9.718999862670898,-0.6779999732971191
1621932287274,-0.9100000262260436,5.526000022888184,-6.3470001220703125,-0.5879999995231628,-9.718999862670898,-0.6779999732971191
1621932287284,-0.699999988079071,5.60699987411499,-6.4039998054504395,-0.5879999995231628,-9.687000274658203,-0.6330000162124633
1621932287294,-0.4900000095367431,5.079999923706055,-6.638999938964844,-0.5099999904632568,-9.687000274658203,-0.6330000162124633
1621932287304,-0.2800000011920929,5.197999954223633,-6.9019999504089355,-0.4709999859333038,-9.654999732971191,-0.5870000123977661
1621932287314,-0.4900000095367431,4.96999979019165,-7.2270002365112305,-0.5099999904632568,-9.687000274658203,-0.6330000162124633
1621932287324,-0.3499999940395355,4.374000072479248,-7.473999977111816,-0.5490000247955322,-9.72599983215332,-0.6389999985694885
1621932287334,-0.209999993443489,4.386000156402588,-7.543000221252441,-0.5490000247955322,-9.687000274658203,-0.6330000162124633
1621932287344,-0.5600000023841857,4.419000148773193,-7.323999881744384,-0.5879999995231628,-9.687000274658203,-0.6330000162124633
1621932287354,-0.1400000005960464,4.304999828338623,-7.486000061035157,-0.5879999995231628,-9.694000244140623,-0.5939999818801879
1621932287364,-0.0700000002980232,4.166999816894531,-7.510000228881835,-0.5879999995231628,-9.694000244140623,-0.5939999818801879
1621932287374,0.209999993443489,4.464000225067139,-7.173999786376953,-0.5490000247955322,-9.687000274658203,-0.6330000162124633
1621932287384,0.3499999940395355,4.519999980926514,-7.0929999351501465,-0.5490000247955322,-9.68000030517578,-0.6710000038146972
1621932287394,0.4199999868869781,4.695000171661377,-7.275000095367432,-0.5879999995231628,-9.68000030517578,-0.6710000038146972
1621932287404,0.3849999904632568,4.644000053405762,-7.390500068664551,-0.5879999995231628,-9.687000274658203,-0.6330000162124633
1621932287414,0.3499999940395355,4.5929999351501465,-7.506000041961671,-0.5490000247955322,-9.687000274658203,-0.6330000162124633
1621932287424,0.3499999940395355,4.650000095367432,-7.425000190734864,-0.5879999995231628,-9.694000244140623,-0.5939999818801879
1621932287434,0.3499999940395355,4.683000087738037,-7.205999851226807,-0.5490000247955322,-9.718999862670898,-0.6779999732971191
1621932287444,0.209999993443489,4.21999979019165,-7.004000186920166,-0.5490000247955322,-9.718999862670898,-0.6779999732971191
1621932287454,0.209999993443489,4.301000118255615,-7.059999942779541,-0.5879999995231628,-9.701000213623049,-0.5550000071525573
1621932287464,0.2800000011920929,4.196000099182129,-6.866000175476074,-0.5879999995231628,-9.73900032043457,-0.5619999766349792
1621932287474,-0.2800000011920929,4.4029998779296875,-6.828999996185303,-0.6280000209808348,-9.770999908447264,-0.6079999804496765
1621932287484,-0.3499999940395355,4.114999771118164,-6.809000015258789,-0.5879999995231628,-9.770999908447264,-0.6079999804496765
1621932287494,-0.7699999809265136,4.026000022888184,-7.109000205993652,-0.5879999995231628,-9.770999908447264,-0.6079999804496765
1621932287504,-1.190000057220459,4.050000190734863,-7.247000217437744,-0.6280000209808348,-9.770999908447264,-0.6079999804496765
1621932287514,-1.4700000286102295,4.09499979019165,-7.0970001220703125,-0.5879999995231628,-9.8100004196167,-0.6140000224113464
1621932287524,-1.190000057220459,4.2769999504089355,-6.921999931335449,-0.6280000209808348,-9.763999938964846,-0.6460000276565551
1621932287534,-1.190000057220459,4.5279998779296875,-6.736000061035156,-0.5879999995231628,-9.718999862670898,-0.6779999732971191
1621932287544,-1.6100000143051147,4.876999855041504,-7.10099983215332,-0.6280000209808348,-9.718999862670898,-0.6779999732971191
1621932287554,-1.75,5.006999969482422,-7.433000087738037,-0.5879999995231628,-9.758000373840332,-0.6850000023841857
1621932287564,-2.0999999046325684,4.771999835968018,-6.906000137329102,-0.5490000247955322,-9.758000373840332,-0.6850000023841857
1621932287574,-1.9600000381469729,5.0229997634887695,-6.71999979019165,-0.5490000247955322,-9.718999862670898,-0.6779999732971191
1621932287584,-1.4700000286102295,4.974999904632568,-6.443999767303467,-0.5490000247955322,-9.687000274658203,-0.6330000162124633
1621932287594,-1.3300000429153442,4.75600004196167,-6.4120001792907715,-0.4709999859333038,-9.701000213623049,-0.5550000071525573
1621932287604,-1.2599999904632568,4.610000133514404,-6.189000129699707,-0.5099999904632568,-9.687000274658203,-0.6330000162124633
1621932287614,-1.190000057220459,4.464000225067139,-5.966000080108643,-0.5099999904632568,-9.70699977874756,-0.5170000195503234
1621932287624,-1.1200000047683716,3.9849998950958256,-6.47599983215332,-0.5490000247955322,-9.694000244140623,-0.5939999818801879
1621932287634,-0.9100000262260436,4.013000011444092,-7.039999961853027,-0.5490000247955322,-9.694000244140623,-0.5939999818801879
1621932287644,-0.9800000190734864,4.017000198364258,-7.4660000801086435,-0.5490000247955322,-9.694000244140623,-0.5939999818801879
1621932287654,-1.0499999523162842,3.7300000190734863,-7.445000171661377,-0.5879999995231628,-9.654999732971191,-0.5870000123977661
1621932287664,-0.6299999952316284,3.75,-7.1579999923706055,-0.5879999995231628,-9.647999763488768,-0.6259999871253967
1621932287674,-0.6299999952316284,3.7260000705718994,-7.019999980926514,-0.6280000209808348,-9.687000274658203,-0.6330000162124633
1621932287684,-0.6299999952316284,4.138999938964844,-6.947000026702881,-0.5879999995231628,-9.711999893188477,-0.7170000076293945
1621932287694,-0.4199999868869781,4.439000129699707,-7.035999774932861,-0.5879999995231628,-9.67300033569336,-0.7099999785423278
1621932287704,0.0,4.788000106811523,-7.401000022888184,-0.5879999995231628,-9.67300033569336,-0.7099999785423278
1621932287714,0.0,4.918000221252441,-7.734000205993653,-0.5490000247955322,-9.68000030517578,-0.6710000038146972
1621932287724,0.4199999868869781,4.938000202178955,-7.44600009918213,-0.5099999904632568,-9.718999862670898,-0.6779999732971191
1621932287734,0.5600000023841857,4.89300012588501,-7.59600019454956,-0.5099999904632568,-9.718999862670898,-0.6779999732971191
1621932287744,0.5600000023841857,4.605000019073486,-7.574999809265136,-0.5099999904632568,-9.701000213623049,-0.5550000071525573
1621932287754,0.6299999952316284,4.304999828338623,-7.486000061035157,-0.5099999904632568,-9.73900032043457,-0.5619999766349792
1621932287764,0.699999988079071,4.394999980926514,-7.185999870300293,-0.5099999904632568,-9.732000350952148,-0.6010000109672546
1621932287774,0.6299999952316284,4.017000198364258,-7.4660000801086435,-0.5490000247955322,-9.770999908447264,-0.6079999804496765
1621932287784,0.699999988079071,3.697000026702881,-7.664000034332275,-0.5490000247955322,-9.770999908447264,-0.6079999804496765
1621932287794,0.4900000095367431,3.7420001029968266,-7.513999938964843,-0.5490000247955322,-9.770999908447264,-0.6079999804496765
1621932287804,0.0,4.038000106811523,-7.177999973297119,-0.5879999995231628,-9.732000350952148,-0.6010000109672546
1621932287814,-0.0700000002980232,4.1554999351501465,-6.837500095367432,-0.5879999995231628,-9.732000350952148,-0.6010000109672546
1621932287824,-0.1400000005960464,4.2729997634887695,-6.497000217437744,-0.5490000247955322,-9.732000350952148,-0.6010000109672546
1621932287834,-0.0700000002980232,4.434999942779541,-6.610000133514404,-0.5099999904632568,-9.701000213623049,-0.5550000071525573
1621932287844,0.0,4.683000087738037,-5.998000144958496,-0.5490000247955322,-9.694000244140623,-0.5939999818801879
1621932287854,0.2800000011920929,4.6020002365112305,-5.940999984741211,-0.5879999995231628,-9.694000244140623,-0.5939999818801879
1621932287864,0.6299999952316284,4.431000232696533,-6.184000015258789,-0.5490000247955322,-9.72599983215332,-0.6389999985694885
1621932287874,0.209999993443489,4.630000114440918,-6.505000114440918,-0.5490000247955322,-9.73900032043457,-0.5619999766349792
1621932287884,0.209999993443489,4.447000026702881,-6.678999900817871,-0.5490000247955322,-9.687000274658203,-0.6330000162124633
1621932287894,-0.0700000002980232,4.4029998779296875,-6.828999996185303,-0.5099999904632568,-9.694000244140623,-0.5939999818801879
1621932287904,-0.3499999940395355,4.14300012588501,-6.164000034332275,-0.5490000247955322,-9.732000350952148,-0.6010000109672546
1621932287914,-0.5600000023841857,4.216000080108643,-6.578000068664551,-0.5879999995231628,-9.732000350952148,-0.6010000109672546
1621932287924,-0.6299999952316284,4.241000175476074,-6.716000080108643,-0.5879999995231628,-9.72599983215332,-0.6389999985694885
1621932287934,-0.5600000023841857,4.196000099182129,-6.866000175476074,-0.6280000209808348,-9.687000274658203,-0.6330000162124633
1621932287944,-0.6299999952316284,4.484000205993652,-6.886000156402588,-0.6669999957084655,-9.694000244140623,-0.5939999818801879
1621932287954,-0.699999988079071,4.934000015258789,-7.019999980926514,-0.6280000209808348,-9.72599983215332,-0.6389999985694885
1621932287964,-0.6299999952316284,5.197999954223633,-6.9019999504089355,-0.5879999995231628,-9.694000244140623,-0.5939999818801879
1621932287974,-0.5600000023841857,5.230000019073486,-6.683000087738037,-0.5490000247955322,-9.732000350952148,-0.6010000109672546
1621932287984,-0.5600000023841857,5.011000156402588,-6.651000022888184,-0.5490000247955322,-9.72599983215332,-0.6389999985694885
1621932287994,-0.9100000262260436,4.828999996185303,-6.824999809265137,-0.5879999995231628,-9.72599983215332,-0.6389999985694885
1621932288004,-0.9800000190734864,4.824999809265137,-6.39900016784668,-0.5879999995231628,-9.718999862670898,-0.6779999732971191
1621932288014,-0.4900000095367431,4.703000068664551,-6.918000221252441,-0.5879999995231628,-9.718999862670898,-0.6779999732971191
1621932288024,-0.5600000023841857,4.520500183105469,-7.09250020980835,-0.5490000247955322,-9.687000274658203,-0.6330000162124633
1621932288034,-0.6299999952316284,4.3379998207092285,-7.267000198364258,-0.5490000247955322,-9.68000030517578,-0.6710000038146972
1621932288044,-0.5600000023841857,4.163000106811523,-7.085000038146973,-0.5879999995231628,-9.746000289916992,-0.5239999890327453
1621932288054,-0.4900000095367431,4.314000129699707,-7.129000186920166,-0.5879999995231628,-9.732000350952148,-0.6010000109672546
1621932288064,-0.4900000095367431,4.033999919891357,-6.751999855041504,-0.5879999995231628,-9.72599983215332,-0.6389999985694885
1621932288074,-0.3499999940395355,3.8959999084472656,-6.776000022888184,-0.6280000209808348,-9.687000274658203,-0.6330000162124633
1621932288084,0.0700000002980232,3.575999975204468,-6.974999904632568,-0.6280000209808348,-9.68000030517578,-0.6710000038146972
1621932288094,0.0700000002980232,4.046000003814697,-6.821000099182129,-0.6280000209808348,-9.68000030517578,-0.6710000038146972
1621932288104,-0.0700000002980232,4.322000026702881,-6.771999835968018,-0.6280000209808348,-9.68000030517578,-0.6710000038146972
1621932288114,0.0700000002980232,4.507999897003174,-7.02400016784668,-0.6280000209808348,-9.718999862670898,-0.6779999732971191
1621932288124,0.2800000011920929,4.750999927520752,-7.193999767303467,-0.6280000209808348,-9.72599983215332,-0.6389999985694885
1621932288134,0.4199999868869781,4.938000202178955,-7.44600009918213,-0.5879999995231628,-9.72599983215332,-0.6389999985694885
1621932288144,0.4900000095367431,4.88100004196167,-7.526999950408936,-0.5099999904632568,-9.687000274658203,-0.6330000162124633
1621932288154,0.7699999809265136,5.13700008392334,-7.765999794006347,-0.5099999904632568,-9.642000198364256,-0.6639999747276306
1621932288164,1.0499999523162842,4.686999797821045,-7.631999969482423,-0.5490000247955322,-9.687000274658203,-0.6330000162124633
1621932288174,0.9100000262260436,4.431000232696533,-7.39300012588501,-0.5490000247955322,-9.647999763488768,-0.6259999871253967
1621932288184,0.8399999737739563,4.176000118255615,-7.1539998054504395,-0.5490000247955322,-9.694000244140623,-0.5939999818801879
1621932288194,0.9100000262260436,4.199999809265137,-7.290999889373779,-0.5879999995231628,-9.732000350952148,-0.6010000109672546
1621932288204,1.0499999523162842,4.249000072479248,-7.566999912261963,-0.5879999995231628,-9.732000350952148,-0.6010000109672546
1621932288214,0.8399999737739563,4.065999984741211,-7.742000102996825,-0.5879999995231628,-9.73900032043457,-0.5619999766349792
1621932288224,0.9800000190734864,4.14300012588501,-7.373000144958496,-0.5490000247955322,-9.73900032043457,-0.5619999766349792
1621932288234,0.9800000190734864,4.11899995803833,-7.235000133514405,-0.5879999995231628,-9.73900032043457,-0.5619999766349792
1621932288244,0.9800000190734864,4.09499979019165,-7.0970001220703125,-0.6669999957084655,-9.732000350952148,-0.6010000109672546
1621932288254,0.7699999809265136,4.264999866485596,-6.854000091552734,-0.6280000209808348,-9.73900032043457,-0.5619999766349792
1621932288264,0.699999988079071,4.4070000648498535,-7.255000114440918,-0.6280000209808348,-9.732000350952148,-0.6010000109672546
1621932288274,0.7699999809265136,4.236000061035156,-7.498000144958496,-0.6280000209808348,-9.694000244140623,-0.5939999818801879
1621932288284,0.4199999868869781,4.4679999351501465,-7.599999904632568,-0.5879999995231628,-9.72599983215332,-0.6389999985694885
1621932288294,0.2800000011920929,4.480000019073486,-7.669000148773193,-0.5879999995231628,-9.732000350952148,-0.6010000109672546
1621932288304,-0.209999993443489,4.52400016784668,-7.519000053405762,-0.6280000209808348,-9.68000030517578,-0.6710000038146972
1621932288314,0.1400000005960464,4.788000106811523,-7.401000022888184,-0.6669999957084655,-9.687000274658203,-0.6330000162124633
1621932288324,0.0700000002980232,4.888999938964844,-7.170000076293945,-0.6669999957084655,-9.732000350952148,-0.6010000109672546
1621932288334,-0.0700000002980232,4.828999996185303,-6.824999809265137,-0.6669999957084655,-9.732000350952148,-0.6010000109672546
1621932288344,0.0700000002980232,4.738999843597412,-7.125,-0.6669999957084655,-9.73900032043457,-0.5619999766349792
1621932288354,0.209999993443489,4.800000190734863,-7.469999790191651,-0.7059999704360961,-9.732000350952148,-0.6010000109672546
1621932288364,0.209999993443489,4.800000190734863,-8.678000450134277,-0.7450000047683715,-9.694000244140623,-0.5939999818801879
1621932288374,0.0700000002980232,5.144000053405762,-9.826000213623049,-0.8240000009536743,-9.72599983215332,-0.6389999985694885
1621932288384,0.4199999868869781,5.9670000076293945,-10.463000297546388,-0.8629999756813049,-9.687000274658203,-0.6330000162124633
1621932288394,0.209999993443489,7.261000156402587,-10.94499969482422,-0.981000006198883,-9.687000274658203,-0.6330000162124633
1621932288404,0.5600000023841857,8.91100025177002,-11.435999870300291,-1.0199999809265137,-9.732000350952148,-0.6010000109672546
1621932288414,0.7699999809265136,10.781000137329102,-11.960000038146973,-1.1380000114440918,-9.72599983215332,-0.6389999985694885
1621932288424,1.4700000286102295,13.050999641418455,-12.340999603271484,-1.2549999952316284,-9.718999862670898,-0.6779999732971191
1621932288434,1.9600000381469729,15.779999732971191,-12.5,-1.2549999952316284,-9.694000244140623,-0.5939999818801879
1621932288444,2.7300000190734863,19.48699951171875,-12.557000160217283,-1.3339999914169312,-9.68000030517578,-0.6710000038146972
1621932288454,3.009999990463257,21.48400115966797,-12.59600067138672,-1.3730000257492063,-9.68000030517578,-0.6710000038146972
1621932288464,3.2899999618530273,23.481000900268555,-12.635000228881836,-1.3730000257492063,-9.68000030517578,-0.6710000038146972
1621932288474,3.849999904632568,27.437999725341797,-13.71399974822998,-1.3730000257492063,-9.718999862670898,-0.6779999732971191
1621932288484,4.269999980926514,31.695999145507812,-14.881999969482422,-1.3339999914169312,-9.67300033569336,-0.7099999785423278
1621932288494,4.619999885559082,36.06700134277344,-15.887999534606934,-1.2940000295639038,-9.67300033569336,-0.7099999785423278
1621932288504,4.96999979019165,40.823001861572266,-16.257999420166016,-1.2940000295639038,-9.628000259399414,-0.7419999837875366
1621932288514,5.670000076293945,45.02399826049805,-16.298999786376953,-1.2549999952316284,-9.58899974822998,-0.7350000143051147
1621932288524,6.440000057220459,49.244998931884766,-17.26099967956543,-1.1770000457763672,-9.550999641418455,-0.7279999852180481
1621932288534,6.860000133514404,53.422000885009766,-18.371999740600582,-1.0980000495910645,-9.550999641418455,-0.7279999852180481
1621932288544,7.8400001525878915,57.375,-19.025999069213867,-1.0199999809265137,-9.550999641418455,-0.7279999852180481
1621932288554,8.960000038146973,61.00899887084961,-19.878000259399418,-0.981000006198883,-9.51900005340576,-0.6830000281333923
1621932288564,9.59000015258789,65.22200012207031,-21.195999145507812,-0.8240000009536743,-9.479999542236328,-0.6759999990463256
1621932288574,10.779999732971191,68.83000183105469,-21.910999298095703,-0.7450000047683715,-9.532999992370604,-0.6050000190734863
1621932288584,12.039999961853027,72.2040023803711,-22.097999572753903,-0.6280000209808348,-9.54599952697754,-0.527999997138977
1621932288594,13.159999847412108,75.46800231933594,-21.663999557495117,-0.5490000247955322,-9.378000259399414,-0.578000009059906
1621932288604,14.279999732971191,78.08399963378906,-20.775999069213867,-0.4309999942779541,-9.30799961090088,-0.5260000228881835
1621932288614,16.239999771118164,80.25399780273438,-20.180999755859375,-0.3140000104904174,-9.352999687194824,-0.4939999878406524
1621932288624,18.1299991607666,81.86799621582033,-19.256000518798828,-0.1959999948740005,-9.366999626159668,-0.4169999957084655
1621932288634,20.020000457763672,83.04399871826172,-18.267000198364254,-0.0780000016093254,-9.373000144958496,-0.3779999911785125
1621932288644,21.350000381469727,83.78600311279298,-17.638999938964844,0.0,-9.425999641418455,-0.3079999983310699
1621932288654,22.75,84.58100128173828,-17.711999893188477,0.0390000008046627,-9.46399974822998,-0.3149999976158142
1621932288664,23.310001373291016,84.63349914550781,-17.80900001525879,0.0390000008046627,-9.607000350952148,-0.1800000071525573
1621932288674,23.8700008392334,84.68599700927734,-17.9060001373291,0.0780000016093254,-9.621000289916992,-0.1030000001192092
1621932288684,24.780000686645508,85.0469970703125,-17.131999969482422,0.1180000007152557,-9.704999923706056,-0.0780000016093254
1621932288693,24.989999771118164,84.98200225830078,-16.36199951171875,0.1959999948740005,-9.79599952697754,-0.0149999996647238
1621932288703,25.200000762939453,84.38999938964844,-15.826000213623049,0.2750000059604644,-9.873000144958496,-0.0280000008642673
1621932288713,24.5,83.75,-15.015000343322754,0.2750000059604644,-9.918999671936035,0.0040000001899898
1621932288723,23.309999465942383,83.1050033569336,-13.777999877929688,0.2349999994039535,-9.911999702453612,-0.0350000001490116
1621932288733,22.260000228881836,82.4000015258789,-13.404999732971191,0.1959999948740005,-9.925999641418455,0.0419999994337558
1621932288743,21.209999084472656,81.64900207519531,-13.182000160217283,0.2750000059604644,-10.04800033569336,0.0599999986588954
1621932288753,20.3700008392334,81.35299682617188,-13.519000053405762,0.3140000104904174,-10.12600040435791,0.0469999983906745
1621932288763,18.200000762939453,80.84300231933594,-13.039999961853027,0.3140000104904174,-10.093999862670898,0.0920000001788139
1621932288773,16.239999771118164,80.05999755859375,-11.82699966430664,0.3140000104904174,-10.010000228881836,0.06700000166893
1621932288783,14.840000152587892,79.74400329589844,-11.243000030517578,0.3140000104904174,-9.89400005340576,0.0879999995231628
1621932288793,14.279999732971191,78.9729995727539,-11.30799961090088,0.3140000104904174,-9.78499984741211,0.1469999998807907
1621932288803,14.279999732971191,77.8949966430664,-11.640999794006348,0.3529999852180481,-9.71399974822998,0.1990000009536743
1621932288813,14.210000038146973,77.23799896240233,-11.54300022125244,0.3919999897480011,-9.675999641418455,0.2060000002384185
1621932288823,14.630000114440918,76.25700378417967,-11.218999862670898,0.4309999942779541,-9.64400005340576,0.2509999871253967
1621932288833,14.699999809265137,75.18199920654298,-11.97700023651123,0.4309999942779541,-9.623000144958496,0.135000005364418
1621932288843,14.840000152587892,73.90499877929688,-11.98900032043457,0.5099999904632568,-9.71399974822998,0.1990000009536743
1621932288853,14.909999847412108,72.51000213623047,-11.737000465393066,0.5099999904632568,-9.734999656677246,0.3149999976158142
1621932288863,14.735000610351564,71.72700500488281,-11.732999801635742,0.5490000247955322,-9.772999763488768,0.3079999983310699
1621932288873,14.5600004196167,70.94400024414062,-11.729000091552734,0.5490000247955322,-9.772999763488768,0.3079999983310699
1621932288883,14.06999969482422,69.1520004272461,-12.045000076293944,0.5879999995231628,-9.779999732971191,0.3470000028610229
1621932288893,13.720000267028809,67.16100311279297,-12.041000366210936,0.6280000209808348,-9.741000175476074,0.3540000021457672
1621932288903,13.720000267028809,64.95899963378906,-11.647000312805176,0.6280000209808348,-9.748000144958496,0.3919999897480011
1621932288913,13.4399995803833,62.834999084472656,-10.883999824523926,0.7059999704360961,-9.793999671936035,0.4239999949932098
1621932288923,13.159999847412108,60.28400039672851,-10.12600040435791,0.6669999957084655,-9.826000213623049,0.3790000081062316
1621932288933,12.670000076293944,58.20800018310547,-9.638999938964846,0.6280000209808348,-9.902999877929688,0.3650000095367431
1621932288943,11.270000457763672,56.05899810791016,-8.73799991607666,0.5879999995231628,-9.940999984741213,0.3580000102519989
1621932288953,9.729999542236328,53.53300094604492,-8.116999626159668,0.5490000247955322,-9.940999984741213,0.3580000102519989
1621932288963,8.399999618530273,51.20500183105469,-7.816999912261963,0.5099999904632568,-9.86400032043457,0.3720000088214874
1621932288973,7.9099998474121085,49.125,-6.9039998054504395,0.5099999904632568,-9.826000213623049,0.3790000081062316
1621932288983,7.210000038146973,46.6879997253418,-5.984000205993652,0.4709999859333038,-9.793999671936035,0.4239999949932098
1621932288993,6.510000228881836,44.22700119018555,-4.925000190734863,0.4709999859333038,-9.807000160217283,0.5009999871253967
1621932289003,5.739999771118164,41.42900085449219,-3.569999933242798,0.3919999897480011,-9.807000160217283,0.5009999871253967
1621932289013,4.690000057220459,38.652000427246094,-3.135999917984009,0.3919999897480011,-9.762000083923342,0.4690000116825103
1621932289023,3.849999904632568,35.935001373291016,-3.0460000038146973,0.3140000104904174,-9.755000114440918,0.4309999942779541
1621932289033,3.2899999618530273,32.87300109863281,-3.0169999599456787,0.1959999948740005,-9.755000114440918,0.4309999942779541
1621932289043,2.5899999141693115,29.770999908447266,-2.3559999465942383,0.1570000052452087,-9.678000450134276,0.4440000057220459
1621932289053,2.380000114440918,28.211999893188477,-1.7779999971389773,0.1570000052452087,-9.678000450134276,0.4440000057220459
1621932289063,2.1700000762939453,26.652999877929688,-1.2000000476837158,0.0780000016093254,-9.678000450134276,0.4440000057220459
1621932289073,1.9600000381469729,23.59199905395508,0.0370000004768371,0.0,-9.645999908447264,0.4900000095367431
1621932289083,2.240000009536743,20.940000534057617,0.5649999976158142,-0.0780000016093254,-9.576000213623049,0.5419999957084655
1621932289093,2.6600000858306885,18.02899932861328,0.5490000247955322,-0.1180000007152557,-9.536999702453612,0.5490000247955322
1621932289103,2.940000057220459,15.843000411987305,0.4480000138282775,-0.1959999948740005,-9.522999763488768,0.4720000028610229
1621932289113,3.7799999713897705,13.616999626159668,-0.2290000021457672,-0.2750000059604644,-9.569000244140623,0.5040000081062316
1621932289123,4.340000152587891,11.734999656677246,-0.8450000286102294,-0.2750000059604644,-9.65999984741211,0.5669999718666076
1621932289133,5.039999961853027,9.82900047302246,-1.3229999542236328,-0.1959999948740005,-9.704999923706056,0.5989999771118164
1621932289143,5.739999771118164,7.741000175476073,-1.97599995136261,-0.2349999994039535,-9.697999954223633,0.5600000023841857
1621932289153,6.019999980926514,5.445000171661377,-2.6649999618530273,-0.1570000052452087,-9.697999954223633,0.5600000023841857
1621932289163,5.949999809265137,3.056999921798706,-3.2279999256134033,-0.1570000052452087,-9.621000289916992,0.5740000009536743
1621932289173,5.809999942779541,1.0779999494552612,-3.2929999828338623,-0.1570000052452087,-9.697999954223633,0.5600000023841857
1621932289183,5.949999809265137,-1.524999976158142,-3.0409998893737793,-0.1570000052452087,-9.788999557495115,0.6240000128746032
1621932289193,6.650000095367432,-4.140999794006348,-2.7200000286102295,-0.1959999948740005,-9.75100040435791,0.6309999823570251
1621932289203,6.929999828338623,-6.2129998207092285,-3.8680000305175786,-0.2349999994039535,-9.67300033569336,0.6439999938011169
1621932289213,6.650000095367432,-7.717000007629395,-5.4120001792907715,-0.2349999994039535,-9.75699996948242,0.6690000295639038
1621932289223,6.230000019073486,-9.291000366210936,-5.761000156402588,-0.2349999994039535,-9.847999572753906,0.7329999804496765
1621932289233,5.25,-10.154000282287598,-5.699999809265137,-0.3140000104904174,-9.89400005340576,0.7649999856948853
1621932289243,4.059999942779541,-10.670000076293944,-6.004000186920166,-0.3919999897480011,-9.862000465393066,0.8100000023841857
1621932289253,3.674999952316284,-10.653499603271484,-6.498499870300293,-0.4309999942779541,-9.906999588012695,0.8420000076293945
1621932289263,3.2899999618530273,-10.63700008392334,-6.993000030517578,-0.4309999942779541,-9.906999588012695,0.8420000076293945
1621932289273,2.450000047683716,-10.482999801635742,-7.46400022506714,-0.4709999859333038,-9.869000434875488,0.8489999771118164
1621932289283,1.5399999618530271,-10.057000160217283,-7.460000038146973,-0.4309999942779541,-9.862000465393066,0.8100000023841857
1621932289293,1.1200000047683716,-9.656000137329102,-7.317999839782715,-0.4309999942779541,-9.840999603271484,0.6940000057220459
1621932289303,0.8399999737739563,-9.355999946594238,-7.407000064849853,-0.3919999897480011,-9.847999572753906,0.7329999804496765
1621932289313,0.6299999952316284,-8.536999702453613,-7.618000030517577,-0.3529999852180481,-9.89400005340576,0.7649999856948853
1621932289323,-0.0700000002980232,-8.26099967956543,-7.570000171661377,-0.3529999852180481,-9.887000083923342,0.7260000109672546
1621932289333,-0.699999988079071,-8.180000305175781,-7.625999927520752,-0.3529999852180481,-9.887000083923342,0.7260000109672546
1621932289343,-1.4700000286102295,-8.329999923706055,-7.581999778747559,-0.3140000104904174,-9.95699977874756,0.6740000247955322
1621932289353,-2.5899999141693115,-8.5,-7.824999809265136,-0.2750000059604644,-10.003000259399414,0.7059999704360961
1621932289363,-3.990000009536743,-8.211999893188477,-7.844999790191651,-0.2349999994039535,-10.034999847412108,0.6600000262260437
1621932289373,-5.809999942779541,-7.83900022506714,-8.347999572753906,-0.1959999948740005,-10.079999923706056,0.6919999718666076
1621932289383,-8.1899995803833,-8.24899959564209,-8.847000122070312,-0.1959999948740005,-10.072999954223633,0.6539999842643737
1621932289393,-9.9399995803833,-8.187999725341797,-9.19200038909912,-0.1180000007152557,-10.065999984741213,0.615000009536743
1621932289403,-11.550000190734863,-8.496999740600586,-9.458999633789062,-0.0780000016093254,-9.996000289916992,0.6669999957084655
1621932289413,-13.229999542236328,-9.104999542236328,-9.637000083923342,-0.0390000008046627,-9.949999809265137,0.6349999904632568
1621932289423,-14.279999732971191,-9.279000282287598,-9.454999923706056,-0.1180000007152557,-9.866000175476074,0.6100000143051147
1621932289433,-14.909999847412108,-8.862000465393066,-9.80799961090088,-0.1959999948740005,-9.835000038146973,0.656000018119812
1621932289443,-15.539999961853027,-8.666999816894531,-10.91100025177002,-0.1570000052452087,-9.781999588012695,0.5849999785423278
1621932289453,-16.100000381469727,-8.017999649047852,-11.364999771118164,-0.0780000016093254,-9.776000022888184,0.5469999909400939
1621932289463,-16.065000534057617,-7.667499542236328,-11.338500022888184,-0.1570000052452087,-9.762000083923342,0.4690000116825103
1621932289473,-16.030000686645508,-7.316999912261963,-11.312000274658203,-0.1959999948740005,-9.722999572753906,0.4760000109672546
1621932289483,-16.030000686645508,-6.072000026702881,-11.519000053405762,-0.1180000007152557,-9.645999908447264,0.4900000095367431
1621932289493,-15.539999961853027,-4.701000213623047,-11.633000373840332,-0.1570000052452087,-9.51599979400635,0.4329999983310699
1621932289503,-14.979999542236328,-3.8010001182556152,-11.901000022888184,-0.0780000016093254,-9.593999862670898,0.4189999997615814
1621932289513,-14.140000343322754,-2.674000024795532,-11.843999862670898,-0.0780000016093254,-9.67099952697754,0.4059999883174896
1621932289523,-13.4399995803833,-0.7480000257492065,-11.078000068664553,-0.0780000016093254,-9.63199996948242,0.4129999876022338
1621932289533,-13.300000190734863,0.2010000050067901,-10.413000106811523,-0.0390000008046627,-9.61400032043457,0.5350000262260437
1621932289543,-12.949999809265137,0.8909999728202819,-10.291999816894531,0.0,-9.529999732971191,0.5099999904632568
1621932289553,-11.970000267028809,1.0410000085830688,-10.336000442504885,0.0,-9.484999656677246,0.4790000021457672
1621932289563,-10.710000038146973,1.25600004196167,-9.942999839782717,0.0780000016093254,-9.406999588012695,0.492000013589859
1621932289573,-9.59000015258789,1.1419999599456787,-8.897000312805176,0.0390000008046627,-9.267000198364256,0.597000002861023
1621932289583,-8.119999885559082,0.6959999799728394,-7.980000019073486,0.0390000008046627,-9.329999923706056,0.5059999823570251
1621932289593,-6.789999961853027,0.1889999955892562,-7.927999973297118,0.0390000008046627,-9.446000099182127,0.4850000143051147
1621932289603,-5.53000020980835,0.1120000034570694,-8.29699993133545,0.0,-9.484999656677246,0.4790000021457672
1621932289613,-4.829999923706055,-0.2240000069141387,-9.208999633789062,0.0,-9.522999763488768,0.4720000028610229
1621932289623,-4.409999847412109,-0.606000006198883,-10.270999908447266,-0.0780000016093254,-9.569000244140623,0.5040000081062316
1621932289633,-3.849999904632568,-0.3790000081062316,-11.154999732971191,-0.0780000016093254,-9.607000350952148,0.4970000088214874
1621932289643,-2.869999885559082,-0.5049999952316284,-12.45699977874756,-0.1180000007152557,-9.607000350952148,0.4970000088214874
1621932289653,-2.380000114440918,-0.1599999964237213,-13.604000091552734,-0.0780000016093254,-9.67099952697754,0.4059999883174896
1621932289663,-1.399999976158142,0.5659999847412109,-13.6899995803833,-0.1180000007152557,-9.786999702453612,0.3849999904632568
1621932289673,-0.5600000023841857,1.3040000200271606,-13.843999862670898,-0.2349999994039535,-9.857000350952148,0.3330000042915344
1621932289683,-0.7350000143051147,1.930500030517578,-14.373000144958496,-0.2750000059604644,-9.913999557495115,0.2039999961853027
1621932289693,-0.9100000262260436,2.556999921798706,-14.902000427246094,-0.2750000059604644,-10.02299976348877,0.1449999958276748
1621932289703,-1.9600000381469729,4.35699987411499,-16.645999908447266,-0.3140000104904174,-10.05500030517578,0.0989999994635581
1621932289713,-3.7799999713897705,7.110000133514404,-18.150999069213867,-0.3140000104904174,-10.041000366210936,0.0219999998807907
1621932289723,-5.809999942779541,10.479000091552734,-20.32900047302246,-0.3140000104904174,-9.98900032043457,-0.0489999987185001
1621932289733,-6.71999979019165,14.895000457763672,-24.81100082397461,-0.2349999994039535,-9.911999702453612,-0.0350000001490116
1621932289743,-7.0,19.18400001525879,-30.593999862670895,-0.1570000052452087,-9.788999557495115,-0.0529999993741512
1621932289753,-5.949999809265137,23.95199966430664,-35.86600112915039,0.0,-9.635000228881836,-0.0260000005364418
1621932289763,-4.199999809265137,28.56999969482422,-39.8849983215332,0.1570000052452087,-9.557000160217283,-0.0120000001043081
1621932289773,-2.0299999713897705,32.51100158691406,-42.88600158691406,0.3529999852180481,-9.472999572753906,-0.0370000004768371
1621932289783,-0.3499999940395355,35.68600082397461,-43.96099853515625,0.5490000247955322,-9.505000114440918,-0.0829999968409538
1621932289793,0.8399999737739563,37.94100189208984,-42.63899993896485,0.8240000009536743,-9.697999954223633,-0.1169999986886978
1621932289803,0.7699999809265136,39.733001708984375,-39.90700149536133,1.0199999809265137,-9.807000160217283,-0.1759999990463256
1621932289813,-0.2800000011920929,41.7130012512207,-36.21699905395508,1.1770000457763672,-9.92300033569336,-0.1959999948740005
1621932289823,-1.2599999904632568,42.8849983215332,-33.59299850463867,1.2940000295639038,-9.93000030517578,-0.1580000072717666
1621932289833,-1.8899999856948853,43.4119987487793,-32.150001525878906,1.3730000257492063,-9.814000129699709,-0.1369999945163726
1621932289843,-1.75,43.46900177001953,-30.86000061035156,1.5299999713897705,-9.704999923706056,-0.0780000016093254
1621932289853,-1.5399999618530271,43.452999114990234,-29.156999588012695,1.6080000400543213,-9.557000160217283,-0.0120000001043081
1621932289863,-0.699999988079071,42.7400016784668,-27.933000564575195,1.687000036239624,-9.505000114440918,-0.0829999968409538
1621932289873,0.0700000002980232,41.91299819946289,-26.8700008392334,1.6480000019073486,-9.512000083923342,-0.0439999997615814
1621932289883,0.699999988079071,41.30899810791016,-26.266000747680664,1.6480000019073486,-9.550999641418455,-0.0509999990463256
1621932289893,0.7699999809265136,41.069000244140625,-25.312999725341797,1.6080000400543213,-9.58199977874756,-0.096000000834465
1621932289903,0.6299999952316284,41.41400146484375,-24.04400062561035,1.569000005722046,-9.58899974822998,-0.0579999983310699
1621932289913,0.4900000095367431,41.83599853515625,-23.61400032043457,1.3730000257492063,-9.42099952697754,-0.1080000028014183
1621932289923,0.4200000166893005,42.324996948242195,-22.958999633789062,1.3339999914169312,-9.460000038146973,-0.1150000020861625
1621932289933,0.3499999940395355,42.81399917602539,-22.304000854492188,1.215999960899353,-9.388999938964846,-0.061999998986721
1621932289943,1.1200000047683716,44.59000015258789,-21.493999481201172,1.1770000457763672,-9.343999862670898,-0.0939999967813491
1621932289953,1.9600000381469729,46.868999481201165,-21.51799964904785,1.1380000114440918,-9.388999938964846,-0.061999998986721
1621932289963,2.6600000858306885,49.16400146484375,-22.038000106811523,1.1770000457763672,-9.467000007629396,-0.0759999975562095
1621932289973,3.569999933242798,51.96200180053711,-22.18400001525879,1.0590000152587893,-9.526000022888184,0.032999999821186
1621932289983,4.340000152587891,54.61399841308594,-21.503000259399418,0.9409999847412108,-9.416999816894531,0.0920000001788139
1621932289993,4.96999979019165,57.45600128173828,-21.499000549316406,0.9020000100135804,-9.345999717712402,0.1439999938011169
1621932290003,5.599999904632568,60.91899871826172,-22.594999313354492,0.9409999847412108,-9.276000022888184,0.1969999969005584
1621932290013,6.860000133514404,64.79499816894531,-23.617000579833984,0.9409999847412108,-9.211999893188477,0.2879999876022338
1621932290023,8.260000228881836,68.41200256347656,-23.975000381469727,0.981000006198883,-9.154999732971191,0.4169999957084655
1621932290033,10.710000038146973,71.99700164794922,-24.551000595092773,1.0590000152587893,-9.130000114440918,0.5009999871253967
1621932290043,13.4399995803833,74.71800231933594,-25.06599998474121,1.215999960899353,-9.137000083923342,0.5400000214576721
1621932290053,15.539999961853027,77.36199951171875,-24.742000579833984,1.2940000295639038,-9.104999542236328,0.5849999785423278
1621932290063,17.219999313354492,79.70999908447266,-23.54599952697754,1.491000056266785,-9.210000038146973,0.7260000109672546
1621932290073,18.549999237060547,81.92400360107422,-22.799999237060547,1.569000005722046,-9.237000465393066,0.8809999823570251
1621932290083,19.670000076293945,83.5989990234375,-22.22100067138672,1.7649999856948853,-9.335000038146973,0.9829999804496764
1621932290093,20.15999984741211,85.01000213623047,-21.75900077819824,2.000999927520752,-9.446000099182127,1.1619999408721924
1621932290103,20.649999618530273,85.73999786376953,-21.06100082397461,2.2750000953674316,-9.505000114440918,1.2719999551773071
1621932290113,20.719999313354492,85.67900085449219,-19.507999420166016,2.431999921798706,-9.637000083923342,1.5670000314712524
1621932290123,20.510000228881836,85.322998046875,-18.29199981689453,2.510999917984009,-9.829999923706056,1.5329999923706057
1621932290133,19.040000915527344,85.76100158691406,-17.148000717163086,2.510999917984009,-10.062000274658203,1.4919999837875366
1621932290143,17.010000228881836,86.71399688720702,-16.909000396728516,2.549999952316284,-10.121000289916992,1.60099995136261
1621932290153,14.489999771118164,87.66200256347656,-17.452999114990234,2.5889999866485596,-10.04300022125244,1.6150000095367432
1621932290163,13.19499969482422,87.70700073242188,-17.30299949645996,2.746000051498413,-9.928000450134276,1.6349999904632568
1621932290173,11.899999618530272,87.75199890136719,-17.152999877929688,2.864000082015991,-9.819000244140623,1.694000005722046
1621932290183,10.220000267028809,87.67500305175781,-13.895999908447266,2.9030001163482666,-9.638999938964846,1.805999994277954
1621932290193,9.100000381469728,86.65399932861328,-9.314000129699709,2.864000082015991,-9.446000099182127,1.8400000333786013
1621932290203,9.100000381469728,84.99199676513672,-5.129000186920166,2.8239998817443848,-9.260000228881836,1.9119999408721924
1621932290213,10.43000030517578,83.01300048828125,-2.7769999504089355,2.7850000858306885,-9.156999588012695,2.009999990463257
1621932290223,11.899999618530272,81.39600372314453,-0.859000027179718,2.746000051498413,-9.163999557495115,2.049000024795532
1621932290233,12.670000076293944,80.35399627685547,-0.1899999976158142,2.628000020980835,-9.314000129699709,2.2209999561309814
1621932290243,13.090000152587892,80.41799926757812,-2.1679999828338623,2.549999952316284,-9.444000244140623,2.2780001163482666
1621932290253,12.670000076293944,80.50299835205078,-6.276000022888184,2.549999952316284,-9.527999877929688,2.302999973297119
1621932290263,10.779999732971191,79.9749984741211,-10.13599967956543,2.549999952316284,-9.565999984741213,2.2960000038146973
1621932290273,8.890000343322754,79.2249984741211,-11.121999740600586,2.510999917984009,-9.572999954223633,2.3350000381469727
1621932290283,6.860000133514404,78.48300170898438,-10.541999816894531,2.510999917984009,-9.579999923706056,2.374000072479248
1621932290293,5.110000133514404,77.80999755859375,-9.949999809265137,2.3929998874664307,-9.54800033569336,2.4189999103546143
1621932290303,3.6400001049041744,77.30699920654298,-10.322999954223633,2.313999891281128,-9.586999893188477,2.4119999408721924
1621932290313,2.5899999141693115,77.81400299072266,-11.583999633789064,2.236000061035156,-9.51599979400635,2.4649999141693115
1621932290323,1.9600000381469729,78.6729965209961,-12.427000045776367,2.1570000648498535,-9.432000160217283,2.440000057220459
1621932290332,1.4700000286102295,79.40699768066406,-13.36400032043457,2.1570000648498535,-9.380000114440918,2.36899995803833
1621932290342,1.4700000286102295,80.15299987792967,-14.369999885559082,2.0789999961853027,-9.387000083923342,2.4079999923706055
1621932290352,0.699999988079071,80.83399963378906,-14.604999542236328,2.0399999618530273,-9.387000083923342,2.4079999923706055
1621932290362,0.4199999868869781,81.61299896240233,-15.392000198364258,2.000999927520752,-9.32800006866455,2.299000024795532
1621932290372,-0.0700000002980232,82.99099731445312,-16.35700035095215,1.9220000505447388,-9.281999588012695,2.2669999599456787
1621932290382,0.4900000095367431,84.34100341796875,-17.966999053955078,1.843999981880188,-9.373000144958496,2.3299999237060547
1621932290392,0.8399999737739563,86.5790023803711,-19.775999069213867,1.8040000200271609,-9.411999702453612,2.3239998817443848
1621932290402,0.8049999475479126,87.75900268554688,-21.024999618530273,1.72599995136261,-9.373000144958496,2.3299999237060547
1621932290412,0.7699999809265136,88.93900299072266,-22.27400016784668,1.6480000019073486,-9.263999938964846,2.390000104904175
1621932290422,0.5600000023841857,91.59500122070312,-24.43600082397461,1.569000005722046,-9.147999763488768,2.4100000858306885
1621932290432,0.3499999940395355,94.6969985961914,-26.305999755859375,1.569000005722046,-9.14099979400635,2.371000051498413
1621932290442,0.0700000002980232,97.97699737548828,-27.575000762939453,1.569000005722046,-9.197999954223633,2.2420001029968266
1621932290452,0.2800000011920929,101.15200042724608,-28.649999618530273,1.6080000400543213,-9.416000366210936,2.124000072479248
1621932290462,0.9100000262260436,104.30599975585936,-30.01300048828125,1.569000005722046,-9.968000411987305,1.8669999837875368
1621932290472,2.380000114440918,107.98400115966795,-31.923999786376953,1.491000056266785,-10.45199966430664,1.9010000228881836
1621932290482,3.2899999618530273,112.04299926757812,-35.18899917602539,1.4119999408721924,-10.529999732971191,1.888000011444092
1621932290492,3.2899999618530273,115.3219985961914,-40.08300018310547,1.3730000257492063,-10.182000160217283,1.9490000009536743
1621932290502,3.430000066757202,117.64900207519533,-44.00899887084961,1.569000005722046,-9.687000274658203,2.075999975204468
1621932290512,2.5899999141693115,119.26699829101562,-43.5099983215332,1.7649999856948853,-9.272999763488768,1.9900000095367432
1621932290522,1.8200000524520872,119.14600372314452,-39.19599914550781,1.9220000505447388,-9.079999923706056,2.0239999294281006
1621932290532,2.0299999713897705,117.25299835205078,-33.70100021362305,2.000999927520752,-9.020999908447264,1.9149999618530271
1621932290542,2.5199999809265137,114.33499908447266,-29.239999771118164,2.0399999618530273,-9.097999572753906,1.9010000228881836
1621932290552,3.2200000286102295,110.95700073242188,-25.00200080871582,2.0399999618530273,-9.253000259399414,1.8739999532699585
1621932290562,3.5,107.06900024414062,-20.285999298095703,2.0399999618530273,-9.336999893188477,1.89900004863739
1621932290572,3.7799999713897705,102.71900177001952,-15.366999626159668,1.9220000505447388,-9.58199977874756,1.934999942779541
1621932290582,3.5,98.38500213623048,-10.94200038909912,1.7649999856948853,-9.704999923706056,1.9529999494552612
1621932290592,2.940000057220459,94.4280014038086,-7.44600009918213,1.687000036239624,-9.840999603271484,2.049000024795532
1621932290602,1.8899999856948853,90.68099975585936,-4.339000225067139,1.491000056266785,-9.96399974822998,2.066999912261963
1621932290612,0.209999993443489,86.95099639892578,-1.7269999980926514,1.4509999752044678,-9.996000289916992,2.0209999084472656
1621932290622,-1.1200000047683716,83.81300354003906,1.5579999685287476,1.3339999914169312,-10.027999877929688,1.97599995136261
1621932290632,-2.0999999046325684,80.41100311279298,5.933000087738037,1.215999960899353,-10.112000465393066,2.000999927520752
1621932290642,-2.5199999809265137,78.37600708007812,8.204500198364258,1.0199999809265137,-10.118000030517578,2.0399999618530273
1621932290652,-2.940000057220459,76.34100341796875,10.47599983215332,0.9020000100135804,-10.196000099182127,2.0260000228881836
1621932290662,-3.2899999618530273,72.3759994506836,14.822999954223633,0.7450000047683715,-10.279999732971191,2.0510001182556152
1621932290672,-4.199999809265137,68.3499984741211,20.724000930786133,0.5879999995231628,-10.279999732971191,2.0510001182556152
1621932290682,-5.110000133514404,64.09700012207031,26.299999237060547,0.3919999897480011,-10.208999633789062,2.1029999256134033
1621932290692,-6.440000057220459,59.60100173950195,30.83799934387207,0.1959999948740005,-10.177000045776367,2.1489999294281006
1621932290702,-7.8400001525878915,55.36399841308594,34.71099853515625,0.0390000008046627,-10.093000411987305,2.124000072479248
1621932290712,-9.869999885559082,51.93299865722656,37.23400115966797,-0.1959999948740005,-10.008999824523926,2.0989999771118164
1621932290722,-11.970000267028809,48.50299835205078,38.54800033569336,-0.3919999897480011,-9.899999618530272,2.1579999923706055
1621932290732,-13.93000030517578,46.21200180053711,38.641998291015625,-0.6280000209808348,-9.822999954223633,2.1710000038146973
1621932290742,-15.68000030517578,44.86100006103515,36.62699890136719,-0.8629999756813049,-9.699999809265137,2.1530001163482666
1621932290752,-16.729999542236328,44.12699890136719,32.72999954223633,-0.981000006198883,-9.699999809265137,2.1530001163482666
1621932290762,-16.8700008392334,44.402000427246094,27.94499969482422,-1.1380000114440918,-9.732000350952148,2.1080000400543213
1621932290772,-16.940000534057617,44.7869987487793,23.74799919128418,-1.215999960899353,-9.725000381469728,2.069000005722046
1621932290782,-17.43000030517578,45.19599914550781,20.621000289916992,-1.2549999952316284,-9.75699996948242,2.0239999294281006
1621932290792,-17.850000381469727,45.349998474121094,18.94300079345703,-1.2940000295639038,-9.79599952697754,2.0169999599456787
1621932290802,-17.989999771118164,45.507999420166016,18.04599952697754,-1.2940000295639038,-9.75,1.9850000143051147
1621932290812,-18.40999984741211,44.91600036621094,17.37299919128418,-1.2940000295639038,-9.788999557495115,1.9780000448226929
1621932290822,-18.479999542236328,44.4900016784668,17.368999481201172,-1.4119999408721924,-9.75,1.9850000143051147
1621932290832,-18.270000457763672,43.6870002746582,17.086000442504883,-1.3339999914169312,-9.58199977874756,1.934999942779541
1621932290842,-17.920000076293945,43.19200134277344,15.861000061035156,-1.3730000257492063,-9.536999702453612,1.9029999971389773
1621932290852,-17.43000030517578,42.58300018310547,14.473999977111816,-1.3730000257492063,-9.498000144958496,1.9099999666213987
1621932290862,-17.010000228881836,42.43499755859375,13.70199966430664,-1.3730000257492063,-9.446000099182127,1.8400000333786013
1621932290872,-16.59000015258789,42.2869987487793,12.93000030517578,-1.3730000257492063,-9.362000465393066,1.815000057220459
1621932290882,-16.239999771118164,42.529998779296875,11.550999641418455,-1.3730000257492063,-9.3100004196167,1.74399995803833
1621932290892,-15.609999656677246,42.76100158691406,10.241000175476074,-1.4119999408721924,-9.263999938964846,1.712000012397766
1621932290902,-14.5600004196167,42.16899871826172,8.359999656677246,-1.4119999408721924,-9.335000038146973,1.6599999666213987
1621932290912,-14.140000343322754,42.176998138427734,6.300000190734863,-1.4509999752044678,-9.411999702453612,1.6460000276565552
1621932290922,-14.840000152587892,41.94100189208984,4.409999847412109,-1.4509999752044678,-9.527999877929688,1.6260000467300415
1621932290932,-15.329999923706056,41.94499969482422,2.7760000228881836,-1.4509999752044678,-9.597999572753906,1.5740000009536743
1621932290942,-16.59000015258789,41.44200134277344,1.1950000524520874,-1.4509999752044678,-9.699999809265137,1.47599995136261
1621932290952,-18.270000457763672,40.70000076293945,0.5659999847412109,-1.4119999408721924,-9.725000381469728,1.3919999599456787
1621932290962,-19.950000762939453,40.01100158691406,0.4449999928474426,-1.3730000257492063,-9.718999862670898,1.3530000448226929
1621932290972,-21.489999771118164,39.45100021362305,-0.0099999997764825,-1.4119999408721924,-9.711999893188477,1.315000057220459
1621932290982,-22.469999313354492,38.68000030517578,-1.2829999923706057,-1.4509999752044678,-9.600000381469728,1.1349999904632568
1621932290992,-22.61000061035156,38.59099960327149,-2.7909998893737793,-1.491000056266785,-9.51599979400635,1.1100000143051147
1621932291002,-22.959999084472656,37.99100112915039,-3.821000099182129,-1.4509999752044678,-9.425999641418455,1.0470000505447388
1621932291012,-22.81999969482422,37.569000244140625,-4.250999927520752,-1.4119999408721924,-9.335000038146973,0.9829999804496764
1621932291022,-22.399999618530273,36.900001525878906,-4.084000110626221,-1.4119999408721924,-9.32800006866455,0.944000005722046
1621932291032,-22.049999237060547,35.845001220703125,-4.554999828338623,-1.3730000257492063,-9.321000099182127,0.906000018119812
1621932291042,-21.90999984741211,34.236000061035156,-4.696000099182129,-1.3339999914169312,-9.300999641418455,0.7900000214576721
1621932291052,-21.979999542236328,32.066001892089844,-4.084000110626221,-1.2549999952316284,-9.33199977874756,0.7440000176429749
1621932291062,-21.84000015258789,30.31100082397461,-3.3980000019073486,-1.215999960899353,-9.36400032043457,0.6990000009536743
1621932291072,-21.875,29.301000595092773,-3.113999843597412,-1.215999960899353,-9.40999984741211,0.731000006198883
1621932291082,-21.90999984741211,28.291000366210938,-2.8299999237060547,-1.215999960899353,-9.326000213623049,0.7059999704360961
1621932291092,-21.700000762939453,26.145999908447266,-3.563999891281128,-1.1770000457763672,-9.241000175476074,0.6809999942779541
1621932291102,-20.93000030517578,24.183000564575195,-4.123000144958496,-1.0980000495910645,-9.163999557495115,0.6940000057220459
1621932291112,-19.739999771118164,21.836000442504883,-4.111000061035156,-1.0980000495910645,-9.072999954223633,0.6309999823570251
1621932291122,-18.34000015258789,19.961999893188477,-4.369999885559082,-1.0980000495910645,-8.97599983215332,0.527999997138977
1621932291132,-17.079999923706055,18.055999755859375,-3.6400001049041744,-1.0590000152587893,-9.123000144958496,0.4629999995231628
1621932291142,-16.59000015258789,15.821999549865724,-2.256999969482422,-1.0199999809265137,-9.201000213623049,0.4490000009536743
1621932291152,-16.59000015258789,13.904999732971191,-0.248999997973442,-0.981000006198883,-9.270999908447264,0.3970000147819519
1621932291162,-17.5,11.5649995803833,1.3279999494552612,-1.0199999809265137,-9.342000007629396,0.3440000116825103
1621932291172,-18.829999923706055,9.298999786376951,3.700999975204468,-1.0199999809265137,-9.380000114440918,0.3379999995231628
1621932291182,-19.530000686645508,6.992000102996826,5.498000144958496,-1.0980000495910645,-9.335000038146973,0.3059999942779541
1621932291192,-19.8799991607666,5.113999843597412,6.872000217437744,-1.1380000114440918,-9.197999954223633,0.209999993443489
1621932291202,-19.739999771118164,3.115000009536743,8.937000274658203,-1.1380000114440918,-9.229999542236328,0.1650000065565109
1621932291212,-18.969999313354492,0.5609999895095825,11.329999923706056,-1.215999960899353,-9.33199977874756,0.06700000166893
1621932291222,-17.780000686645508,-2.005000114440918,13.791000366210938,-1.3339999914169312,-9.345999717712402,0.1439999938011169
1621932291232,-16.65999984741211,-4.519000053405762,15.552000045776367,-1.3730000257492063,-9.385000228881836,0.1379999965429306
1621932291242,-15.609999656677246,-7.113999843597412,16.15999984741211,-1.4119999408721924,-9.437000274658203,0.2080000042915344
1621932291252,-14.5600004196167,-8.696000099182129,15.454999923706056,-1.491000056266785,-9.437000274658203,0.2080000042915344
1621932291262,-13.510000228881836,-10.699000358581545,14.31999969482422,-1.5299999713897705,-9.397999763488768,0.2150000035762786
1621932291272,-12.460000038146973,-11.45400047302246,12.552000045776367,-1.569000005722046,-9.444000244140623,0.2469999939203262
1621932291282,-12.039999961853027,-11.972999572753906,11.465000152587892,-1.5299999713897705,-9.359999656677246,0.2220000028610229
1621932291292,-11.619999885559082,-12.491999626159668,10.378000259399414,-1.491000056266785,-9.392000198364256,0.1759999990463256
1621932291302,-11.6899995803833,-12.79599952697754,8.47700023651123,-1.4119999408721924,-9.602999687194824,0.0199999995529651
1621932291312,-12.18000030517578,-13.13700008392334,7.989999771118165,-1.3730000257492063,-9.904999732971191,-0.0740000009536743
1621932291322,-13.090000152587892,-13.89900016784668,8.281999588012695,-1.3339999914169312,-10.053000450134276,-0.1389999985694885
1621932291332,-14.140000343322754,-15.220999717712402,9.32900047302246,-1.2940000295639038,-9.968999862670898,-0.164000004529953
1621932291342,-15.470000267028809,-16.55900001525879,9.66100025177002,-1.1770000457763672,-9.729999542236328,-0.1620000004768371
1621932291352,-15.68000030517578,-17.849000930786133,8.510000228881836,-1.0199999809265137,-9.505000114440918,-0.0829999968409538
1621932291362,-15.329999923706056,-18.871000289916992,7.050000190734863,-0.9409999847412108,-9.467000007629396,-0.0759999975562095
1621932291372,-15.119999885559082,-20.17300033569336,5.9679999351501465,-0.9020000100135804,-9.550999641418455,-0.0509999990463256
1621932291382,-14.420000076293944,-21.020999908447266,3.1170001029968266,-0.8629999756813049,-9.550999641418455,-0.0509999990463256
1621932291392,-14.210000038146973,-21.836000442504883,-0.7229999899864196,-0.7850000262260437,-9.536999702453612,-0.1280000060796737
1621932291402,-13.859999656677246,-22.392000198364254,-5.228000164031982,-0.7450000047683715,-9.529999732971191,-0.1669999957084655
1621932291412,-13.859999656677246,-23.89299964904785,-8.406999588012695,-0.7059999704360961,-9.484999656677246,-0.1990000009536743
1621932291422,-13.789999961853027,-24.45299911499023,-10.069000244140623,-0.6280000209808348,-9.425999641418455,-0.3079999983310699
1621932291432,-13.4399995803833,-24.749000549316406,-10.406000137329102,-0.6280000209808348,-9.335000038146973,-0.3709999918937683
1621932291442,-11.970000267028809,-25.14699935913086,-10.972999572753906,-0.6280000209808348,-9.366999626159668,-0.4169999957084655
1621932291452,-10.220000267028809,-25.56399917602539,-11.82900047302246,-0.5879999995231628,-9.437000274658203,-0.4690000116825103
1621932291462,-7.980000019073486,-25.288999557495117,-12.98900032043457,-0.6280000209808348,-9.597999572753906,-0.4580000042915344
1621932291472,-4.619999885559082,-24.145000457763672,-14.635000228881836,-0.7059999704360961,-9.682000160217283,-0.4329999983310699
1621932291482,-1.8200000524520872,-23.392000198364254,-17.701000213623047,-0.6669999957084655,-9.80500030517578,-0.414000004529953
1621932291492,-0.4550000131130218,-22.978500366210938,-19.440500259399418,-0.6280000209808348,-9.928000450134276,-0.3959999978542327
1621932291502,0.9100000262260436,-22.565000534057617,-21.18000030517578,-0.5879999995231628,-9.94200038909912,-0.3190000057220459
1621932291512,2.5899999141693115,-21.51499938964844,-23.909000396728516,-0.5490000247955322,-9.94200038909912,-0.3190000057220459
1621932291522,3.2200000286102295,-20.875,-25.929000854492188,-0.4709999859333038,-9.916999816894531,-0.2349999994039535
1621932291532,3.6400001049041744,-20.566999435424805,-26.8700008392334,-0.4309999942779541,-9.954999923706056,-0.2419999986886978
1621932291542,3.569999933242798,-20.940000534057617,-26.367000579833984,-0.4309999942779541,-9.92300033569336,-0.1959999948740005
1621932291552,3.6400001049041744,-21.690000534057617,-24.934999465942383,-0.4709999859333038,-9.897999763488768,-0.1120000034570694
1621932291562,3.7100000381469727,-22.33799934387207,-23.27300071716309,-0.5490000247955322,-9.82800006866455,-0.0599999986588954
1621932291572,4.340000152587891,-22.75200080871582,-22.136999130249023,-0.5879999995231628,-9.8100004196167,0.0630000010132789
1621932291582,4.96999979019165,-23.04400062561035,-22.89900016784668,-0.6669999957084655,-9.78499984741211,0.1469999998807907
1621932291592,5.949999809265137,-22.50900077819824,-24.724000930786133,-0.7450000047683715,-9.869000434875488,0.1720000058412551
1621932291602,6.440000057220459,-21.57200050354004,-27.61599922180176,-0.7850000262260437,-9.906999588012695,0.1650000065565109
1621932291612,6.789999961853027,-20.356000900268555,-30.88400077819824,-0.8629999756813049,-9.906999588012695,0.1650000065565109
1621932291622,6.090000152587891,-18.714000701904297,-34.14899826049805,-0.8629999756813049,-9.977999687194824,0.1129999980330467
1621932291632,4.340000152587891,-16.836999893188477,-36.73199844360352,-0.8629999756813049,-10.065999984741213,-0.061999998986721
1621932291642,2.240000009536743,-14.44499969482422,-39.01100158691406,-0.8240000009536743,-10.027999877929688,-0.0549999997019767
1621932291652,0.1400000005960464,-11.538000106811523,-40.98600006103515,-0.7450000047683715,-10.027999877929688,-0.0549999997019767
1621932291662,-1.8899999856948853,-8.727999687194824,-42.40999984741211,-0.7450000047683715,-9.937000274658203,-0.1190000027418136
1621932291672,-3.009999990463257,-5.75600004196167,-43.946998596191406,-0.7059999704360961,-9.92300033569336,-0.1959999948740005
1621932291682,-4.059999942779541,-2.9820001125335693,-43.95600128173828,-0.6280000209808348,-9.83899974822998,-0.221000000834465
1621932291692,-4.375,-1.4860000610351565,-43.97650146484375,-0.5490000247955322,-9.762000083923342,-0.2080000042915344
1621932291702,-4.690000057220459,0.0099999997764825,-43.99700164794922,-0.5490000247955322,-9.6850004196167,-0.1940000057220459
1621932291712,-4.619999885559082,3.1489999294281006,-43.65599822998047,-0.5099999904632568,-9.729999542236328,-0.1620000004768371
1621932291722,-3.569999933242798,6.599999904632568,-43.4739990234375,-0.5099999904632568,-9.814000129699709,-0.1369999945163726
1621932291732,-2.5199999809265137,9.758000373840332,-42.84600067138672,-0.5490000247955322,-9.814000129699709,-0.1369999945163726
1621932291742,-1.0499999523162842,13.47700023651123,-42.972999572753906,-0.5099999904632568,-9.776000022888184,-0.1299999952316284
1621932291752,0.4900000095367431,17.082000732421875,-43.26100158691406,-0.5099999904632568,-9.704999923706056,-0.0780000016093254
1621932291762,2.0999999046325684,21.1200008392334,-43.18899917602539,-0.3919999897480011,-9.58899974822998,-0.0579999983310699
1621932291772,3.849999904632568,25.584999084472656,-43.11199951171875,-0.3529999852180481,-9.616999626159668,0.0970000028610229
1621932291782,5.809999942779541,30.288999557495117,-42.779998779296875,-0.3529999852180481,-9.571000099182127,0.0649999976158142
1621932291792,7.070000171661377,35.263999938964844,-43.18199920654297,-0.2349999994039535,-9.564000129699709,0.0260000005364418
1621932291802,8.329999923706055,40.43399810791016,-43.479000091552734,-0.2349999994039535,-9.661999702453612,0.1289999932050705
1621932291812,8.960000038146973,46.17599868774414,-43.39099884033203,-0.0780000016093254,-9.623000144958496,0.135000005364418
1621932291822,9.170000076293944,50.92900085449219,-42.125999450683594,0.0,-9.592000007629396,0.1809999942779541
1621932291832,8.680000305175781,55.35699844360352,-40.6349983215332,0.1570000052452087,-9.630000114440918,0.1739999949932098
1621932291842,7.699999809265136,59.6879997253418,-39.79999923706055,0.4309999942779541,-9.630000114440918,0.1739999949932098
1621932291852,6.579999923706055,62.99300003051758,-37.582000732421875,0.7059999704360961,-9.592000007629396,0.1809999942779541
1621932291862,5.53000020980835,65.46299743652344,-34.659000396728516,0.981000006198883,-9.47599983215332,0.2010000050067901
1621932291872,5.039999961853027,66.802001953125,-31.367000579833984,1.2549999952316284,-9.397999763488768,0.2150000035762786
1621932291882,5.320000171661377,67.53199768066406,-29.461000442504883,1.5299999713897705,-9.321000099182127,0.2290000021457672
1621932291892,5.635000228881836,67.57049560546875,-28.67200088500977,1.843999981880188,-9.411999702453612,0.2919999957084655
1621932291902,5.949999809265137,67.60900115966797,-27.882999420166016,2.0789999961853027,-9.451000213623049,0.2849999964237213
1621932291912,6.929999828338623,67.16300201416016,-25.75900077819824,2.2750000953674316,-9.5600004196167,0.2259999960660934
1621932291922,7.420000076293945,65.6510009765625,-22.82699966430664,2.3540000915527344,-9.772999763488768,0.3079999983310699
1621932291932,7.699999809265136,64.45500183105469,-20.479000091552734,2.3929998874664307,-9.90999984741211,0.4040000140666961
1621932291942,8.050000190734863,63.13399887084961,-18.224000930786133,2.431999921798706,-9.968999862670898,0.5130000114440918
1621932291952,8.119999885559082,62.797000885009766,-17.92799949645996,2.510999917984009,-10.020999908447266,0.5830000042915344
1621932291961,7.8400001525878915,62.05500030517578,-17.347999572753906,2.5889999866485596,-10.072999954223633,0.6539999842643737
1621932291971,7.280000209808349,61.20800018310547,-15.364999771118164,2.6670000553131104,-10.125,0.7239999771118164
1621932291981,6.510000228881836,59.64699935913086,-12.156999588012695,2.7070000171661377,-10.17099952697754,0.7559999823570251
1621932291991,5.110000133514404,57.74599838256836,-8.227999687194824,2.628000020980835,-10.203000068664553,0.7099999785423278
1621932292001,3.7799999713897705,56.06399917602539,-4.329999923706055,2.549999952316284,-10.279999732971191,0.6970000267028807
1621932292011,2.5199999809265137,54.6609992980957,-2.0190000534057617,2.431999921798706,-10.286999702453612,0.7350000143051147
1621932292021,1.0499999523162842,53.821998596191406,-0.887000024318695,2.3929998874664307,-10.215999603271484,0.7879999876022338
1621932292031,0.4900000095367431,53.5099983215332,-0.7289999723434448,2.313999891281128,-10.145999908447266,0.8399999737739563
1621932292041,-0.4199999868869781,53.83000183105469,-1.7389999628067017,2.236000061035156,-10.074999809265137,0.8920000195503234
1621932292051,-1.2599999904632568,54.5880012512207,-2.813999891281128,2.118000030517578,-9.998000144958496,0.906000018119812
1621932292061,-1.9600000381469729,55.297000885009766,-4.821000099182129,2.0789999961853027,-10.01200008392334,0.9829999804496764
1621932292071,-2.5899999141693115,55.775001525878906,-6.7270002365112305,2.118000030517578,-9.947999954223633,1.0740000009536743
1621932292081,-3.569999933242798,56.457000732421875,-8.170999526977539,2.118000030517578,-9.90999984741211,1.0809999704360962
1621932292091,-4.96999979019165,57.20199966430664,-9.175999641418455,2.1570000648498535,-9.947999954223633,1.0740000009536743
1621932292101,-5.529999732971191,57.404998779296875,-8.71399974822998,2.118000030517578,-10.031999588012695,1.0989999771118164
1621932292111,-6.090000152587891,57.608001708984375,-8.251999855041504,2.1570000648498535,-9.987000465393066,1.0670000314712524
1621932292121,-8.050000190734863,57.23099899291992,-6.114999771118164,2.236000061035156,-9.972999572753906,0.9900000095367432
1621932292131,-9.3100004196167,56.34000015258789,-3.072999954223633,2.236000061035156,-9.965999603271484,0.9509999752044676
1621932292141,-9.869999885559082,54.422000885009766,1.35099995136261,2.118000030517578,-9.960000038146973,0.9129999876022338
1621932292151,-9.9399995803833,52.29399871826172,4.955999851226807,2.000999927520752,-9.906999588012695,0.8420000076293945
1621932292161,-9.729999542236328,49.54100036621094,7.669000148773193,1.8830000162124632,-9.89400005340576,0.7649999856948853
1621932292171,-8.680000305175781,47.03499984741211,9.78600025177002,1.7649999856948853,-9.95699977874756,0.6740000247955322
1621932292181,-7.8400001525878915,44.428001403808594,11.671999931335447,1.6480000019073486,-9.982000350952148,0.5899999737739563
1621932292191,-6.929999828338623,41.47600173950195,13.496999740600586,1.491000056266785,-10.0,0.4670000076293945
1621932292201,-7.070000171661377,38.1150016784668,14.824000358581545,1.2940000295639038,-9.987000465393066,0.3899999856948852
1621932292211,-7.349999904632568,35.354000091552734,15.972000122070312,1.0980000495910645,-9.965999603271484,0.2739999890327453
1621932292221,-7.489999771118165,33.1879997253418,16.159000396728516,0.9020000100135804,-9.965999603271484,0.2739999890327453
1621932292231,-7.139999866485596,31.958999633789062,14.661999702453612,0.7059999704360961,-9.857000350952148,0.3330000042915344
1621932292241,-6.369999885559082,31.77199935913086,11.288999557495115,0.5490000247955322,-9.727999687194824,0.2759999930858612
1621932292251,-5.809999942779541,31.606000900268555,8.20300006866455,0.4709999859333038,-9.675999641418455,0.2060000002384185
1621932292261,-5.179999828338623,31.79599952697754,5.109000205993652,0.3529999852180481,-9.623000144958496,0.135000005364418
1621932292271,-5.320000171661377,32.59000015258789,2.61899995803833,0.2349999994039535,-9.687000274658203,0.0450000017881393
1621932292281,-6.510000228881836,33.72100067138672,-0.1669999957084655,0.1180000007152557,-9.75699996948242,-0.0080000003799796
1621932292291,-7.490000247955321,33.97650146484375,-1.6145000457763672,0.1180000007152557,-9.82800006866455,-0.0599999986588954
1621932292301,-8.470000267028809,34.231998443603516,-3.062000036239624,0.1180000007152557,-9.937000274658203,-0.1190000027418136
1621932292311,-11.130000114440918,35.20899963378906,-4.169000148773193,0.0780000016093254,-9.885000228881836,-0.1889999955892562
1621932292321,-14.06999969482422,36.45800018310547,-4.802000045776367,0.1180000007152557,-9.793999671936035,-0.2529999911785125
1621932292331,-16.3799991607666,37.10200119018555,-4.830999851226807,0.1959999948740005,-9.678000450134276,-0.2329999953508377
1621932292341,-17.850000381469727,37.65800094604492,-5.158999919891357,0.2349999994039535,-9.503000259399414,-0.3210000097751617
1621932292351,-17.989999771118164,37.645999908447266,-5.090000152587891,0.3140000104904174,-9.270999908447264,-0.2800000011920929
1621932292361,-16.3799991607666,37.25699996948242,-5.301000118255615,0.3529999852180481,-9.175999641418455,-0.1439999938011169
1621932292371,-13.369999885559082,36.040000915527344,-5.6579999923706055,0.4309999942779541,-9.053000450134276,-0.1620000004768371
1621932292381,-9.449999809265137,34.50699996948242,-5.429999828338623,0.5099999904632568,-9.008000373840332,-0.1940000057220459
1621932292391,-5.949999809265137,32.26100158691406,-5.186999797821045,0.4709999859333038,-9.085000038146973,-0.2080000042915344
1621932292401,-3.359999895095825,29.81599998474121,-4.623000144958496,0.3919999897480011,-9.303000450134276,-0.3260000050067901
1621932292411,-2.940000057220459,27.67099952697754,-4.1479997634887695,0.3140000104904174,-9.619000434875488,-0.3420000076293945
1621932292421,-4.409999847412109,25.38800048828125,-3.697999954223633,0.1570000052452087,-9.772999763488768,-0.3689999878406524
1621932292431,-7.139999866485596,23.48200035095215,-4.176000118255615,0.0,-9.819000244140623,-0.3370000123977661
1621932292441,-9.65999984741211,22.02199935913086,-5.571000099182129,-0.0780000016093254,-9.710000038146973,-0.277999997138977
1621932292451,-11.270000457763672,21.579999923706055,-7.497000217437744,-0.1570000052452087,-9.55500030517578,-0.2509999871253967
1621932292461,-11.899999618530272,21.69300079345703,-8.543000221252441,-0.2349999994039535,-9.329999923706056,-0.1710000038146972
1621932292471,-11.6899995803833,21.450000762939453,-8.371999740600586,-0.2750000059604644,-9.277999877929688,-0.2419999986886978
1621932292481,-10.56999969482422,21.084999084472656,-7.513000011444091,-0.3529999852180481,-9.277999877929688,-0.2419999986886978
1621932292491,-9.59000015258789,20.97949981689453,-6.7139997482299805,-0.4309999942779541,-9.270999908447264,-0.2800000011920929
1621932292501,-8.609999656677246,20.874000549316406,-5.914999961853027,-0.4309999942779541,-9.29599952697754,-0.3650000095367431
1621932292511,-6.369999885559082,20.687999725341797,-4.454999923706055,-0.4709999859333038,-9.418999671936035,-0.3459999859333038
1621932292521,-4.900000095367432,20.229999542236328,-2.260999917984009,-0.4709999859333038,-9.48900032043457,-0.3989999890327453
1621932292531,-4.340000152587891,19.958999633789062,-0.3190000057220459,-0.5099999904632568,-9.604999542236328,-0.4189999997615814
1621932292541,-3.569999933242798,19.447999954223633,1.368000030517578,-0.5879999995231628,-9.64400005340576,-0.4259999990463256
1621932292551,-2.869999885559082,18.51099967956543,1.8420000076293943,-0.5879999995231628,-9.612000465393066,-0.3799999952316284
1621932292561,-1.75,17.319000244140625,1.3480000495910645,-0.6280000209808348,-9.53499984741211,-0.367000013589859
1621932292571,0.209999993443489,16.038000106811523,0.5529999732971191,-0.6280000209808348,-9.496000289916992,-0.3600000143051147
1621932292581,2.1700000762939453,14.687000274658203,-0.2529999911785125,-0.6280000209808348,-9.458000183105469,-0.3529999852180481
1621932292591,4.130000114440918,14.005999565124512,-1.2269999980926514,-0.6669999957084655,-9.541999816894531,-0.328000009059906
1621932292601,5.53000020980835,13.434000015258787,-2.819999933242798,-0.7059999704360961,-9.663999557495115,-0.3100000023841857
1621932292611,6.230000019073486,12.777000427246094,-5.138999938964844,-0.7059999704360961,-9.741999626159668,-0.3240000009536743
1621932292621,6.579999923706055,12.87399959564209,-6.89900016784668,-0.7059999704360961,-9.748000144958496,-0.2849999964237213
1621932292631,6.650000095367432,13.015000343322754,-8.508999824523926,-0.7450000047683715,-9.748000144958496,-0.2849999964237213
1621932292641,6.440000057220459,12.970999717712402,-9.868000030517578,-0.6669999957084655,-9.800999641418455,-0.2150000035762786
1621932292651,5.739999771118164,12.763999938964844,-9.904000282287598,-0.5879999995231628,-9.845999717712402,-0.1829999983310699
1621932292661,4.900000095367432,12.171999931335447,-9.369000434875488,-0.5879999995231628,-9.885000228881836,-0.1889999955892562
1621932292671,3.9200000762939458,11.692999839782717,-8.670999526977539,-0.6280000209808348,-9.897999763488768,-0.1120000034570694
1621932292681,2.869999885559082,10.97599983215332,-8.229000091552734,-0.6669999957084655,-9.814000129699709,-0.1369999945163726
1621932292691,2.4499998092651367,10.758999824523926,-8.409500122070312,-0.6669999957084655,-9.762000083923342,-0.2080000042915344
1621932292701,2.0299999713897705,10.541999816894531,-8.59000015258789,-0.6280000209808348,-9.800999641418455,-0.2150000035762786
1621932292711,1.1200000047683716,9.446999549865724,-8.428000450134277,-0.6280000209808348,-9.786999702453612,-0.2919999957084655
1621932292721,0.4199999868869781,8.270999908447266,-8.208000183105469,-0.6280000209808348,-9.779999732971191,-0.3300000131130218
1621932292731,0.2800000011920929,6.822999954223633,-8.46399974822998,-0.6669999957084655,-9.663999557495115,-0.3100000023841857
1621932292741,0.699999988079071,5.13700008392334,-7.765999794006347,-0.6669999957084655,-9.54800033569336,-0.2899999916553497
1621932292751,1.190000057220459,3.4170000553131104,-7.2870001792907715,-0.7059999704360961,-9.53499984741211,-0.367000013589859
1621932292761,2.5899999141693115,2.0910000801086426,-7.02400016784668,-0.7450000047683715,-9.503000259399414,-0.3210000097751617
1621932292771,4.199999809265137,0.915000021457672,-6.803999900817871,-0.7850000262260437,-9.46399974822998,-0.3149999976158142
1621932292781,5.739999771118164,0.5419999957084655,-7.510000228881835,-0.7059999704360961,-9.347999572753906,-0.2939999997615814
1621932292791,7.559999942779541,-0.135000005364418,-7.699999809265136,-0.6669999957084655,-9.3100004196167,-0.2870000004768371
1621932292801,9.869999885559082,-0.135000005364418,-8.909000396728516,-0.6280000209808348,-9.28499984741211,-0.2029999941587448
1621932292811,12.109999656677246,0.4000000059604644,-11.94200038909912,-0.5490000247955322,-9.30500030517578,-0.0869999974966049
1621932292821,14.699999809265137,0.4600000083446502,-14.703000068664553,-0.4709999859333038,-9.467000007629396,-0.0759999975562095
1621932292831,16.59000015258789,0.5009999871253967,-16.54400062561035,-0.3919999897480011,-9.550999641418455,-0.0509999990463256
1621932292841,18.200000762939453,0.6019999980926513,-17.52199935913086,-0.3919999897480011,-9.68000030517578,0.006000000052154
1621932292851,19.739999771118164,0.1560000032186508,-17.81399917602539,-0.4309999942779541,-9.72599983215332,0.0379999987781047
1621932292861,20.790000915527344,0.7429999709129333,-19.131999969482425,-0.4709999859333038,-9.746000289916992,0.1539999991655349
1621932292871,21.559999465942383,1.1119999885559082,-19.208999633789062,-0.4709999859333038,-9.760000228881836,0.231000006198883
1621932292881,21.84000015258789,1.968000054359436,-18.417999267578125,-0.4709999859333038,-9.720999717712402,0.2380000054836273
1621932292891,22.084999084472656,2.4179999828338623,-17.947498321533203,-0.5099999904632568,-9.651000022888184,0.2899999916553497
1621932292901,22.329999923706055,2.868000030517578,-17.476999282836914,-0.6669999957084655,-9.67099952697754,0.4059999883174896
1621932292911,22.61000061035156,4.044000148773193,-17.69700050354004,-0.7059999704360961,-9.607000350952148,0.4970000088214874
1621932292921,23.520000457763672,5.39900016784668,-19.73200035095215,-0.7450000047683715,-9.569000244140623,0.5040000081062316
1621932292931,25.270000457763672,7.543000221252441,-21.415000915527344,-0.7850000262260437,-9.562000274658203,0.4650000035762786
1621932292941,26.530000686645508,9.704999923706056,-22.385000228881836,-0.7450000047683715,-9.58199977874756,0.5809999704360961
1621932292951,28.13999938964844,11.171999931335447,-23.049999237060547,-0.7450000047683715,-9.569000244140623,0.5040000081062316
1621932292961,29.61000061035156,13.467000007629396,-23.569000244140625,-0.7059999704360961,-9.704999923706056,0.5989999771118164
1621932292971,29.329999923706055,15.069000244140623,-23.78499984741211,-0.6280000209808348,-9.925000190734863,0.7189999818801879
1621932292981,27.3700008392334,16.96299934387207,-23.23699951171875,-0.5879999995231628,-10.131999969482422,0.7630000114440918
1621932292991,24.36000061035156,19.222000122070312,-22.34199905395508,-0.5490000247955322,-10.229999542236328,0.865000009536743
1621932293001,20.86000061035156,21.111000061035156,-21.368999481201172,-0.3529999852180481,-10.321000099182127,0.9290000200271606
1621932293011,16.3799991607666,22.733999252319336,-20.08799934387207,-0.2349999994039535,-10.274999618530272,0.8970000147819519
1621932293021,11.899999618530272,24.35199928283691,-18.381000518798828,-0.1180000007152557,-10.229999542236328,0.865000009536743
1621932293031,8.329999923706055,25.224000930786133,-16.875999450683594,0.0,-10.152999877929688,0.8790000081062316
1621932293041,5.110000133514404,25.475000381469727,-15.480999946594238,0.1180000007152557,-10.074999809265137,0.8920000195503234
1621932293051,2.7300000190734863,25.062000274658203,-14.345999717712402,0.2349999994039535,-9.913999557495115,0.8809999823570251
1621932293061,1.1200000047683716,24.288000106811523,-12.777000427246094,0.3140000104904174,-9.822999954223633,0.8169999718666076
1621932293071,-0.6299999952316284,23.32699966430664,-10.956000328063965,0.4309999942779541,-9.777999877929688,0.7850000262260437
1621932293081,-2.7300000190734863,21.822999954223633,-8.875,0.4709999859333038,-9.887000083923342,0.7260000109672546
1621932293091,-5.110000133514404,19.38999938964844,-5.964000225067139,0.4709999859333038,-10.0600004196167,0.5759999752044677
1621932293101,-7.699999809265136,16.490999221801758,-2.4230000972747803,0.5099999904632568,-10.149999618530272,0.6399999856948853
1621932293111,-8.469999313354492,15.380499839782717,-1.162000060081482,0.5099999904632568,-9.996000289916992,0.6669999957084655
1621932293121,-9.239999771118164,14.270000457763672,0.0989999994635581,0.5490000247955322,-9.835000038146973,0.656000018119812
1621932293131,-9.729999542236328,12.107999801635742,-0.1400000005960464,0.5490000247955322,-9.847999572753906,0.7329999804496765
1621932293141,-8.819999694824219,9.927000045776367,-0.6660000085830688,0.5490000247955322,-9.73900032043457,0.7919999957084655
1621932293151,-7.559999942779541,8.272000312805176,0.25,0.5490000247955322,-9.71399974822998,0.8759999871253967
1621932293161,-6.789999961853027,6.519999980926514,0.5099999904632568,0.5879999995231628,-9.79800033569336,0.9010000228881836
1621932293171,-5.389999866485596,5.489999771118164,-0.0979999974370002,0.6280000209808348,-9.92099952697754,0.9190000295639038
1621932293181,-4.760000228881836,3.4630000591278076,0.1129999980330467,0.6280000209808348,-10.08199977874756,0.930999994277954
1621932293191,-4.96999979019165,2.433000087738037,0.7129999995231628,0.6280000209808348,-10.166000366210936,0.955999970436096
1621932293201,-5.880000114440918,0.8069999814033508,1.0659999847412107,0.6280000209808348,-10.204999923706056,0.9490000009536744
1621932293211,-7.139999866485596,-0.5270000100135803,0.9729999899864196,0.7059999704360961,-10.133999824523926,1.0010000467300415
1621932293221,-8.1899995803833,-1.8329999446868896,0.31700000166893,0.7059999704360961,-10.064000129699709,1.0529999732971191
1621932293231,-8.680000305175781,-2.388000011444092,-0.5630000233650208,0.7059999704360961,-9.961999893188477,1.1510000228881836
1621932293241,-8.890000343322754,-3.2769999504089355,-1.5729999542236328,0.7850000262260437,-9.944000244140623,1.27400004863739
1621932293251,-8.609999656677246,-4.014999866485596,-2.627000093460083,0.7850000262260437,-9.852999687194824,1.2100000381469729
1621932293261,-8.119999885559082,-4.834000110626221,-3.624000072479248,0.7850000262260437,-9.76900005340576,1.184999942779541
1621932293271,-7.559999942779541,-5.057000160217285,-4.375,0.8240000009536743,-9.722999572753906,1.1529999971389773
1621932293281,-7.210000038146973,-5.414000034332275,-4.366000175476074,0.8240000009536743,-9.6850004196167,1.1599999666213987
1621932293291,-7.420000076293945,-5.818999767303467,-4.083000183105469,0.8629999756813049,-9.638999938964846,1.128000020980835
1621932293301,-7.489999771118165,-6.091000080108643,-3.3489999771118164,0.8240000009536743,-9.638999938964846,1.128000020980835
1621932293311,-7.980000019073486,-5.998000144958496,-2.2660000324249268,0.7850000262260437,-9.663999557495115,1.0440000295639038
1621932293321,-8.609999656677246,-5.815000057220459,-2.0920000076293945,0.7450000047683715,-9.663999557495115,1.0440000295639038
1621932293331,-8.819999694824219,-5.746000289916992,-2.0794999599456787,0.7059999704360961,-9.663999557495115,1.0440000295639038
1621932293341,-9.029999732971191,-5.677000045776367,-2.066999912261963,0.6669999957084655,-9.663999557495115,1.0440000295639038
1621932293351,-9.029999732971191,-5.065000057220459,-2.315000057220459,0.6669999957084655,-9.593999862670898,1.0970000028610227
1621932293361,-8.75,-4.9679999351501465,-1.6579999923706057,0.6669999957084655,-9.55500030517578,1.1030000448226929
1621932293371,-8.1899995803833,-4.696000099182129,-1.1829999685287476,0.5099999904632568,-9.522999763488768,1.14900004863739
1621932293381,-7.8400001525878915,-4.623000144958496,-0.3889999985694885,0.4709999859333038,-9.600000381469728,1.1349999904632568
1621932293391,-7.280000209808349,-3.686000108718872,0.3449999988079071,0.4309999942779541,-9.645999908447264,1.1670000553131104
1621932293401,-7.070000171661377,-3.190999984741211,0.3610000014305114,0.4309999942779541,-9.645999908447264,1.1670000553131104
1621932293411,-6.860000133514404,-2.0840001106262207,0.1299999952316284,0.3529999852180481,-9.607000350952148,1.1740000247955322
1621932293421,-6.929999828338623,-1.0260000228881836,0.1749999970197677,0.2750000059604644,-9.607000350952148,1.1740000247955322
1621932293431,-7.280000209808349,0.1749999970197677,1.0260000228881836,0.1570000052452087,-9.638999938964846,1.128000020980835
1621932293441,-7.769999980926514,2.2139999866485596,0.7459999918937683,0.0,-9.690999984741213,1.1990000009536743
1621932293451,-8.050000190734863,5.170000076293945,-0.2969999909400939,-0.0780000016093254,-9.6850004196167,1.1599999666213987
1621932293461,-7.559999942779541,8.531000137329102,-1.6230000257492063,-0.1180000007152557,-9.61400032043457,1.212000012397766
1621932293471,-7.349999904632568,12.140000343322754,-3.5460000038146973,-0.1180000007152557,-9.58199977874756,1.2580000162124634
1621932293481,-6.71999979019165,15.565999984741213,-4.434000015258789,-0.1180000007152557,-9.58199977874756,1.2580000162124634
1621932293491,-6.159999847412109,19.058000564575195,-4.885000228881836,-0.1180000007152557,-9.61400032043457,1.212000012397766
1621932293501,-5.949999809265137,21.81100082397461,-5.181000232696533,-0.1180000007152557,-9.652999877929688,1.2059999704360962
1621932293511,-6.300000190734863,24.66200065612793,-6.0289998054504395,-0.0390000008046627,-9.690999984741213,1.1990000009536743
1621932293521,-6.369999885559082,26.920000076293945,-6.3420000076293945,0.0,-9.715999603271484,1.1150000095367432
1621932293531,-7.0,28.749000549316406,-6.23199987411499,0.0390000008046627,-9.690999984741213,1.1990000009536743
1621932293541,-7.210000038146973,30.500999450683594,-6.492000102996826,0.0780000016093254,-9.793999671936035,1.10099995136261
1621932293551,-7.699999809265136,32.93000030517578,-6.561999797821045,0.0,-9.83199977874756,1.093999981880188
1621932293561,-8.260000228881836,36.255001068115234,-6.4730000495910645,-0.0390000008046627,-9.793999671936035,1.10099995136261
1621932293571,-8.364999771118164,37.77349853515625,-6.418499946594238,-0.0390000008046627,-9.800000190734863,1.1399999856948853
1621932293581,-8.470000267028809,39.29199981689453,-6.363999843597412,-0.0390000008046627,-9.793999671936035,1.10099995136261
1621932293591,-8.539999961853027,42.3129997253418,-5.760000228881836,0.0780000016093254,-9.800000190734863,1.1399999856948853
1621932293600,-8.819999694824219,44.52299880981445,-4.5879998207092285,0.1570000052452087,-9.715999603271484,1.1150000095367432
1621932293610,-8.399999618530273,46.2140007019043,-3.2950000762939453,0.2750000059604644,-9.67099952697754,1.0829999446868896
1621932293620,-7.699999809265136,46.48199844360352,-2.3949999809265137,0.3919999897480011,-9.619000434875488,1.0130000114440918
1621932293630,-7.0,46.10499954223633,-1.465999960899353,0.5099999904632568,-9.579999923706056,1.0190000534057615
1621932293640,-5.949999809265137,45.119998931884766,-0.7160000205039978,0.6280000209808348,-9.527999877929688,0.9490000009536744
1621932293650,-5.110000133514404,43.77399826049805,-0.740000009536743,0.7059999704360961,-9.5600004196167,0.902999997138977
1621932293660,-4.269999980926514,41.46599960327149,-1.3600000143051147,0.7850000262260437,-9.637000083923342,0.8899999856948853
1621932293670,-3.849999904632568,38.76900100708008,-2.190999984741211,0.8240000009536743,-9.668999671936035,0.8439999818801879
1621932293680,-4.409999847412109,35.715999603271484,-3.013999938964844,0.8629999756813049,-9.75699996948242,0.6690000295639038
1621932293690,-4.690000057220459,32.37099838256836,-3.390000104904175,0.8629999756813049,-9.82800006866455,0.6169999837875366
1621932293700,-5.460000038146973,29.475000381469727,-3.901000022888184,0.8240000009536743,-9.852999687194824,0.5329999923706054
1621932293710,-6.300000190734863,26.506999969482425,-5.205999851226807,0.7450000047683715,-9.76900005340576,0.5080000162124633
1621932293720,-6.510000228881836,23.575000762939453,-6.7179999351501465,0.7059999704360961,-9.690999984741213,0.5220000147819519
1621932293730,-5.880000114440918,21.738000869750977,-8.392999649047852,0.6669999957084655,-9.652999877929688,0.5289999842643737
1621932293740,-5.599999904632568,20.606000900268555,-9.232000350952148,0.5879999995231628,-9.704999923706056,0.5989999771118164
1621932293750,-5.179999828338623,19.625,-10.116000175476074,0.5490000247955322,-9.65999984741211,0.5669999718666076
1621932293760,-4.550000190734863,19.256000518798828,-11.246999740600586,0.5490000247955322,-9.711999893188477,0.6380000114440918
1621932293770,-4.199999809265137,18.891000747680664,-11.595999717712402,0.5879999995231628,-9.75100040435791,0.6309999823570251
1621932293780,-3.430000066757202,18.500999450683594,-10.597999572753906,0.6280000209808348,-9.75100040435791,0.6309999823570251
1621932293790,-2.7300000190734863,17.610000610351562,-8.765000343322754,0.6280000209808348,-9.744000434875488,0.5920000076293945
1621932293800,-1.8899999856948853,16.499000549316406,-6.900000095367432,0.6669999957084655,-9.704999923706056,0.5989999771118164
1621932293810,-1.6449999809265137,15.718500137329102,-5.900500297546387,0.7059999704360961,-9.704999923706056,0.5989999771118164
1621932293820,-1.399999976158142,14.937999725341797,-4.901000022888184,0.7850000262260437,-9.704999923706056,0.5989999771118164
1621932293830,-0.699999988079071,13.315999984741213,-2.555999994277954,0.7450000047683715,-9.704999923706056,0.5989999771118164
1621932293840,-0.1400000005960464,11.38599967956543,-0.4799999892711639,0.7850000262260437,-9.704999923706056,0.5989999771118164
1621932293850,0.0700000002980232,9.359000205993652,0.9390000104904174,0.7850000262260437,-9.718999862670898,0.6759999990463256
1621932293860,-0.0700000002980232,7.197999954223633,1.909000039100647,0.8240000009536743,-9.711999893188477,0.6380000114440918
1621932293870,-0.0700000002980232,4.603000164031982,2.5179998874664307,0.8629999756813049,-9.75100040435791,0.6309999823570251
1621932293880,0.0,1.63100004196167,2.8459999561309814,0.8629999756813049,-9.75100040435791,0.6309999823570251
1621932293890,0.699999988079071,-1.0659999847412107,3.2239999771118164,0.9409999847412108,-9.704999923706056,0.5989999771118164
1621932293900,1.190000057220459,-4.525000095367432,3.89299988746643,1.0980000495910645,-9.711999893188477,0.6380000114440918
1621932293910,1.75,-9.3100004196167,4.827000141143799,1.215999960899353,-9.67300033569336,0.6439999938011169
1621932293920,2.380000114440918,-15.019000053405762,6.165999889373779,1.569000005722046,-9.75100040435791,0.6309999823570251
1621932293930,2.940000057220459,-22.604999542236328,8.880000114440918,1.9609999656677248,-9.803000450134276,0.7009999752044677
1621932293940,2.869999885559082,-33.74800109863281,11.605999946594238,2.2750000953674316,-9.725000381469728,0.7149999737739563
1621932293950,2.450000047683716,-46.93899917602539,14.255999565124512,2.3929998874664307,-9.647999763488768,0.7279999852180481
1621932293960,2.240000009536743,-60.21799850463867,16.604999542236328,2.431999921798706,-9.571000099182127,0.7419999837875366
1621932293970,2.0999999046325684,-72.76799774169922,17.236000061035156,2.2750000953674316,-9.468999862670898,0.8399999737739563
1621932293980,2.309999942779541,-83.61199951171875,16.24799919128418,1.9609999656677248,-9.437000274658203,0.8849999904632568
1621932293990,2.6600000858306885,-92.3949966430664,14.059000015258787,1.687000036239624,-9.482000350952148,0.9169999957084656
1621932294000,2.380000114440918,-99.00499725341795,12.041000366210936,1.2940000295639038,-9.637000083923342,0.8899999856948853
1621932294010,1.399999976158142,-103.87100219726562,11.822999954223633,1.0199999809265137,-9.696000099182127,0.9990000128746032
1621932294020,0.5600000023841857,-107.58100128173828,11.097000122070312,0.7059999704360961,-9.786999702453612,1.062999963760376
1621932294030,-0.1399999856948852,-108.70249938964844,11.006000518798828,0.4309999942779541,-9.83199977874756,1.093999981880188
1621932294040,-0.8399999737739563,-109.8239974975586,10.914999961853027,0.2349999994039535,-9.786999702453612,1.062999963760376
1621932294050,-1.6100000143051147,-110.64299774169922,11.12600040435791,0.0780000016093254,-9.748000144958496,1.069000005722046
1621932294060,-1.6799999475479126,-111.197998046875,11.454999923706056,-0.0390000008046627,-9.63199996948242,1.0900000333786013
1621932294070,-0.7699999809265136,-111.04399871826172,12.192999839782717,-0.1570000052452087,-9.510000228881836,1.0720000267028809
1621932294080,0.1400000005960464,-110.70800018310548,13.104999542236328,-0.3140000104904174,-9.399999618530272,1.13100004196167
1621932294090,1.6100000143051147,-109.93299865722656,13.95199966430664,-0.4309999942779541,-9.28499984741211,1.1510000228881836
1621932294100,2.5899999141693115,-108.84999847412108,15.06700038909912,-0.5490000247955322,-9.28499984741211,1.1510000228881836
1621932294110,3.849999904632568,-107.3939971923828,15.678999900817873,-0.6280000209808348,-9.362000465393066,1.1369999647140503
1621932294120,4.409999847412109,-105.50900268554688,15.869999885559082,-0.7450000047683715,-9.354999542236328,1.0989999771118164
1621932294130,4.059999942779541,-103.4530029296875,13.88700008392334,-0.8240000009536743,-9.347999572753906,1.059999942779541
1621932294140,4.059999942779541,-101.95700073242188,11.449000358581545,-0.9020000100135804,-9.354999542236328,1.0989999771118164
1621932294150,3.7100000381469727,-99.88899993896484,9.397000312805178,-0.8629999756813049,-9.46399974822998,1.0399999618530271
1621932294160,3.2200000286102295,-98.66899871826172,8.119999885559082,-0.9020000100135804,-9.53499984741211,0.9879999756813048
1621932294170,3.1500000953674316,-97.33100128173828,6.578999996185303,-0.9020000100135804,-9.64400005340576,0.9279999732971193
1621932294180,2.5899999141693115,-96.39099884033205,4.46999979019165,-0.9020000100135804,-9.71399974822998,0.8759999871253967
1621932294190,1.9600000381469729,-95.14199829101562,2.628999948501587,-0.8629999756813049,-9.777999877929688,0.7850000262260437
1621932294200,1.75,-95.08100128173828,1.0759999752044678,-0.7450000047683715,-9.847999572753906,0.7329999804496765
1621932294210,1.4700000286102295,-95.96900177001952,0.0659999996423721,-0.6669999957084655,-9.887000083923342,0.7260000109672546
1621932294220,0.699999988079071,-97.7249984741211,-0.4569999873638153,-0.5879999995231628,-9.880000114440918,0.6880000233650208
1621932294230,-0.209999993443489,-99.6999969482422,-0.9470000267028807,-0.5490000247955322,-9.815999984741213,0.7789999842643737
1621932294240,-0.7699999809265136,-100.54000091552734,-2.2320001125335693,-0.6280000209808348,-9.770999908447264,0.746999979019165
1621932294250,-1.0149999856948853,-100.57250213623048,-3.659500122070313,-0.9020000100135804,-9.73900032043457,0.7919999957084655
1621932294260,-1.2599999904632568,-100.6050033569336,-5.086999893188477,-1.0199999809265137,-9.70699977874756,0.8379999995231628
1621932294270,-1.2599999904632568,-99.97699737548828,-8.246000289916992,-1.0980000495910645,-9.675000190734863,0.8830000162124633
1621932294280,-0.4900000095367431,-98.16100311279298,-10.484999656677246,-1.2549999952316284,-9.689000129699709,0.9599999785423278
1621932294290,0.4199999868869781,-95.77200317382812,-12.338000297546388,-1.3730000257492063,-9.812000274658203,0.977999985218048
1621932294300,1.8899999856948853,-92.4029998779297,-13.30799961090088,-1.4119999408721924,-9.857000350952148,1.0099999904632568
1621932294310,2.869999885559082,-88.60399627685547,-14.699000358581545,-1.4509999752044678,-9.90999984741211,1.0809999704360962
1621932294320,3.1500000953674316,-84.61799621582033,-15.133999824523926,-1.3339999914169312,-9.940999984741213,1.0349999666213987
1621932294330,3.0799999237060547,-80.68800354003906,-14.440999984741213,-1.2549999952316284,-10.019000053405762,1.0219999551773071
1621932294340,2.799999952316284,-77.3550033569336,-12.786999702453612,-1.215999960899353,-10.133999824523926,1.0010000467300415
1621932294350,2.380000114440918,-73.59200286865236,-11.55500030517578,-1.1380000114440918,-10.166000366210936,0.955999970436096
1621932294360,1.6100000143051147,-70.07599639892578,-12.142999649047852,-1.0590000152587893,-10.11400032043457,0.8849999904632568
1621932294370,0.9100000262260436,-67.31900024414062,-12.864999771118164,-0.981000006198883,-10.100000381469728,0.8080000281333923
1621932294380,0.7699999809265136,-64.71900177001953,-12.690999984741213,-0.8629999756813049,-10.215999603271484,0.7879999876022338
1621932294390,0.1400000005960464,-62.60300064086914,-11.394000053405762,-0.7850000262260437,-10.241000175476074,0.7039999961853027
1621932294400,0.4199999868869781,-60.98400115966797,-9.687000274658203,-0.7450000047683715,-10.156999588012695,0.6790000200271606
1621932294410,0.4199999868869781,-59.76800155639648,-8.121999740600586,-0.7059999704360961,-10.072999954223633,0.6539999842643737
1621932294420,1.75,-58.895999908447266,-6.618000030517578,-0.5490000247955322,-10.027999877929688,0.621999979019165
1621932294430,3.2899999618530273,-58.53799819946289,-4.209000110626221,-0.5099999904632568,-10.003000259399414,0.7059999704360961
1621932294440,4.480000019073486,-58.137001037597656,-1.649999976158142,-0.5099999904632568,-9.89400005340576,0.7649999856948853
1621932294450,5.599999904632568,-58.32699966430664,0.2349999994039535,-0.5099999904632568,-9.791000366210936,0.8629999756813049
1621932294460,7.0,-58.12799835205078,1.1230000257492063,-0.4709999859333038,-9.604999542236328,0.9350000023841856
1621932294470,7.349999904632568,-57.998497009277344,1.3949999809265137,-0.4309999942779541,-9.53499984741211,0.9879999756813048
1621932294480,7.699999809265136,-57.868999481201165,1.6670000553131104,-0.4309999942779541,-9.418999671936035,1.0080000162124634
1621932294490,8.1899995803833,-58.00199890136719,2.424999952316284,-0.3919999897480011,-9.335000038146973,0.9829999804496764
1621932294500,8.1899995803833,-58.387001037597656,2.996999979019165,-0.3529999852180481,-9.288999557495115,0.9509999752044676
1621932294510,7.210000038146973,-59.055999755859375,4.370999813079834,-0.3140000104904174,-9.281999588012695,0.9120000004768372
1621932294520,5.670000076293945,-60.34600067138672,5.63700008392334,-0.2750000059604644,-9.204999923706056,0.9259999990463256
1621932294530,3.2899999618530273,-62.29999923706055,7.85099983215332,-0.3140000104904174,-9.076000213623049,0.8690000176429749
1621932294540,0.2800000011920929,-64.3550033569336,9.833999633789062,-0.2750000059604644,-8.913999557495117,0.8579999804496765
1621932294550,-2.5899999141693115,-67.03099822998047,11.708000183105469,-0.2349999994039535,-8.741999626159668,1.0080000162124634
1621932294560,-5.739999771118164,-70.46600341796875,13.447999954223633,-0.2349999994039535,-8.503000259399414,1.0099999904632568
1621932294570,-9.449999809265137,-74.05000305175781,16.44099998474121,-0.2750000059604644,-8.194000244140625,1.065000057220459
1621932294580,-12.600000381469728,-78.68399810791016,19.746999740600582,-0.2750000059604644,-8.07800006866455,1.0850000381469729
1621932294590,-15.68000030517578,-83.21299743652344,24.06599998474121,-0.3140000104904174,-8.468999862670898,0.8169999718666076
1621932294600,-17.920000076293945,-88.20800018310547,31.43000030517578,-0.3919999897480011,-10.163999557495115,0.0399999991059303
1621932294610,-17.43000030517578,-94.89299774169922,43.54399871826172,-0.5099999904632568,-12.33899974822998,0.1739999949932098
1621932294620,-14.0,-100.94100189208984,57.6879997253418,-0.981000006198883,-11.590999603271484,1.5809999704360962
1621932294630,-15.609999656677246,-103.30899810791016,57.41299819946289,-1.2940000295639038,-8.972999572753906,1.6440000534057615
1621932294640,-11.409999847412108,-103.01499938964844,44.457000732421875,-1.2940000295639038,-6.948999881744385,1.6820000410079956
1621932294650,0.9800000190734864,-101.3209991455078,36.86600112915039,-0.981000006198883,-7.228000164031982,1.9119999408721924
1621932294660,7.210000038146973,-99.10700225830078,38.81999969482422,-0.981000006198883,-8.862000465393066,2.1419999599456787
1621932294670,6.369999885559082,-97.01799774169922,38.26399993896485,-1.2940000295639038,-9.88199996948242,2.2809998989105225
1621932294680,6.404999732971191,-95.86750030517578,31.5364990234375,-1.5299999713897705,-10.050000190734863,2.3310000896453857
1621932294690,6.440000057220459,-94.71700286865236,24.80900001525879,-1.3730000257492063,-10.10200023651123,2.4010000228881836
1621932294700,8.960000038146973,-90.53900146484376,5.145999908447266,-0.8240000009536743,-10.246000289916992,2.5350000858306885
1621932294710,9.800000190734863,-85.00199890136719,-8.520000457763672,-0.5099999904632568,-10.343000411987305,2.63700008392334
1621932294720,8.960000038146973,-79.95800018310547,-14.95199966430664,-0.2750000059604644,-10.350000381469728,2.6760001182556152
1621932294730,7.630000114440918,-76.20800018310547,-20.900999069213867,-0.0390000008046627,-10.33199977874756,2.799000024795532
1621932294740,6.369999885559082,-73.37100219726562,-26.51300048828125,0.2750000059604644,-10.33199977874756,2.799000024795532
1621932294750,4.199999809265137,-70.84100341796875,-28.76799964904785,0.5490000247955322,-10.248000144958496,2.7739999294281006
1621932294760,1.2599999904632568,-67.86000061035156,-27.531999588012695,0.6669999957084655,-10.163999557495115,2.749000072479248
1621932294770,-2.380000114440918,-65.18699645996094,-24.14699935913086,0.7450000047683715,-10.008999824523926,2.7760000228881836
1621932294780,-6.369999885559082,-62.45399856567382,-22.31399917602539,0.8629999756813049,-9.91800022125244,2.711999893188477
1621932294790,-9.729999542236328,-60.01300048828125,-21.243999481201172,1.0199999809265137,-9.91800022125244,2.711999893188477
1621932294800,-12.8100004196167,-57.571998596191406,-20.173999786376953,1.0980000495910645,-9.982000350952148,2.621000051498413
1621932294810,-15.81999969482422,-55.24800109863281,-18.84000015258789,1.1770000457763672,-9.89099979400635,2.558000087738037
1621932294820,-18.200000762939453,-53.79199981689453,-18.22800064086914,1.3730000257492063,-9.579999923706056,2.374000072479248
1621932294830,-19.739999771118164,-52.895999908447266,-18.06999969482422,1.4509999752044678,-9.444000244140623,2.2780001163482666
1621932294840,-20.3700008392334,-52.51900100708008,-17.790000915527344,1.569000005722046,-9.26900005340576,2.190000057220459
1621932294850,-20.649999618530273,-52.141998291015625,-17.510000228881836,1.569000005722046,-9.062000274658203,2.1459999084472656
1621932294860,-20.020000457763672,-52.46200180053711,-16.500999450683594,1.6080000400543213,-9.062000274658203,2.1459999084472656
1621932294870,-19.18000030517578,-52.36000061035156,-16.268999099731445,1.569000005722046,-9.13199996948242,2.0940001010894775
1621932294880,-18.899999618530273,-51.82099914550781,-16.10300064086914,1.569000005722046,-9.293999671936035,2.1050000190734863
1621932294890,-18.795000076293945,-51.34049987792969,-15.80500030517578,1.5299999713897705,-9.68000030517578,2.0369999408721924
1621932294900,-18.690000534057617,-50.86000061035156,-15.506999969482422,1.491000056266785,-10.027999877929688,1.97599995136261
1621932294910,-19.600000381469727,-49.20899963378906,-14.789999961853027,1.3730000257492063,-10.27299976348877,2.01200008392334
1621932294920,-21.0,-47.4900016784668,-14.0600004196167,1.2940000295639038,-10.357000350952148,2.0369999408721924
1621932294930,-22.61000061035156,-45.46200180053711,-13.062999725341797,1.2549999952316284,-10.255000114440918,2.134999990463257
1621932294940,-24.290000915527344,-43.06600189208984,-12.142999649047852,1.2549999952316284,-10.138999938964844,2.1559998989105225
1621932294950,-24.56999969482422,-40.59199905395508,-12.062000274658203,1.215999960899353,-10.02299976348877,2.1760001182556152
1621932294960,-23.940000534057617,-37.506000518798835,-12.229000091552734,1.215999960899353,-9.932000160217283,2.111999988555908
1621932294970,-23.3799991607666,-34.2140007019043,-12.359000205993652,1.1380000114440918,-9.887000083923342,2.0810000896453857
1621932294980,-22.88999938964844,-30.617000579833984,-11.79599952697754,1.0980000495910645,-9.833999633789062,2.009999990463257
1621932294990,-22.260000228881836,-26.820999145507812,-11.553000450134276,1.0199999809265137,-9.75,1.9850000143051147
1621932295000,-22.1200008392334,-23.118999481201172,-11.1850004196167,1.0590000152587893,-9.737000465393066,1.9079999923706057
1621932295010,-21.489999771118164,-19.50200080871582,-10.333000183105469,1.0199999809265137,-9.755000114440918,1.7849999666213987
1621932295020,-21.350000381469727,-16.090999603271484,-8.3100004196167,1.0590000152587893,-9.779999732971191,1.7009999752044678
1621932295030,-22.049999237060547,-12.62399959564209,-6.205999851226807,1.0199999809265137,-9.80500030517578,1.6169999837875366
1621932295040,-23.239999771118164,-10.0649995803833,-4.190999984741211,0.981000006198883,-9.73900032043457,1.468999981880188
1621932295050,-24.43000030517578,-7.531000137329101,-3.246999979019165,0.9020000100135804,-9.647999763488768,1.406000018119812
1621932295060,-25.829999923706055,-4.784999847412109,-2.691999912261963,0.8629999756813049,-9.595999717712402,1.3350000381469729
1621932295070,-26.950000762939453,-2.2019999027252197,-3.2320001125335693,0.8629999756813049,-9.460000038146973,1.2400000095367432
1621932295080,-27.440000534057617,0.003000000026077,-4.051000118255615,0.8629999756813049,-9.362000465393066,1.1369999647140503
1621932295090,-27.510000228881836,0.7940000295639038,-4.302499771118164,0.9020000100135804,-9.25699996948242,0.996999979019165
1621932295100,-27.579999923706055,1.5850000381469729,-4.553999900817871,0.9020000100135804,-9.229999542236328,0.8420000076293945
1621932295110,-27.440000534057617,2.8380000591278076,-5.61299991607666,0.8629999756813049,-9.262000083923342,0.7969999909400939
1621932295120,-26.38999938964844,4.176000118255615,-7.1539998054504395,0.9020000100135804,-9.357000350952148,0.6600000262260437
1621932295130,-25.200000762939453,4.788000106811523,-8.609000205993652,0.9409999847412108,-9.42099952697754,0.5690000057220459
1621932295140,-23.799999237060547,5.2170000076293945,-10.239999771118164,0.981000006198883,-9.562000274658203,0.4650000035762786
1621932295150,-22.540000915527344,5.204999923706055,-11.378999710083008,0.9020000100135804,-9.63199996948242,0.4129999876022338
1621932295160,-21.13999938964844,5.2170000076293945,-12.656000137329102,0.7850000262260437,-9.612000465393066,0.2969999909400939
1621932295170,-20.020000457763672,5.071000099182129,-13.038000106811523,0.6669999957084655,-9.612000465393066,0.2969999909400939
1621932295180,-18.40999984741211,4.747000217437744,-11.60200023651123,0.5879999995231628,-9.446000099182127,0.4850000143051147
1621932295190,-16.65999984741211,3.7090001106262207,-10.149999618530272,0.4709999859333038,-9.168999671936035,0.4939999878406524
1621932295199,-13.579999923706056,1.9049999713897705,-7.980000019073486,0.3919999897480011,-9.161999702453612,0.4560000002384185
1621932295209,-9.59000015258789,-0.5360000133514404,-5.426000118255615,0.2750000059604644,-9.329999923706056,0.5059999823570251
1621932295220,-6.019999980926514,-3.1670000553131104,-2.193000078201294,0.0390000008046627,-9.484999656677246,0.4790000021457672
1621932295230,-3.2200000286102295,-5.579999923706055,-0.202000007033348,-0.1959999948740005,-9.576000213623049,0.5419999957084655
1621932295239,-1.1200000047683716,-8.093999862670898,-0.859000027179718,-0.3919999897480011,-9.607000350952148,0.4970000088214874
1621932295249,1.399999976158142,-10.527000427246094,-2.7799999713897705,-0.5490000247955322,-9.755000114440918,0.4309999942779541
1621932295259,3.990000009536743,-12.805999755859377,-3.96399998664856,-0.6280000209808348,-9.994000434875488,0.4289999902248382
1621932295269,6.71999979019165,-15.11400032043457,-4.584000110626221,-0.7450000047683715,-10.197999954223633,0.2329999953508377
1621932295279,10.079999923706056,-18.374000549316406,-5.442999839782715,-0.8240000009536743,-10.366000175476074,0.2829999923706054
1621932295289,11.270000457763672,-20.25749969482422,-5.846499919891357,-0.981000006198883,-10.373000144958496,0.3219999969005584
1621932295299,12.460000038146973,-22.141000747680664,-6.25,-1.0199999809265137,-10.380000114440918,0.3600000143051147
1621932295309,14.489999771118164,-26.292999267578125,-6.484000205993652,-1.0199999809265137,-10.328000068664553,0.2899999916553497
1621932295319,15.75,-29.975000381469727,-6.565000057220459,-1.1380000114440918,-10.314000129699709,0.2129999995231628
1621932295329,15.81999969482422,-33.612998962402344,-7.703999996185303,-1.2549999952316284,-10.385000228881836,0.1609999984502792
1621932295339,14.279999732971191,-35.70199966430664,-10.77299976348877,-1.3730000257492063,-10.409999847412108,0.0759999975562095
1621932295349,12.31999969482422,-37.13800048828125,-14.722999572753906,-1.4119999408721924,-10.402999877929688,0.0379999987781047
1621932295359,10.640000343322754,-37.26800155639648,-18.01499938964844,-1.491000056266785,-10.319000244140623,0.0130000002682209
1621932295369,9.9399995803833,-37.53200149536133,-21.757999420166016,-1.5299999713897705,-10.234999656677246,-0.0120000001043081
1621932295379,9.869999885559082,-36.737998962402344,-25.45599937438965,-1.4119999408721924,-10.27299976348877,-0.0189999993890523
1621932295389,11.0600004196167,-35.42399978637695,-29.275999069213867,-1.3730000257492063,-10.293999671936035,0.0970000028610229
1621932295399,11.899999618530272,-33.53099822998047,-33.5629997253418,-1.2940000295639038,-10.015999794006348,0.1059999987483024
1621932295409,11.970000267028809,-31.21699905395508,-38.62799835205078,-1.1380000114440918,-9.637000083923342,0.2129999995231628
1621932295419,12.109999656677246,-28.9950008392334,-43.56700134277344,-0.981000006198883,-9.29599952697754,0.3129999935626983
1621932295429,12.880000114440918,-26.108999252319336,-47.03799819946289,-0.8240000009536743,-8.979999542236328,0.328000009059906
1621932295439,14.420000076293944,-23.09199905395508,-49.63399887084961,-0.7059999704360961,-8.845999717712402,0.4720000028610229
1621932295449,15.960000038146973,-20.261999130249023,-51.97800064086914,-0.5879999995231628,-8.697999954223633,0.537000000476837
1621932295459,18.829999923706055,-16.871999740600586,-53.86800003051758,-0.5099999904632568,-8.543999671936035,0.5649999976158142
1621932295469,22.88999938964844,-13.961000442504885,-55.06100082397461,-0.4709999859333038,-8.472999572753906,0.6169999837875366
1621932295479,26.809999465942383,-11.005000114440918,-54.89500045776367,-0.3140000104904174,-8.40999984741211,0.7080000042915344
1621932295489,30.520000457763672,-8.8149995803833,-52.803001403808594,-0.1959999948740005,-8.468999862670898,0.8169999718666076
1621932295499,31.885000228881836,-7.636499881744384,-51.42250061035156,-0.1180000007152557,-8.513999938964844,0.8489999771118164
1621932295509,33.25,-6.458000183105469,-50.04199981689453,-0.0780000016093254,-8.572999954223633,0.9580000042915344
1621932295519,35.97999954223633,-4.389999866485596,-47.2599983215332,0.0,-8.741999626159668,1.0080000162124634
1621932295529,37.869998931884766,-2.2690000534057617,-43.97200012207031,0.1570000052452087,-8.92300033569336,1.1349999904632568
1621932295539,38.9900016784668,-0.1720000058412551,-39.33700180053711,0.1959999948740005,-9.329999923706056,1.1829999685287476
1621932295549,38.43000030517578,2.002000093460083,-34.33399963378906,0.2349999994039535,-9.652999877929688,1.2059999704360962
1621932295559,36.04999923706055,4.265999794006348,-29.030000686645508,0.3529999852180481,-9.975000381469728,1.2280000448226929
1621932295569,32.689998626708984,6.326000213623047,-24.18899917602539,0.3919999897480011,-10.13700008392334,1.2400000095367432
1621932295579,27.86000061035156,8.225000381469727,-19.233999252319336,0.3529999852180481,-10.194000244140623,1.1100000143051147
1621932295589,23.239999771118164,9.288000106811523,-14.781999588012695,0.4709999859333038,-10.116000175476074,1.1239999532699585
1621932295599,18.40999984741211,11.02400016784668,-10.921999931335447,0.5879999995231628,-10.04599952697754,1.1759999990463257
1621932295609,14.630000114440918,11.803000450134276,-6.875,0.6669999957084655,-9.937000274658203,1.2350000143051147
1621932295619,11.6899995803833,12.465000152587892,-3.7730000019073486,0.7850000262260437,-9.845999717712402,1.1720000505447388
1621932295629,9.65999984741211,12.522000312805176,-1.274999976158142,0.9409999847412108,-9.748000144958496,1.069000005722046
1621932295639,7.559999942779541,11.585000038146973,0.4079999923706054,1.0199999809265137,-9.625,1.0509999990463257
1621932295649,6.300000190734863,10.328000068664553,1.8919999599456787,1.0199999809265137,-9.520999908447264,0.9100000262260436
1621932295659,5.039999961853027,8.847999572753906,2.625999927520752,1.0590000152587893,-9.513999938964846,0.871999979019165
1621932295669,3.5,7.440999984741211,2.947000026702881,0.981000006198883,-9.609999656677246,0.7350000143051147
1621932295679,1.9600000381469729,5.689000129699707,1.9980000257492063,0.9020000100135804,-9.602999687194824,0.6970000267028807
1621932295689,-1.0499999523162842,4.5329999923706055,0.0890000015497207,0.8240000009536743,-9.628000259399414,0.6129999756813049
1621932295699,-2.625,4.451999664306641,-1.062999963760376,0.6669999957084655,-9.505000114440918,0.5939999818801879
1621932295709,-4.199999809265137,4.370999813079834,-2.2149999141693115,0.5879999995231628,-9.38199996948242,0.5759999752044677
1621932295719,-7.769999980926514,4.171999931335449,-5.519000053405762,0.5490000247955322,-9.439000129699709,0.4469999969005584
1621932295729,-10.710000038146973,5.054999828338623,-8.918000221252441,0.4309999942779541,-9.734999656677246,0.3149999976158142
1621932295739,-13.859999656677246,6.892000198364258,-12.07699966430664,0.3919999897480011,-10.05500030517578,0.0989999994635581
1621932295749,-18.059999465942383,8.954999923706055,-14.91100025177002,0.1570000052452087,-10.312000274658203,-0.0260000005364418
1621932295759,-23.030000686645508,10.57699966430664,-17.2549991607666,0.1570000052452087,-10.312000274658203,-0.0260000005364418
1621932295769,-27.579999923706055,13.479999542236328,-17.59600067138672,0.0780000016093254,-10.402999877929688,0.0379999987781047
1621932295779,-31.56999969482422,16.023000717163086,-17.503999710083008,0.0780000016093254,-10.550000190734863,-0.0280000008642673
1621932295789,-35.0,18.415000915527344,-18.573999404907227,0.0,-10.595999717712402,0.0040000001899898
1621932295799,-37.869998931884766,21.249000549316406,-20.13599967956543,-0.0390000008046627,-10.51200008392334,-0.0209999997168779
1621932295809,-40.880001068115234,23.98200035095215,-21.929000854492188,-0.0780000016093254,-10.37600040435791,-0.1169999986886978
1621932295819,-42.4900016784668,26.698999404907227,-23.22699928283691,-0.1959999948740005,-10.394000053405762,-0.238999992609024
1621932295829,-43.04999923706055,29.74799919128418,-25.60300064086914,-0.2349999994039535,-10.362000465393066,-0.1940000057220459
1621932295839,-42.84000015258789,33.37300109863281,-28.020999908447266,-0.3140000104904174,-10.45699977874756,-0.3300000131130218
1621932295849,-42.630001068115234,37.54899978637695,-31.548999786376953,-0.3140000104904174,-10.527999877929688,-0.3829999864101409
1621932295859,-42.84000015258789,41.10499954223633,-33.97800064086914,-0.2750000059604644,-10.47599983215332,-0.453000009059906
1621932295869,-42.41999816894531,44.51900100708008,-36.00600051879883,-0.1570000052452087,-10.385000228881836,-0.5170000195503234
1621932295879,-42.279998779296875,47.76300048828125,-37.069000244140625,-0.0390000008046627,-10.255000114440918,-0.5730000138282775
1621932295889,-42.13999938964844,50.04600143432618,-37.52000045776367,0.1180000007152557,-10.10099983215332,-0.5460000038146972
1621932295899,-41.474998474121094,50.87699890136719,-37.80000305175781,0.1959999948740005,-9.932000160217283,-0.5960000157356262
1621932295909,-40.810001373291016,51.70800018310547,-38.08000183105469,0.3140000104904174,-9.623000144958496,-0.5419999957084655
1621932295919,-39.689998626708984,53.5890007019043,-39.880001068115234,0.5490000247955322,-9.532999992370604,-0.6050000190734863
1621932295929,-37.099998474121094,55.1619987487793,-41.948001861572266,0.7450000047683715,-10.034999847412108,-0.6940000057220459
1621932295939,-32.83000183105469,57.652000427246094,-44.77899932861328,0.7850000262260437,-10.50100040435791,-0.537000000476837
1621932295949,-26.530000686645508,60.76499938964844,-47.92599868774414,0.7850000262260437,-10.468999862670898,-0.492000013589859
1621932295959,-21.559999465942383,63.01900100708008,-53.85499954223633,1.0199999809265137,-10.411999702453612,-0.3619999885559082
1621932295969,-17.149999618530273,66.21399688720703,-59.47600173950195,1.2940000295639038,-10.428000450134276,-0.0460000000894069
1621932295979,-13.789999961853027,70.40299987792969,-59.448001861572266,1.4509999752044678,-10.352999687194824,0.2060000002384185
1621932295989,-10.850000381469728,74.55899810791016,-57.22200012207031,1.6080000400543213,-10.284999847412108,0.4970000088214874
1621932295999,-5.809999942779541,78.64299774169922,-57.0,1.8830000162124632,-9.88199996948242,0.9259999990463256
1621932296009,0.0700000002980232,81.41999816894531,-57.43399810791016,2.236000061035156,-9.13199996948242,1.4170000553131104
1621932296019,5.389999866485596,83.64299774169922,-53.915000915527344,2.549999952316284,-8.37600040435791,1.86899995803833
1621932296029,10.079999923706056,85.16899871826172,-47.24800109863281,2.628000020980835,-7.735000133514405,2.3010001182556152
1621932296039,14.630000114440918,87.45999908447266,-41.29999923706055,2.549999952316284,-7.679999828338623,2.6689999103546143
1621932296049,17.850000381469727,91.38200378417967,-37.3390007019043,2.3929998874664307,-7.895999908447266,2.989000082015991
1621932296059,18.899999618530273,96.93399810791016,-36.573001861572266,2.3540000915527344,-8.104999542236328,3.2709999084472656
1621932296069,18.40999984741211,103.02400207519533,-39.266998291015625,2.5889999866485596,-8.286999702453613,3.3980000019073486
1621932296079,17.5,106.8030014038086,-40.94599914550781,2.9809999465942383,-8.538999557495117,3.4730000495910645
1621932296089,15.68000030517578,108.14099884033205,-37.65299987792969,3.372999906539917,-8.758999824523926,3.5940001010894775
1621932296099,14.524999618530272,107.58000183105467,-34.269500732421875,3.5299999713897705,-8.928000450134277,3.6440000534057617
1621932296109,13.369999885559082,107.0189971923828,-30.88599967956543,3.6480000019073486,-9.08899974822998,3.6549999713897705
1621932296219,-21.90999984741211,101.72899627685548,7.986000061035157,1.9609999656677248,-10.458999633789062,3.2939999103546143
1621932296229,-25.969999313354492,103.6510009765625,9.178000450134276,1.8040000200271609,-10.277000427246094,3.1670000553131104
1621932296239,-29.61000061035156,106.88300323486328,10.60099983215332,1.687000036239624,-10.057000160217283,3.0460000038146973
1621932296249,-32.970001220703125,110.18000030517578,11.253000259399414,1.5299999713897705,-9.88199996948242,2.9579999446868896
1621932296259,-35.90999984741211,113.7239990234375,11.3100004196167,1.4119999408721924,-9.66800022125244,2.875999927520752
1621932296269,-38.43000030517578,117.56400299072266,10.494000434875488,1.2940000295639038,-9.487000465393066,2.749000072479248
1621932296279,-39.689998626708984,121.47299957275392,9.690999984741213,1.2549999952316284,-9.375,2.569000005722046
1621932296289,-40.35499954223633,123.2550048828125,9.86299991607666,1.215999960899353,-9.329999923706056,2.5369999408721924
1621932296299,-41.02000045776367,125.03700256347656,10.034999847412108,1.1380000114440918,-9.284000396728516,2.505000114440918
1621932296309,-42.349998474121094,128.6219940185547,10.666999816894531,1.0980000495910645,-9.154999732971191,2.4489998817443848
1621932296319,-43.2599983215332,132.33599853515625,10.967000007629396,1.0199999809265137,-9.102999687194824,2.378000020980835
1621932296329,-43.75,135.75900268554688,11.711999893188477,0.981000006198883,-9.102999687194824,2.378000020980835
1621932296339,-44.099998474121094,139.79800415039062,12.993000030517578,0.9020000100135804,-9.057000160217283,2.3459999561309814
1621932296349,-44.52000045776367,144.26199340820312,13.069000244140623,0.9020000100135804,-8.987000465393066,2.3989999294281006
1621932296359,-43.540000915527344,148.24400329589844,11.85200023651123,0.9409999847412108,-8.878000259399414,2.4579999446868896
1621932296369,-41.650001525878906,151.66200256347656,10.607000350952148,1.0980000495910645,-8.769000053405762,2.5169999599456787
1621932296379,-38.56999969482422,154.0590057373047,10.319000244140623,1.2940000295639038,-8.769000053405762,2.5169999599456787
1621932296389,-34.93000030517578,155.00399780273438,11.409000396728516,1.4509999752044678,-8.814000129699707,2.549000024795532
1621932296399,-31.079999923706055,154.88600158691406,12.880999565124512,1.6480000019073486,-8.866000175476074,2.61899995803833
1621932296409,-27.299999237060547,153.75100708007812,13.675999641418455,1.8830000162124632,-8.788999557495117,2.6329998970031734
1621932296419,-23.170000076293945,150.79100036621094,13.935999870300291,2.0789999961853027,-8.833999633789062,2.6640000343322754
1621932296429,-18.899999618530273,146.57000732421875,14.89799976348877,2.236000061035156,-8.795999526977539,2.6710000038146973
1621932296439,-14.979999542236328,141.3509979248047,15.470000267028809,2.2750000953674316,-8.82800006866455,2.625999927520752
1621932296449,-11.899999618530272,136.52499389648435,14.619999885559082,2.2750000953674316,-8.949999809265137,2.6440000534057617
1621932296459,-10.079999923706056,131.54600524902344,11.821999549865724,2.118000030517578,-9.227999687194824,2.634999990463257
1621932296469,-10.220000267028809,127.03199768066406,8.395999908447266,2.0789999961853027,-9.42099952697754,2.6010000705718994
1621932296479,-12.529999732971191,123.58100128173828,5.797999858856201,1.9609999656677248,-9.58199977874756,2.611999988555908
1621932296489,-13.93000030517578,122.28700256347656,5.072000026702881,1.7649999856948853,-9.628000259399414,2.6440000534057617
1621932296499,-15.329999923706056,120.99299621582033,4.3460001945495605,1.569000005722046,-9.524999618530272,2.7420001029968266
1621932296509,-17.709999084472656,119.22499847412108,2.684000015258789,1.4119999408721924,-9.357000350952148,2.691999912261963
1621932296519,-18.549999237060547,118.47499847412108,1.6990000009536743,1.3339999914169312,-9.234000205993652,2.674000024795532
1621932296529,-17.920000076293945,117.81800079345705,0.5879999995231628,1.3339999914169312,-9.220999717712402,2.5959999561309814
1621932296539,-16.940000534057617,116.96199798583984,-0.2029999941587448,1.3339999914169312,-9.21399974822998,2.558000087738037
1621932296549,-15.75,115.4739990234375,-1.034000039100647,1.3730000257492063,-9.123000144958496,2.49399995803833
1621932296559,-14.210000038146973,113.49500274658205,-2.306999921798706,1.4509999752044678,-9.102999687194824,2.378000020980835
1621932296569,-12.8100004196167,111.47499847412108,-4.156000137329102,1.4119999408721924,-9.244000434875488,2.2739999294281006
1621932296579,-12.25,109.76399993896484,-5.736999988555908,1.3730000257492063,-9.50699996948242,2.187000036239624
1621932296589,-12.670000076293944,108.65599822998048,-7.921999931335449,1.215999960899353,-9.809000015258787,2.0940001010894775
1621932296599,-13.090000152587892,108.26699829101562,-11.758000373840332,1.1380000114440918,-9.982000350952148,1.944000005722046
1621932296609,-13.4399995803833,107.66999816894533,-15.630999565124512,1.215999960899353,-10.116000175476074,1.8009999990463257
1621932296619,-13.300000190734863,106.6969985961914,-17.365999221801758,1.2549999952316284,-10.166000366210936,1.6330000162124634
1621932296629,-13.020000457763672,104.77799987792967,-17.774999618530273,1.3730000257492063,-10.131999969482422,1.440000057220459
1621932296639,-12.529999732971191,101.82599639892578,-18.367000579833984,1.491000056266785,-9.949999809265137,1.312999963760376
1621932296649,-12.109999656677246,98.11599731445312,-17.884000778198242,1.5299999713897705,-9.645999908447264,1.1670000553131104
1621932296659,-11.270000457763672,93.91100311279298,-16.208999633789062,1.569000005722046,-9.373000144958496,0.9760000109672546
1621932296669,-10.359999656677246,89.51200103759767,-14.638999938964844,1.491000056266785,-9.152999877929688,0.856000006198883
1621932296679,-8.890000343322754,85.43699645996094,-14.503999710083008,1.3730000257492063,-9.12600040435791,0.7009999752044677
1621932296689,-7.420000076293945,81.31700134277344,-15.727999687194824,1.2549999952316284,-9.14400005340576,0.578000009059906
