timestamp,gyro_x,gyro_y,gyro_z,acc_x,acc_y,acc_z
1622101066987,0.0,0.0,0.0,0.0,0.0,0.0
1622101066996,0.4199999868869781,4.11899995803833,-4.817999839782715,0.1959999948740005,-9.704999923706056,-0.7549999952316284
1622101067006,0.3149999976158142,4.145500183105469,-4.564499855041504,0.1959999948740005,-9.744000434875488,-0.762000024318695
1622101067016,0.209999993443489,4.171999931335449,-4.310999870300293,0.2349999994039535,-9.697999954223633,-0.7940000295639038
1622101067026,0.0,4.156000137329102,-3.8159999847412114,0.2349999994039535,-9.697999954223633,-0.7940000295639038
1622101067036,-0.1400000005960464,3.8069999217987065,-3.450999975204468,0.1959999948740005,-9.737000465393066,-0.8009999990463256
1622101067046,-0.0700000002980232,3.7179999351501465,-3.750999927520752,0.1959999948740005,-9.704999923706056,-0.7549999952316284
1622101067056,0.0,3.7219998836517334,-4.177000045776367,0.1570000052452087,-9.697999954223633,-0.7940000295639038
1622101067066,-0.0700000002980232,3.997999906539917,-4.129000186920166,0.1570000052452087,-9.697999954223633,-0.7940000295639038
1622101067076,-0.0700000002980232,3.9530000686645503,-4.2789998054504395,0.1180000007152557,-9.704999923706056,-0.7549999952316284
1622101067086,0.3499999940395355,4.078999996185303,-4.184999942779541,0.1180000007152557,-9.645999908447264,-0.8640000224113464
1622101067096,0.7699999809265136,4.367000102996826,-4.205999851226807,0.1180000007152557,-9.652999877929688,-0.8259999752044677
1622101067106,0.9100000262260436,4.249000072479248,-3.9419999122619633,0.1180000007152557,-9.6850004196167,-0.8709999918937683
1622101067116,1.1200000047683716,4.156000137329102,-3.8159999847412114,0.1180000007152557,-9.80799961090088,-0.8529999852180481
1622101067126,0.9800000190734864,4.179999828338623,-3.9539999961853023,0.1180000007152557,-9.697999954223633,-0.7940000295639038
1622101067136,0.7699999809265136,4.01800012588501,-5.048999786376953,0.1570000052452087,-9.652999877929688,-0.8259999752044677
1622101067146,0.9100000262260436,3.628000020980835,-5.260000228881836,0.1570000052452087,-9.697999954223633,-0.7940000295639038
1622101067156,0.9800000190734864,3.7339999675750737,-5.453999996185303,0.1570000052452087,-9.704999923706056,-0.7549999952316284
1622101067166,0.7699999809265136,3.888000011444092,-5.925000190734863,0.1570000052452087,-9.782999992370604,-0.7689999938011169
1622101067176,0.3499999940395355,3.9930000305175786,-6.119999885559082,0.1570000052452087,-9.782999992370604,-0.7689999938011169
1622101067186,0.1400000005960464,4.223999977111816,-6.2210001945495605,0.1180000007152557,-9.788999557495115,-0.7300000190734863
1622101067196,-0.1400000005960464,4.618000030517578,-6.435999870300293,0.1180000007152557,-9.758000373840332,-0.6850000023841857
1622101067206,-0.2800000011920929,5.205999851226807,-6.545000076293945,0.0780000016093254,-9.788999557495115,-0.7300000190734863
1622101067216,-0.3849999904632568,5.341500282287598,-6.308000087738037,0.1180000007152557,-9.744000434875488,-0.762000024318695
1622101067226,-0.4900000095367431,5.4770002365112305,-6.071000099182129,0.1180000007152557,-9.776000022888184,-0.8080000281333923
1622101067236,-0.6299999952316284,5.809999942779541,-5.940999984741211,0.1570000052452087,-9.744000434875488,-0.762000024318695
1622101067246,-0.8399999737739563,5.943999767303467,-5.491000175476074,0.1959999948740005,-9.697999954223633,-0.7940000295639038
1622101067256,-0.8399999737739563,6.0370001792907715,-5.617000102996826,0.2349999994039535,-9.75100040435791,-0.7239999771118164
1622101067266,-0.9100000262260436,6.0980000495910645,-5.961999893188477,0.2750000059604644,-9.744000434875488,-0.762000024318695
1622101067276,-0.9100000262260436,5.914999961853027,-6.136000156402588,0.2750000059604644,-9.744000434875488,-0.762000024318695
1622101067286,-1.190000057220459,5.659999847412109,-5.896999835968018,0.2349999994039535,-9.704999923706056,-0.7549999952316284
1622101067296,-1.1200000047683716,5.056000232696533,-5.291999816894531,0.2750000059604644,-9.697999954223633,-0.7940000295639038
1622101067306,-1.190000057220459,4.7230000495910645,-5.421999931335449,0.2750000059604644,-9.697999954223633,-0.7940000295639038
1622101067316,-0.699999988079071,4.8979997634887695,-5.605000019073486,0.3140000104904174,-9.704999923706056,-0.7549999952316284
1622101067326,-0.4900000095367431,4.735000133514404,-5.491000175476074,0.2349999994039535,-9.65999984741211,-0.787000000476837
1622101067336,-0.4199999868869781,4.690999984741211,-5.640999794006348,0.2349999994039535,-9.704999923706056,-0.7549999952316284
1622101067346,-0.4900000095367431,5.064000129699707,-6.144000053405762,0.2349999994039535,-9.704999923706056,-0.7549999952316284
1622101067356,-0.5600000023841857,5.270999908447266,-6.107999801635742,0.2750000059604644,-9.729999542236328,-0.8389999866485595
1622101067366,-0.6299999952316284,4.876999855041504,-5.89300012588501,0.2750000059604644,-9.729999542236328,-0.8389999866485595
1622101067376,-0.8399999737739563,4.75600004196167,-6.4120001792907715,0.2750000059604644,-9.737000465393066,-0.8009999990463256
1622101067386,-1.399999976158142,4.442999839782715,-6.252999782562256,0.3140000104904174,-9.737000465393066,-0.8009999990463256
1622101067396,-1.3300000429153442,4.419000148773193,-6.116000175476074,0.3529999852180481,-9.697999954223633,-0.7940000295639038
1622101067406,-1.2599999904632568,3.9200000762939458,-5.705999851226807,0.3529999852180481,-9.697999954223633,-0.7940000295639038
1622101067416,-0.9800000190734864,3.7339999675750737,-5.453999996185303,0.3529999852180481,-9.65999984741211,-0.787000000476837
1622101067426,-0.7699999809265136,3.5959999561309814,-5.478499889373779,0.3529999852180481,-9.65999984741211,-0.787000000476837
1622101067436,-0.5600000023841857,3.4579999446868896,-5.502999782562256,0.3140000104904174,-9.65999984741211,-0.787000000476837
1622101067446,-0.2800000011920929,3.061000108718872,-4.861999988555908,0.3140000104904174,-9.65999984741211,-0.787000000476837
1622101067456,-0.0700000002980232,2.765000104904175,-3.990000009536743,0.2750000059604644,-9.666999816894531,-0.7490000128746032
1622101067466,0.4199999868869781,2.7730000019073486,-3.634000062942505,0.2750000059604644,-9.666999816894531,-0.7490000128746032
1622101067476,0.5600000023841857,2.61899995803833,-3.163000106811523,0.2750000059604644,-9.652999877929688,-0.8259999752044677
1622101067486,0.209999993443489,2.63100004196167,-3.2320001125335693,0.1959999948740005,-9.697999954223633,-0.7940000295639038
1622101067496,0.0,3.1500000953674316,-3.3540000915527344,0.1959999948740005,-9.704999923706056,-0.7549999952316284
1622101067506,-0.3499999940395355,3.36899995803833,-3.385999917984009,0.1570000052452087,-9.704999923706056,-0.7549999952316284
1622101067516,-0.209999993443489,3.9809999465942383,-3.634000062942505,0.1180000007152557,-9.666999816894531,-0.7490000128746032
1622101067526,0.1400000005960464,4.232999801635742,-3.447000026702881,0.1570000052452087,-9.58899974822998,-0.7350000143051147
1622101067536,0.9100000262260436,4.2129998207092285,-3.7349998950958256,0.1959999948740005,-9.583000183105469,-0.7739999890327453
1622101067546,1.4700000286102295,4.1479997634887695,-4.172999858856201,0.1959999948740005,-9.621000289916992,-0.7799999713897705
1622101067556,1.8200000524520872,4.208000183105469,-4.51800012588501,0.2750000059604644,-9.543999671936035,-0.7670000195503234
1622101067566,2.0999999046325684,3.430000066757202,-4.939000129699707,0.3140000104904174,-9.65999984741211,-0.787000000476837
1622101067576,2.450000047683716,3.250999927520752,-5.539999961853027,0.2349999994039535,-9.697999954223633,-0.7940000295639038
1622101067586,2.5899999141693115,3.134000062942505,-5.276000022888184,0.2750000059604644,-9.704999923706056,-0.7549999952316284
1622101067596,2.7300000190734863,2.5420000553131104,-4.741000175476074,0.2349999994039535,-9.758000373840332,-0.6850000023841857
1622101067606,2.380000114440918,2.0920000076293945,-4.60699987411499,0.2349999994039535,-9.711999893188477,-0.7170000076293945
1622101067616,1.6100000143051147,1.9780000448226929,-4.769000053405762,0.1959999948740005,-9.758000373840332,-0.6850000023841857
1622101067626,1.4700000286102295,2.184999942779541,-4.73199987411499,0.1570000052452087,-9.770999908447264,-0.6079999804496765
1622101067636,1.434999942779541,2.3534998893737793,-4.880499839782715,0.1959999948740005,-9.732000350952148,-0.6010000109672546
1622101067646,1.399999976158142,2.5220000743865967,-5.0289998054504395,0.2349999994039535,-9.777999877929688,-0.5690000057220459
1622101067656,1.1200000047683716,2.3959999084472656,-5.122000217437744,0.2349999994039535,-9.732000350952148,-0.6010000109672546
1622101067666,1.1200000047683716,2.565999984741211,-4.879000186920166,0.2349999994039535,-9.788999557495115,-0.7300000190734863
1622101067676,0.5600000023841857,2.4200000762939453,-4.051000118255615,0.2349999994039535,-9.788999557495115,-0.7300000190734863
1622101067686,0.0700000002980232,2.2660000324249268,-3.5810000896453857,0.1570000052452087,-9.821000099182127,-0.7760000228881835
1622101067696,-0.3499999940395355,2.8420000076293945,-3.621999979019165,0.1180000007152557,-9.782999992370604,-0.7689999938011169
1622101067706,-0.8399999737739563,3.1659998893737793,-3.848999977111816,0.1180000007152557,-9.75100040435791,-0.7239999771118164
1622101067716,-1.0499999523162842,3.2760000228881836,-4.468999862670898,0.0780000016093254,-9.75100040435791,-0.7239999771118164
1622101067726,-1.2599999904632568,3.5799999237060547,-4.984000205993652,0.1570000052452087,-9.75100040435791,-0.7239999771118164
1622101067736,-1.3300000429153442,3.8919999599456783,-5.142000198364258,0.1180000007152557,-9.718999862670898,-0.6779999732971191
1622101067746,-1.6100000143051147,4.382999897003174,-5.908999919891357,0.1570000052452087,-9.67300033569336,-0.7099999785423278
1622101067756,-1.75,4.577000141143799,-5.802999973297119,0.1180000007152557,-9.758000373840332,-0.6850000023841857
1622101067766,-1.9600000381469729,4.585000038146973,-5.446000099182129,0.1959999948740005,-9.718999862670898,-0.6779999732971191
1622101067776,-1.8200000524520872,4.525000095367432,-5.1020002365112305,0.1180000007152557,-9.711999893188477,-0.7170000076293945
1622101067786,-1.6100000143051147,4.11899995803833,-4.817999839782715,0.1570000052452087,-9.711999893188477,-0.7170000076293945
1622101067796,-1.8899999856948853,3.9609999656677246,-5.130000114440918,0.1180000007152557,-9.758000373840332,-0.6850000023841857
1622101067806,-1.6100000143051147,4.139999866485596,-4.53000020980835,0.1570000052452087,-9.711999893188477,-0.7170000076293945
1622101067816,-1.4700000286102295,4.322000026702881,-4.355999946594238,0.1180000007152557,-9.666999816894531,-0.7490000128746032
1622101067826,-1.4700000286102295,4.229000091552734,-4.230000019073486,0.1959999948740005,-9.737000465393066,-0.8009999990463256
1622101067836,-1.3300000429153442,4.001999855041504,-4.553999900817871,0.1570000052452087,-9.666999816894531,-0.7490000128746032
1622101067846,-1.295000076293945,4.164000034332275,-4.667500019073486,0.1570000052452087,-9.666999816894531,-0.7490000128746032
1622101067856,-1.2599999904632568,4.326000213623047,-4.781000137329102,0.1570000052452087,-9.65999984741211,-0.787000000476837
1622101067866,-1.0499999523162842,4.126999855041504,-4.460999965667725,0.1570000052452087,-9.704999923706056,-0.7549999952316284
1622101067876,-0.5600000023841857,4.010000228881836,-4.197000026702881,0.1570000052452087,-9.67300033569336,-0.7099999785423278
1622101067886,-0.4199999868869781,3.61299991607666,-3.556999921798706,0.1570000052452087,-9.711999893188477,-0.7170000076293945
1622101067896,-0.6299999952316284,3.494999885559082,-3.2929999828338623,0.1959999948740005,-9.704999923706056,-0.7549999952316284
1622101067906,-0.6299999952316284,3.6570000648498535,-3.4070000648498535,0.1180000007152557,-9.69200038909912,-0.8330000042915344
1622101067916,-0.5600000023841857,3.775000095367432,-3.6700000762939458,0.1180000007152557,-9.758000373840332,-0.6850000023841857
1622101067926,-0.1400000005960464,3.6410000324249263,-4.119999885559082,0.0780000016093254,-9.68000030517578,-0.6710000038146972
1622101067936,-0.2800000011920929,3.7579998970031734,-4.383999824523926,0.1180000007152557,-9.75100040435791,-0.7239999771118164
1622101067946,-0.3499999940395355,3.8599998950958256,-4.1529998779296875,0.0780000016093254,-9.711999893188477,-0.7170000076293945
1622101067956,-0.209999993443489,3.880000114440918,-3.865000009536743,0.0780000016093254,-9.75100040435791,-0.7239999771118164
1622101067966,-0.3499999940395355,3.697999954223633,-4.039000034332275,0.0780000016093254,-9.67300033569336,-0.7099999785423278
1622101067976,-0.209999993443489,4.1519999504089355,-4.598999977111816,0.0390000008046627,-9.718999862670898,-0.6779999732971191
1622101067986,0.209999993443489,4.2769999504089355,-4.50600004196167,0.0390000008046627,-9.711999893188477,-0.7170000076293945
1622101067996,0.1400000005960464,4.196000099182129,-4.448999881744385,0.0780000016093254,-9.67300033569336,-0.7099999785423278
1622101068006,-0.0700000002980232,4.447999954223633,-4.26200008392334,0.0780000016093254,-9.666999816894531,-0.7490000128746032
1622101068016,0.4900000095367431,4.264999866485596,-4.436999797821045,0.0390000008046627,-9.621000289916992,-0.7799999713897705
1622101068026,0.8399999737739563,4.139999866485596,-4.53000020980835,0.0390000008046627,-9.642000198364256,-0.6639999747276306
1622101068036,0.9100000262260436,4.4679999351501465,-3.974999904632568,0.0780000016093254,-9.67300033569336,-0.7099999785423278
1622101068046,1.0499999523162842,5.0879998207092285,-3.865000009536743,0.0390000008046627,-9.711999893188477,-0.7170000076293945
1622101068056,0.7699999809265136,5.171500205993652,-4.134500026702881,0.0,-9.821000099182127,-0.7760000228881835
1622101068066,0.4900000095367431,5.255000114440918,-4.4039998054504395,0.0,-9.737000465393066,-0.8009999990463256
1622101068076,0.1400000005960464,5.210000038146973,-5.763000011444092,0.0390000008046627,-9.782999992370604,-0.7689999938011169
1622101068086,-0.4900000095367431,5.744999885559082,-6.379000186920166,0.0390000008046627,-9.897999763488768,-0.7889999747276306
1622101068096,-0.7699999809265136,6.4019999504089355,-6.4770002365112305,0.1180000007152557,-9.82800006866455,-0.7369999885559082
1622101068106,-1.75,6.3979997634887695,-6.051000118255615,0.1180000007152557,-9.744000434875488,-0.762000024318695
1622101068116,-2.869999885559082,6.491000175476074,-6.177000045776367,0.1959999948740005,-9.65999984741211,-0.787000000476837
1622101068126,-3.2899999618530273,6.539999961853027,-6.452000141143799,0.1570000052452087,-9.782999992370604,-0.7689999938011169
1622101068136,-3.2899999618530273,6.24399995803833,-6.789000034332275,0.2349999994039535,-9.635000228881836,-0.703000009059906
1622101068146,-3.2899999618530273,5.703999996185303,-6.954999923706055,0.1570000052452087,-9.76900005340576,-0.8460000157356262
1622101068156,-3.430000066757202,5.254000186920166,-6.821000099182129,0.2349999994039535,-9.642000198364256,-0.6639999747276306
1622101068166,-3.2899999618530273,4.48799991607666,-6.103000164031982,0.1959999948740005,-9.845999717712402,-0.8600000143051147
1622101068176,-3.5,4.13100004196167,-6.09499979019165,0.2349999994039535,-9.67300033569336,-0.7099999785423278
1622101068186,-3.7799999713897705,4.013999938964844,-5.831999778747559,0.2349999994039535,-9.729999542236328,-0.8389999866485595
1622101068196,-4.760000228881836,3.450000047683716,-5.860000133514404,0.1180000007152557,-9.61400032043457,-0.8190000057220459
1622101068206,-4.900000095367432,3.5959999561309814,-6.686999797821045,0.1570000052452087,-9.583000183105469,-0.7739999890327453
1622101068216,-4.130000114440918,4.15500020980835,-6.232999801635742,0.1570000052452087,-9.37600040435791,-0.8169999718666076
1622101068226,-3.009999990463257,4.47599983215332,-6.033999919891357,0.2349999994039535,-9.329999923706056,-0.8489999771118164
1622101068236,-1.1200000047683716,4.3379998207092285,-6.059000015258789,0.3140000104904174,-9.383000373840332,-0.777999997138977
1622101068246,1.190000057220459,3.6410000324249263,-5.328999996185303,0.3529999852180481,-9.395999908447264,-0.7009999752044677
1622101068256,2.240000009536743,2.9920001029968266,-4.875,0.3919999897480011,-9.467000007629396,-0.7530000209808348
1622101068266,2.59000015258789,2.6515002250671387,-4.756999969482422,0.3529999852180481,-9.645999908447264,-0.8640000224113464
1622101068276,2.940000057220459,2.311000108718872,-4.638999938964844,0.3529999852180481,-9.80799961090088,-0.8529999852180481
1622101068286,3.430000066757202,1.743000030517578,-4.242000102996826,0.3140000104904174,-9.845999717712402,-0.8600000143051147
1622101068296,3.0799999237060547,1.1269999742507937,-3.569000005722046,0.2349999994039535,-9.76900005340576,-0.8460000157356262
1622101068306,2.7300000190734863,1.2400000095367432,-3.4059998989105225,0.1959999948740005,-9.697999954223633,-0.7940000295639038
1622101068316,2.5899999141693115,1.2610000371932983,-3.118000030517578,0.1570000052452087,-9.666999816894531,-0.7490000128746032
1622101068326,2.7300000190734863,1.3259999752044678,-2.680999994277954,0.1180000007152557,-9.635000228881836,-0.703000009059906
1622101068336,3.1500000953674316,2.3919999599456787,-2.2790000438690186,0.1180000007152557,-9.628000259399414,-0.7419999837875366
1622101068346,3.569999933242798,2.7809998989105225,-2.068000078201294,0.1180000007152557,-9.666999816894531,-0.7490000128746032
1622101068356,3.6400001049041744,2.98799991607666,-2.0320000648498535,0.1180000007152557,-9.711999893188477,-0.7170000076293945
1622101068366,3.7100000381469727,3.299999952316284,-2.190000057220459,0.1180000007152557,-9.75100040435791,-0.7239999771118164
1622101068376,3.430000066757202,2.9639999866485596,-1.8940000534057615,0.1180000007152557,-9.79599952697754,-0.6919999718666076
1622101068386,3.1500000953674316,3.2279999256134033,-1.7769999504089355,0.1180000007152557,-9.79599952697754,-0.6919999718666076
1622101068396,2.0299999713897705,3.114000082015991,-1.9390000104904177,0.1570000052452087,-9.842000007629396,-0.6600000262260437
1622101068406,0.6299999952316284,3.299999952316284,-2.190000057220459,0.1570000052452087,-9.869000434875488,-0.5049999952316284
1622101068416,-1.9600000381469729,3.2230000495910645,-2.559000015258789,0.1180000007152557,-9.880000114440918,-0.6669999957084655
1622101068426,-3.359999895095825,2.9560000896453857,-3.4590001106262207,0.1180000007152557,-9.782999992370604,-0.7689999938011169
1622101068436,-4.199999809265137,3.0079998970031734,-4.160999774932861,0.0780000016093254,-9.763999938964846,-0.6460000276565551
1622101068446,-4.130000114440918,3.2920000553131104,-3.755000114440918,0.0390000008046627,-9.78499984741211,-0.5299999713897705
1622101068456,-3.359999895095825,4.053999900817871,-4.046999931335449,0.0390000008046627,-9.720999717712402,-0.4390000104904174
1622101068466,-2.5899999141693115,3.8519999980926514,-4.510000228881836,0.0390000008046627,-9.616999626159668,-0.5799999833106994
1622101068476,-2.694999933242798,3.7909998893737793,-4.769499778747559,0.0390000008046627,-9.711999893188477,-0.7170000076293945
1622101068486,-2.799999952316284,3.7300000190734863,-5.0289998054504395,0.0,-9.75100040435791,-0.7239999771118164
1622101068496,-3.569999933242798,3.964999914169311,-5.556000232696533,0.0390000008046627,-9.6850004196167,-0.8709999918937683
1622101068506,-4.480000019073486,4.560999870300293,-5.309000015258789,0.0780000016093254,-9.477999687194824,-0.9139999747276306
1622101068516,-4.480000019073486,5.052000045776367,-6.074999809265137,0.0780000016093254,-9.401000022888184,-0.9010000228881836
1622101068526,-3.2899999618530273,4.946000099182129,-7.089000225067139,0.0780000016093254,-9.362000465393066,-0.8939999938011169
1622101068536,-1.6799999475479126,4.783999919891357,-6.974999904632568,0.0780000016093254,-9.446000099182127,-0.8690000176429749
1622101068546,0.2800000011920929,4.188000202178955,-6.013999938964844,0.1180000007152557,-9.467000007629396,-0.7530000209808348
1622101068556,1.4700000286102295,4.053999900817871,-5.25600004196167,0.0780000016093254,-9.744000434875488,-0.762000024318695
1622101068566,1.6100000143051147,4.156000137329102,-5.025000095367432,0.1180000007152557,-9.94200038909912,-0.9959999918937684
1622101068576,1.1200000047683716,3.8190000057220455,-5.936999797821045,0.1180000007152557,-9.904999732971191,-0.7509999871253967
1622101068586,0.0700000002980232,3.7339999675750737,-6.663000106811523,0.1570000052452087,-9.866999626159668,-0.7440000176429749
1622101068596,-1.5399999618530271,3.3320000171661377,-6.804999828338623,0.1570000052452087,-9.937000274658203,-0.7960000038146972
1622101068606,-2.5899999141693115,3.2839999198913574,-6.5289998054504395,0.1180000007152557,-9.859999656677246,-0.7829999923706054
1622101068616,-3.1500000953674316,3.494999885559082,-5.710000038146973,0.1180000007152557,-9.704999923706056,-0.7549999952316284
1622101068626,-3.2899999618530273,3.546999931335449,-5.203000068664551,0.0780000016093254,-9.543999671936035,-0.7670000195503234
1622101068636,-2.940000057220459,3.937000036239624,-4.992000102996826,0.0780000016093254,-9.512000083923342,-0.7210000157356262
1622101068646,-1.8899999856948853,3.9930000305175786,-4.910999774932861,0.0780000016093254,-9.55799961090088,-0.6890000104904174
1622101068656,-1.0499999523162842,4.074999809265137,-4.9679999351501465,0.0780000016093254,-9.635000228881836,-0.703000009059906
1622101068666,-0.209999993443489,4.314000129699707,-4.7129998207092285,0.1180000007152557,-9.33899974822998,-0.5709999799728394
1622101068675,0.8399999737739563,4.2245001792907715,-5.013000011444092,0.0780000016093254,-9.402999877929688,-0.662000000476837
1622101068685,1.8899999856948853,4.135000228881836,-5.313000202178955,0.0780000016093254,-9.428000450134276,-0.7459999918937683
1622101068695,3.9200000762939458,4.460000038146973,-5.539999961853027,0.1180000007152557,-9.803000450134276,-0.652999997138977
1622101068705,4.550000190734863,3.9849998950958256,-5.26800012588501,0.1180000007152557,-9.842000007629396,-0.6600000262260437
1622101068715,2.869999885559082,3.510999917984009,-3.788000106811523,0.1180000007152557,-9.776000022888184,-0.8080000281333923
1622101068725,1.6799999475479126,3.3529999256134033,-4.099999904632568,0.0780000016093254,-9.814000129699709,-0.8140000104904174
1622101068735,1.0499999523162842,3.4779999256134033,-5.215000152587891,0.0780000016093254,-10.04599952697754,-0.8550000190734863
1622101068745,-0.0700000002980232,3.7539999485015874,-5.166999816894531,0.1570000052452087,-10.003000259399414,-0.6480000019073486
1622101068755,-1.6799999475479126,4.1519999504089355,-4.598999977111816,0.1570000052452087,-9.866999626159668,-0.7440000176429749
1622101068765,-3.359999895095825,4.484000205993652,-5.677999973297119,0.0390000008046627,-9.576000213623049,-0.8119999766349792
1622101068775,-2.5899999141693115,4.540999889373779,-6.804999828338623,0.0780000016093254,-9.460000038146973,-0.7919999957084655
1622101068785,-1.0499999523162842,4.730999946594238,-7.48199987411499,0.1959999948740005,-9.68000030517578,-0.6710000038146972
1622101068795,-0.8399999737739563,4.431000232696533,-6.184000015258789,0.2349999994039535,-9.711999893188477,-0.7170000076293945
1622101068805,-1.9600000381469729,4.01800012588501,-5.048999786376953,0.0780000016093254,-9.633000373840332,-0.9419999718666076
1622101068815,-2.450000047683716,3.802999973297119,-5.441999912261963,0.1180000007152557,-9.6850004196167,-0.8709999918937683
1622101068825,-1.9600000381469729,3.619999885559082,-6.824999809265137,0.1180000007152557,-9.652999877929688,-0.8259999752044677
1622101068835,-1.8899999856948853,3.7260000705718994,-7.019999980926514,0.1180000007152557,-9.652999877929688,-0.8259999752044677
1622101068845,-1.75,3.677000045776367,-6.74399995803833,0.1570000052452087,-9.61400032043457,-0.8190000057220459
1622101068855,-1.399999976158142,3.9809999465942383,-6.051000118255615,0.1959999948740005,-9.583000183105469,-0.7739999890327453
1622101068865,-0.9100000262260436,4.026000022888184,-5.901000022888184,0.1959999948740005,-9.536999702453612,-0.8050000071525573
1622101068875,-0.7350000143051147,4.0360002517700195,-5.756999969482422,0.1180000007152557,-9.460000038146973,-0.7919999957084655
1622101068885,-0.5600000023841857,4.046000003814697,-5.61299991607666,0.1180000007152557,-9.522999763488768,-0.8830000162124633
1622101068895,0.3499999940395355,3.6040000915527344,-5.122000217437744,0.0780000016093254,-9.60099983215332,-0.8960000276565551
1622101068905,1.6100000143051147,4.123000144958496,-5.24399995803833,0.0390000008046627,-9.607999801635742,-0.8579999804496765
1622101068915,2.0299999713897705,4.156000137329102,-5.025000095367432,-0.0390000008046627,-9.666999816894531,-0.7490000128746032
1622101068925,2.380000114440918,4.525000095367432,-5.1020002365112305,-0.0390000008046627,-9.80799961090088,-0.8529999852180481
1622101068935,1.8899999856948853,4.8979997634887695,-5.605000019073486,-0.0390000008046627,-9.814000129699709,-0.8140000104904174
1622101068945,0.7699999809265136,6.138999938964844,-5.386000156402588,0.0,-9.814000129699709,-0.8140000104904174
1622101068955,-0.2800000011920929,7.655000209808349,-5.118000030517578,-0.0390000008046627,-9.814000129699709,-0.8140000104904174
1622101068965,-0.6299999952316284,8.538999557495117,-6.099999904632568,-0.0390000008046627,-9.722999572753906,-0.8780000209808348
1622101068975,-1.399999976158142,9.755000114440918,-6.952000141143799,-0.0780000016093254,-9.607999801635742,-0.8579999804496765
1622101068985,-1.9600000381469729,10.696000099182127,-6.644000053405762,-0.1570000052452087,-9.529999732971191,-0.8439999818801879
1622101068995,-1.2599999904632568,12.225000381469728,-6.445000171661377,-0.3140000104904174,-9.529999732971191,-0.8439999818801879
1622101069005,-0.209999993443489,13.246999740600586,-6.193999767303467,-0.4309999942779541,-9.633000373840332,-0.9419999718666076
1622101069015,0.5600000023841857,15.684000015258787,-5.906000137329102,-0.7059999704360961,-9.696000099182127,-1.0329999923706057
1622101069025,0.1400000005960464,18.761999130249023,-5.2210001945495605,-1.0199999809265137,-9.657999992370604,-1.0260000228881836
1622101069035,0.1400000005960464,24.03700065612793,-4.504000186920166,-1.2549999952316284,-9.612000465393066,-1.0579999685287476
1622101069045,0.699999988079071,30.70800018310547,-4.039000034332275,-1.4509999752044678,-9.5600004196167,-1.128000020980835
1622101069055,2.1700000762939453,38.071998596191406,-3.878000020980835,-1.6080000400543213,-9.53499984741211,-1.0440000295639038
1622101069065,3.990000009536743,46.68000030517578,-5.131999969482422,-1.7649999856948853,-9.458000183105469,-1.0299999713897705
1622101069075,6.300000190734863,55.698001861572266,-7.0960001945495605,-1.8040000200271609,-9.263999938964846,-0.9959999918937684
1622101069085,7.315000057220459,60.760498046875,-8.797499656677246,-1.8040000200271609,-9.116999626159668,-0.9300000071525572
1622101069095,8.329999923706055,65.822998046875,-10.49899959564209,-1.7649999856948853,-9.008000373840332,-0.8709999918937683
1622101069105,10.149999618530272,75.7699966430664,-14.503000259399414,-1.72599995136261,-8.923999786376953,-0.8960000276565551
1622101069115,12.109999656677246,85.16400146484375,-18.604000091552734,-1.72599995136261,-8.987000465393066,-0.9869999885559082
1622101069125,13.789999961853027,94.3000030517578,-22.040000915527344,-1.6480000019073486,-9.168999671936035,-0.8600000143051147
1622101069135,15.539999961853027,103.8040008544922,-24.343999862670895,-1.491000056266785,-9.326000213623049,-0.6489999890327453
1622101069145,16.729999542236328,112.875,-27.010000228881836,-1.3730000257492063,-9.43000030517578,-0.5080000162124633
1622101069155,16.450000762939453,120.87100219726564,-30.433000564575195,-1.1380000114440918,-9.404999732971191,-0.4239999949932098
1622101069165,16.309999465942383,128.43699645996094,-33.435001373291016,-0.8629999756813049,-9.335000038146973,-0.3709999918937683
1622101069175,16.729999542236328,135.74000549316406,-34.13800048828125,-0.5879999995231628,-9.263999938964846,-0.3190000057220459
1622101069185,17.989999771118164,141.25100708007812,-32.73899841308594,-0.2750000059604644,-9.208000183105469,-0.1899999976158142
1622101069195,19.600000381469727,145.86199951171875,-31.072999954223633,-0.0780000016093254,-9.072999954223633,-0.0460000000894069
1622101069205,22.1200008392334,149.89700317382812,-29.367000579833984,0.1180000007152557,-8.977999687194824,0.0900000035762786
1622101069215,24.219999313354492,152.62600708007812,-28.316999435424805,0.3529999852180481,-9.133000373840332,0.0630000010132789
1622101069225,25.34000015258789,154.8769989013672,-27.777999877929688,0.7059999704360961,-9.392000198364256,0.1759999990463256
1622101069235,25.6200008392334,155.66700744628906,-26.21699905395508,0.9409999847412108,-9.527999877929688,0.2720000147819519
1622101069245,24.56999969482422,155.76100158691406,-25.13400077819824,1.0590000152587893,-9.553000450134276,0.1879999935626983
1622101069255,23.3799991607666,155.32699584960938,-24.28700065612793,1.0980000495910645,-9.760000228881836,0.231000006198883
1622101069265,23.3799991607666,153.9929962158203,-23.17099952697754,1.2549999952316284,-9.800999641418455,0.4629999995231628
1622101069275,23.65999984741211,152.6840057373047,-22.194000244140625,1.4509999752044678,-9.75100040435791,0.6309999823570251
1622101069285,23.729999542236328,151.51600646972656,-20.40999984741211,1.5299999713897705,-9.58899974822998,0.6190000176429749
1622101069295,24.5,149.5500030517578,-18.125999450683594,1.72599995136261,-9.440999984741213,0.6850000023841857
1622101069305,25.060001373291016,148.5240020751953,-17.34749984741211,1.7649999856948853,-9.4350004196167,0.6470000147819519
1622101069315,25.6200008392334,147.4980010986328,-16.569000244140625,1.687000036239624,-9.531999588012695,0.7490000128746032
1622101069325,25.760000228881836,145.3979949951172,-15.944000244140623,1.569000005722046,-9.687000274658203,0.722000002861023
1622101069335,24.780000686645508,143.5,-14.857000350952148,1.3339999914169312,-9.80500030517578,0.9399999976158142
1622101069345,23.8700008392334,143.64999389648438,-13.692999839782717,1.1380000114440918,-9.871000289916992,1.0880000591278076
1622101069355,22.399999618530273,145.78700256347656,-13.31700038909912,0.981000006198883,-9.878000259399414,1.1260000467300415
1622101069365,20.579999923706055,148.85299682617188,-14.979999542236328,0.9020000100135804,-9.748000144958496,1.069000005722046
1622101069375,19.8799991607666,151.49200439453125,-16.64699935913086,0.981000006198883,-9.652999877929688,1.2059999704360962
1622101069385,20.3700008392334,155.1009979248047,-17.361000061035156,1.1380000114440918,-9.369000434875488,1.1759999990463257
1622101069395,22.399999618530273,158.552001953125,-15.970000267028809,1.2940000295639038,-9.260000228881836,1.2350000143051147
1622101069405,24.079999923706055,160.82699584960938,-14.361000061035156,1.5299999713897705,-9.272999763488768,1.312000036239624
1622101069415,24.63999938964844,160.46600341796875,-12.718999862670898,1.72599995136261,-9.29800033569336,1.2280000448226929
1622101069425,25.760000228881836,159.48899841308594,-10.402999877929688,1.9220000505447388,-9.260000228881836,1.2350000143051147
1622101069435,27.229999542236328,158.0500030517578,-7.885000228881835,2.0789999961853027,-9.220999717712402,1.2419999837875366
1622101069445,28.420000076293945,154.83900451660156,-5.394000053405762,2.1570000648498535,-9.272999763488768,1.312000036239624
1622101069455,29.469999313354492,150.37100219726565,-2.628000020980835,2.118000030517578,-9.210000038146973,1.4029999971389773
1622101069465,30.729999542236328,146.88400268554688,-0.1870000064373016,2.0399999618530273,-9.178000450134276,1.4490000009536743
1622101069475,32.7599983215332,143.48599243164065,1.3470000028610227,1.843999981880188,-9.145999908447264,1.49399995803833
1622101069485,34.09000015258789,140.41700744628906,2.2269999980926514,1.6480000019073486,-9.204999923706056,1.6030000448226929
1622101069495,34.790000915527344,138.38900756835938,2.437999963760376,1.3730000257492063,-9.218999862670898,1.680999994277954
1622101069505,35.70000076293945,137.0709991455078,1.850000023841858,1.0590000152587893,-9.199999809265137,1.8029999732971191
1622101069515,36.470001220703125,136.1750030517578,1.6920000314712524,0.5099999904632568,-9.458999633789062,1.9170000553131104
1622101069525,36.33000183105469,136.1179962158203,1.6109999418258667,0.2349999994039535,-9.67300033569336,1.9989999532699585
1622101069535,35.560001373291016,136.7989959716797,1.3760000467300415,-0.0390000008046627,-9.75699996948242,2.0239999294281006
1622101069545,34.86000061035156,137.0889892578125,1.1425000429153442,-0.1180000007152557,-9.815999984741213,2.1329998970031734
1622101069555,34.15999984741211,137.37899780273438,0.9089999794960022,-0.1570000052452087,-9.829999923706056,2.2100000381469727
1622101069565,32.689998626708984,138.00399780273438,0.5929999947547911,-0.1959999948740005,-9.772999763488768,2.3399999141693115
1622101069575,31.63999938964844,138.58399963378906,1.3350000381469729,-0.1959999948740005,-9.741000175476074,2.384999990463257
1622101069585,31.010000228881836,138.55499267578125,1.89900004863739,-0.2349999994039535,-9.79300022125244,2.4549999237060547
1622101069595,30.940000534057617,138.3520050048828,1.4359999895095823,-0.1570000052452087,-9.883999824523924,2.5190000534057617
1622101069605,31.219999313354492,137.1280059814453,0.7229999899864196,-0.0390000008046627,-9.968000411987305,2.5439999103546143
1622101069615,30.520000457763672,135.03900146484375,0.0700000002980232,0.0,-9.982000350952148,2.621000051498413
1622101069625,29.959999084472656,132.08700561523438,-0.5210000276565551,0.1570000052452087,-9.982000350952148,2.621000051498413
1622101069635,28.84000015258789,128.16600036621094,-0.8569999933242797,0.2750000059604644,-9.949999809265137,2.6670000553131104
1622101069645,27.790000915527344,123.4739990234375,-1.2580000162124634,0.2750000059604644,-9.949999809265137,2.6670000553131104
1622101069655,26.530000686645508,117.70800018310548,-1.2089999914169312,0.3529999852180481,-9.937000274658203,2.5899999141693115
1622101069665,25.1299991607666,111.34600067138672,-0.1979999989271163,0.1959999948740005,-9.91800022125244,2.711999893188477
1622101069675,24.43000030517578,104.79299926757812,0.2809999883174896,0.0390000008046627,-9.892999649047852,2.7960000038146973
1622101069685,23.59000015258789,98.98200225830078,0.1809999942779541,-0.1570000052452087,-9.862000465393066,2.8420000076293945
1622101069695,23.3799991607666,93.46299743652344,-1.5740000009536743,-0.2750000059604644,-9.784000396728516,2.8550000190734863
1622101069705,22.190000534057617,88.40599822998047,-4.739999771118164,-0.3919999897480011,-9.770999908447264,2.7780001163482666
1622101069715,20.719999313354492,84.16000366210938,-7.265999794006347,-0.4709999859333038,-9.822999954223633,2.8489999771118164
1622101069725,18.479999542236328,80.56700134277344,-9.463000297546388,-0.4709999859333038,-9.829999923706056,2.88700008392334
1622101069735,16.8700008392334,77.03099822998047,-11.579999923706056,-0.5099999904632568,-9.758999824523924,2.938999891281128
1622101069745,15.119999885559082,73.2959976196289,-13.375,-0.4709999859333038,-9.642999649047852,2.9600000381469727
1622101069755,13.93000030517578,69.19200134277344,-13.88599967956543,-0.4709999859333038,-9.520999908447264,2.941999912261963
1622101069765,12.8100004196167,64.88200378417969,-13.223999977111816,-0.4709999859333038,-9.397999763488768,2.924000024795532
1622101069775,12.529999732971191,61.029998779296875,-12.340000152587892,-0.5879999995231628,-9.352999687194824,2.8919999599456787
1622101069785,12.635000228881836,59.26799774169922,-12.223999977111816,-0.7059999704360961,-9.383999824523924,2.8459999561309814
1622101069795,12.739999771118164,57.506000518798835,-12.107999801635742,-0.7850000262260437,-9.39099979400635,2.884999990463257
1622101069805,12.31999969482422,54.95100021362305,-14.548999786376951,-0.8240000009536743,-9.397999763488768,2.924000024795532
1622101069815,12.039999961853027,53.202999114990234,-18.34000015258789,-0.7850000262260437,-9.449999809265137,2.99399995803833
1622101069825,11.0600004196167,52.124000549316406,-22.29800033569336,-0.6280000209808348,-9.442999839782717,2.9549999237060547
1622101069835,10.079999923706056,51.47100067138672,-25.042999267578125,-0.4309999942779541,-9.442999839782717,2.9549999237060547
1622101069845,9.3100004196167,51.09299850463867,-26.531000137329105,-0.2750000059604644,-9.482000350952148,2.9489998817443848
1622101069855,8.680000305175781,49.54399871826172,-27.017000198364254,-0.1570000052452087,-9.482000350952148,2.9489998817443848
1622101069865,8.050000190734863,47.69100189208984,-26.98900032043457,-0.0390000008046627,-9.50699996948242,2.864000082015991
1622101069875,7.489999771118165,45.54199981689453,-26.08799934387207,0.0,-9.583999633789062,2.8510000705718994
1622101069885,7.070000171661377,43.45000076293945,-23.89800071716309,0.0,-9.538999557495115,2.819000005722046
1622101069895,6.71999979019165,42.08399963378906,-23.00200080871582,-0.1180000007152557,-9.583999633789062,2.8510000705718994
1622101069905,6.019999980926514,41.38199996948242,-23.054000854492188,-0.1570000052452087,-9.54599952697754,2.8580000400543213
1622101069915,5.670000076293945,41.29199981689453,-25.770999908447266,-0.1570000052452087,-9.538999557495115,2.819000005722046
1622101069925,5.25,41.52299880981445,-29.49799919128418,-0.1180000007152557,-9.487000465393066,2.749000072479248
1622101069935,4.690000057220459,41.680999755859375,-32.81100082397461,0.0,-9.493000030517578,2.7869999408721924
1622101069945,3.9200000762939458,41.93600082397461,-35.46699905395508,0.1180000007152557,-9.472999572753906,2.6710000038146973
1622101069955,3.6400001049041744,42.09400177001953,-37.57099914550781,0.2750000059604644,-9.440999984741213,2.7170000076293945
1622101069965,3.6400001049041744,41.44499969482422,-38.32500076293945,0.3140000104904174,-9.317999839782717,2.6989998817443848
1622101069975,3.6400001049041744,40.804000854492195,-38.722999572753906,0.4709999859333038,-9.312000274658203,2.6600000858306885
1622101069985,3.2200000286102295,40.47999954223633,-38.49599838256836,0.5490000247955322,-9.29800033569336,2.5829999446868896
1622101069995,2.869999885559082,39.255001068115234,-36.79199981689453,0.5879999995231628,-9.42099952697754,2.6010000705718994
1622101070005,2.5899999141693115,38.926998138427734,-34.930999755859375,0.6669999957084655,-9.498000144958496,2.586999893188477
1622101070015,2.0299999713897705,38.8380012512207,-34.02299880981445,0.7059999704360961,-9.58199977874756,2.611999988555908
1622101070025,1.75,38.83399963378906,-33.59700012207031,0.7450000047683715,-9.666000366210936,2.63700008392334
1622101070035,0.9100000262260436,38.15299987792969,-32.15299987792969,0.8240000009536743,-9.659000396728516,2.5989999771118164
1622101070045,0.070000022649765,37.845001220703125,-31.212499618530273,0.9020000100135804,-9.61400032043457,2.566999912261963
1622101070055,-0.7699999809265136,37.5369987487793,-30.27199935913086,0.9409999847412108,-9.536999702453612,2.5799999237060547
1622101070065,-2.6600000858306885,37.124000549316406,-27.92799949645996,0.9020000100135804,-9.465999603271484,2.6329998970031734
1622101070075,-4.340000152587891,36.22800064086914,-25.66900062561035,0.8629999756813049,-9.517999649047852,2.703000068664551
1622101070085,-5.389999866485596,36.06999969482422,-24.77300071716309,0.7059999704360961,-9.479999542236328,2.7100000381469727
1622101070095,-6.369999885559082,36.584999084472656,-25.677000045776367,0.4709999859333038,-9.447999954223633,2.755000114440918
1622101070105,-7.280000209808349,37.90599822998047,-26.724000930786133,0.4309999942779541,-9.454999923706056,2.7939999103546143
1622101070115,-7.980000019073486,40.51399993896485,-27.400999069213867,0.3919999897480011,-9.416000366210936,2.8010001182556152
1622101070125,-9.029999732971191,42.86100006103515,-27.413999557495117,0.3529999852180481,-9.454999923706056,2.7939999103546143
1622101070135,-10.5,45.53400039672851,-27.652999877929688,0.3529999852180481,-9.454999923706056,2.7939999103546143
1622101070145,-11.829999923706056,48.104000091552734,-28.124000549316406,0.3919999897480011,-9.440999984741213,2.7170000076293945
1622101070155,-13.4399995803833,49.9370002746582,-28.44099998474121,0.3529999852180481,-9.517999649047852,2.703000068664551
1622101070165,-14.5600004196167,52.47600173950195,-27.92200088500977,0.3140000104904174,-9.666000366210936,2.63700008392334
1622101070175,-15.329999923706056,55.48099899291992,-28.031999588012695,0.2349999994039535,-9.75,2.6619999408721924
1622101070185,-15.68000030517578,59.30799865722656,-29.98699951171875,0.1180000007152557,-9.75,2.6619999408721924
1622101070195,-16.170000076293945,62.571998596191406,-33.17900085449219,0.1570000052452087,-9.687000274658203,2.753000020980835
1622101070205,-16.59000015258789,65.39800262451172,-35.09700012207031,0.2349999994039535,-9.602999687194824,2.7279999256134033
1622101070215,-17.639999389648438,67.68499755859375,-33.555999755859375,0.3919999897480011,-9.517999649047852,2.703000068664551
1622101070225,-18.6200008392334,69.61199951171875,-30.37299919128418,0.5490000247955322,-9.38199996948242,2.6080000400543213
1622101070235,-18.479999542236328,71.36000061035156,-27.791000366210938,0.5879999995231628,-9.26599979400635,2.628000020980835
1622101070245,-18.1299991607666,72.49099731445312,-26.951000213623047,0.6280000209808348,-9.156999588012695,2.687000036239624
1622101070255,-17.709999084472656,72.80000305175781,-26.68400001525879,0.7450000047683715,-8.996000289916992,2.6760001182556152
1622101070265,-18.1299991607666,72.90499877929688,-25.670000076293945,0.8629999756813049,-8.944000244140625,2.6050000190734863
1622101070275,-18.34000015258789,72.67400360107422,-24.36000061035156,0.981000006198883,-8.911999702453613,2.6510000228881836
1622101070285,-18.165000915527344,72.55450439453125,-24.487998962402344,1.0590000152587893,-8.949999809265137,2.6440000534057617
1622101070295,-17.989999771118164,72.43499755859375,-24.61599922180176,1.1380000114440918,-8.937000274658203,2.566999912261963
1622101070305,-17.920000076293945,71.74099731445312,-25.520000457763672,1.2549999952316284,-8.961999893188477,2.4830000400543213
1622101070315,-17.850000381469727,70.4800033569336,-27.23500061035156,1.3339999914169312,-9.031999588012695,2.430000066757202
1622101070325,-17.989999771118164,69.12200164794922,-27.190000534057617,1.491000056266785,-9.147999763488768,2.4100000858306885
1622101070335,-18.6200008392334,67.55599975585938,-27.18199920654297,1.6080000400543213,-9.211999893188477,2.319000005722046
1622101070345,-18.40999984741211,65.3949966430664,-27.42099952697754,1.6480000019073486,-9.218999862670898,2.3580000400543213
1622101070355,-18.270000457763672,63.13199996948242,-26.683000564575195,1.687000036239624,-9.225000381469728,2.3959999084472656
1622101070365,-17.010000228881836,61.56700134277344,-25.465999603271484,1.6480000019073486,-9.23900032043457,2.4739999771118164
1622101070375,-15.399999618530272,60.21699905395508,-23.856000900268555,1.6080000400543213,-9.20699977874756,2.5190000534057617
1622101070384,-13.229999542236328,59.641998291015625,-22.60700035095215,1.491000056266785,-9.220999717712402,2.5959999561309814
1622101070394,-9.800000190734863,59.26900100708008,-22.104000091552734,1.5299999713897705,-9.312000274658203,2.6600000858306885
1622101070404,-6.650000095367432,58.757999420166016,-21.625,1.5299999713897705,-9.357000350952148,2.691999912261963
1622101070414,-3.569999933242798,59.387001037597656,-19.951000213623047,1.569000005722046,-9.479999542236328,2.7100000381469727
1622101070424,-1.5399999618530271,59.09099960327149,-17.8700008392334,1.569000005722046,-9.557000160217283,2.696000099182129
1622101070434,-0.7699999809265136,59.05500030517578,-16.454999923706055,1.491000056266785,-9.68000030517578,2.7149999141693115
1622101070444,0.1400000005960464,58.571998596191406,-15.33199977874756,1.4509999752044678,-9.732000350952148,2.7850000858306885
1622101070454,0.4199999868869781,57.82600021362305,-14.326000213623049,1.4119999408721924,-9.73900032043457,2.8239998817443848
1622101070464,0.2800000011920929,57.31600189208984,-12.638999938964844,1.4119999408721924,-9.597999572753906,2.927999973297119
1622101070474,0.0700000002980232,56.224998474121094,-10.486000061035156,1.3730000257492063,-9.359000205993652,2.930000066757202
1622101070484,-0.0700000002980232,55.79199981689453,-7.222000122070312,1.2940000295639038,-9.243000030517578,2.950999975204468
1622101070494,0.8399999737739563,54.93199920654297,-3.9609999656677246,1.1770000457763672,-9.050000190734863,2.984999895095825
1622101070504,1.225000023841858,54.77799987792969,-3.490499973297119,1.0590000152587893,-8.979999542236328,3.0369999408721924
1622101070514,1.6100000143051147,54.624000549316406,-3.0199999809265137,0.9409999847412108,-8.965999603271484,2.9600000381469727
1622101070524,2.240000009536743,54.91999816894531,-3.8919999599456783,0.8629999756813049,-9.04300022125244,2.946000099182129
1622101070534,2.240000009536743,55.33399963378906,-6.236000061035156,0.8240000009536743,-9.121000289916992,2.933000087738037
1622101070544,1.399999976158142,56.46500015258789,-7.814000129699707,0.7850000262260437,-9.197999954223633,2.9189999103546143
1622101070554,-0.1400000005960464,57.84299850463867,-8.779000282287598,0.7850000262260437,-9.17300033569336,3.003000020980835
1622101070564,-1.6100000143051147,59.506000518798835,-9.33899974822998,0.7059999704360961,-9.18000030517578,3.0420000553131104
1622101070574,-2.380000114440918,61.00199890136719,-10.567999839782717,0.6669999957084655,-9.187000274658203,3.0799999237060547
1622101070584,-3.2899999618530273,62.55099868774414,-12.498000144958496,0.5879999995231628,-9.123000144958496,3.1710000038146973
1622101070594,-3.569999933242798,64.05500030517578,-13.369999885559082,0.5879999995231628,-9.04599952697754,3.184999942779541
1622101070604,-3.359999895095825,65.947998046875,-14.031000137329102,0.5099999904632568,-9.006999969482422,3.191999912261963
1622101070614,-3.430000066757202,68.16600036621094,-14.920000076293944,0.4709999859333038,-9.07800006866455,3.138999938964844
1622101070624,-3.6400001049041744,70.83399963378906,-15.94200038909912,0.4709999859333038,-9.16800022125244,3.203000068664551
1622101070634,-4.550000190734863,73.97699737548828,-16.027999877929688,0.4709999859333038,-9.29800033569336,3.259999990463257
1622101070644,-6.019999980926514,76.71800231933594,-16.2549991607666,0.5490000247955322,-9.33899974822998,3.4920001029968266
1622101070654,-7.8400001525878915,78.37699890136719,-16.388999938964844,0.5879999995231628,-9.33199977874756,3.453000068664551
1622101070664,-8.890000343322754,79.83599853515625,-16.202999114990234,0.6669999957084655,-9.33199977874756,3.453000068664551
1622101070674,-9.65999984741211,80.7490005493164,-15.331000328063965,0.7450000047683715,-9.357000350952148,3.36899995803833
1622101070684,-10.010000228881836,81.49099731445312,-14.703000068664553,0.7450000047683715,-9.465999603271484,3.309999942779541
1622101070694,-9.765000343322754,82.04249572753906,-15.20949935913086,0.7450000047683715,-9.550000190734863,3.3350000381469727
1622101070704,-9.520000457763674,82.59400177001953,-15.715999603271484,0.7850000262260437,-9.550000190734863,3.3350000381469727
1622101070714,-8.539999961853027,82.67900085449219,-17.406999588012695,0.8629999756813049,-9.484000205993652,3.187000036239624
1622101070724,-7.489999771118165,82.30999755859375,-18.538999557495117,0.9020000100135804,-9.541000366210936,3.058000087738037
1622101070734,-6.300000190734863,82.55699920654298,-17.926000595092773,0.9020000100135804,-9.649999618530272,2.999000072479248
1622101070744,-4.690000057220459,82.58999633789062,-16.499000549316406,0.8629999756813049,-9.720999717712402,2.946000099182129
1622101070754,-2.7300000190734863,82.70700073242188,-16.76300048828125,0.8240000009536743,-9.682000160217283,2.953000068664551
1622101070764,-1.75,82.11499786376953,-17.43600082397461,0.9020000100135804,-9.73900032043457,2.8239998817443848
1622101070774,-1.399999976158142,80.80999755859375,-16.884000778198242,0.9020000100135804,-9.718000411987305,2.7079999446868896
1622101070784,-0.9800000190734864,80.63999938964844,-14.711000442504885,0.7850000262260437,-9.821000099182127,2.609999895095825
1622101070794,-1.399999976158142,80.87899780273438,-13.246999740600586,0.6280000209808348,-9.767999649047852,2.5399999618530273
1622101070804,-2.940000057220459,80.83000183105469,-12.970999717712402,0.4709999859333038,-9.70300006866455,2.3919999599456787
1622101070814,-4.690000057220459,81.90499877929688,-13.42099952697754,0.2750000059604644,-9.649999618530272,2.321000099182129
1622101070824,-6.860000133514404,83.68900299072266,-13.461999893188477,0.1570000052452087,-9.675000190734863,2.236999988555908
1622101070834,-8.470000267028809,86.47100067138672,-14.321999549865724,-0.0390000008046627,-9.616000175476074,2.128000020980835
1622101070844,-10.359999656677246,89.21199798583984,-15.758000373840332,-0.0780000016093254,-9.51900005340576,2.0260000228881836
1622101070854,-12.460000038146973,91.99700164794922,-17.04400062561035,-0.0780000016093254,-9.45300006866455,1.878000020980835
1622101070864,-14.909999847412108,94.73400115966795,-18.054000854492188,-0.0390000008046627,-9.432000160217283,1.7619999647140503
1622101070874,-16.239999771118164,95.99749755859376,-17.760000228881836,0.0,-9.366000175476074,1.6150000095367432
1622101070884,-17.56999969482422,97.26100158691406,-17.465999603271484,0.0780000016093254,-9.314000129699709,1.5440000295639038
1622101070894,-19.459999084472656,99.40599822998048,-16.732999801635742,0.1959999948740005,-9.248000144958496,1.3969999551773071
1622101070904,-21.13999938964844,101.2310028076172,-16.197999954223633,0.3140000104904174,-9.130000114440918,1.1779999732971191
1622101070914,-22.049999237060547,102.30899810791016,-15.864999771118164,0.5099999904632568,-8.961999893188477,1.128000020980835
1622101070924,-22.68000030517578,102.84100341796876,-14.847000122070312,0.6669999957084655,-8.631999969482422,1.0670000314712524
1622101070934,-21.559999465942383,102.71900177001952,-14.157999992370604,0.7450000047683715,-8.303000450134277,1.00600004196167
1622101070944,-19.530000686645508,102.51200103759766,-14.19499969482422,0.8240000009536743,-8.102999687194824,1.0010000467300415
1622101070954,-16.65999984741211,102.33000183105467,-14.369000434875488,0.9020000100135804,-7.993999958038329,1.059999942779541
1622101070964,-12.460000038146973,101.18199920654295,-14.713000297546388,1.0199999809265137,-8.008000373840332,1.1369999647140503
1622101070974,-8.399999618530273,99.7509994506836,-14.255000114440918,1.1380000114440918,-8.194000244140625,1.065000057220459
1622101070984,-4.760000228881836,97.44000244140624,-13.241000175476074,1.2549999952316284,-8.46399974822998,1.0169999599456787
1622101070994,-2.5899999141693115,93.8759994506836,-11.16800022125244,1.2940000295639038,-8.779999732971191,1.0010000467300415
1622101071004,-0.9100000262260436,90.0199966430664,-8.649999618530273,1.2549999952316284,-8.994000434875488,1.0829999446868896
1622101071014,-0.209999993443489,86.2490005493164,-6.613999843597412,1.0980000495910645,-9.20699977874756,1.1649999618530271
1622101071024,0.0700000002980232,83.06199645996094,-4.261000156402588,0.8629999756813049,-9.336999893188477,1.2220000028610227
1622101071034,0.9100000262260436,81.07099914550781,-3.0480000972747803,0.5490000247955322,-9.413999557495115,1.2079999446868896
1622101071044,1.1200000047683716,80.54399871826172,-2.678999900817871,0.3140000104904174,-9.38199996948242,1.253000020980835
1622101071054,1.3300000429153442,80.01699829101562,-2.309999942779541,0.1180000007152557,-9.4350004196167,1.3240000009536743
1622101071064,2.450000047683716,79.51799774169922,-3.1089999675750732,-0.0390000008046627,-9.635000228881836,1.3279999494552612
1622101071074,3.359999895095825,78.7959976196289,-3.450000047683716,-0.0780000016093254,-9.880000114440918,1.3650000095367432
1622101071084,3.0799999237060547,78.3219985961914,-3.177999973297119,-0.1180000007152557,-10.196000099182127,1.3489999771118164
1622101071094,1.3300000429153442,77.33999633789062,-2.8529999256134033,-0.1570000052452087,-10.465999603271484,1.3009999990463257
1622101071104,-1.75,76.1520004272461,-2.565000057220459,-0.1959999948740005,-10.67300033569336,1.343999981880188
1622101071114,-6.230000019073486,74.72899627685547,-2.9579999446868896,-0.2349999994039535,-10.79599952697754,1.3630000352859497
1622101071124,-10.640000343322754,73.23699951171875,-3.364000082015991,-0.1959999948740005,-10.756999969482422,1.36899995803833
1622101071134,-14.489999771118164,71.75299835205078,-3.4119999408721924,-0.2750000059604644,-10.666000366210938,1.305999994277954
1622101071144,-17.43000030517578,69.93599700927734,-2.381999969482422,-0.2750000059604644,-10.574999809265137,1.2419999837875366
1622101071154,-19.31999969482422,68.8290023803711,-0.9419999718666076,-0.4309999942779541,-10.607000350952148,1.1970000267028809
1622101071164,-18.549999237060547,69.60399627685547,-0.0949999988079071,-0.6669999957084655,-10.536999702453612,1.2489999532699585
1622101071174,-17.850000381469727,70.81600189208984,-2.937999963760376,-0.6669999957084655,-10.453000068664553,1.2239999771118164
1622101071184,-16.729999542236328,70.36499786376953,-6.428999900817871,-0.6280000209808348,-10.439000129699709,1.1469999551773071
1622101071194,-15.119999885559082,71.03800201416016,-7.020999908447266,-0.5099999904632568,-10.748000144958496,1.0920000076293943
1622101071204,-13.300000190734863,71.99600219726562,-5.999000072479248,-0.5099999904632568,-10.890999794006348,1.22599995136261
1622101071214,-12.109999656677246,71.49700164794922,-6.797999858856201,-0.4309999942779541,-10.890999794006348,1.22599995136261
1622101071224,-12.284999847412108,70.59649658203125,-7.134500026702881,-0.3919999897480011,-10.954999923706056,1.1349999904632568
1622101071234,-12.460000038146973,69.69599914550781,-7.47100019454956,-0.3140000104904174,-11.031999588012695,1.121999979019165
1622101071244,-13.300000190734863,68.20800018310547,-7.093999862670898,-0.2750000059604644,-11.04599952697754,1.1990000009536743
1622101071254,-13.510000228881836,67.28399658203125,-6.688000202178955,-0.2750000059604644,-10.878000259399414,1.14900004863739
1622101071264,-13.859999656677246,66.76000213623047,-8.557000160217285,-0.3919999897480011,-10.625,1.0740000009536743
1622101071274,-15.1899995803833,65.71800231933594,-11.512999534606934,-0.4309999942779541,-10.475000381469728,0.9010000228881836
1622101071284,-17.219999313354492,64.9020004272461,-14.145000457763672,-0.4309999942779541,-10.050000190734863,0.9760000109672546
1622101071294,-19.530000686645508,64.3550033569336,-15.87600040435791,-0.4309999942779541,-10.04800033569336,0.7379999756813049
1622101071304,-21.6299991607666,62.97600173950195,-17.327999114990234,-0.3140000104904174,-9.585000038146973,0.8190000057220459
1622101071314,-22.399999618530273,61.64899826049805,-19.481000900268555,-0.2349999994039535,-9.621000289916992,0.5740000009536743
1622101071324,-21.979999542236328,59.94599914550781,-21.913000106811523,-0.1959999948740005,-9.40999984741211,0.731000006198883
1622101071334,-21.420000076293945,58.34400177001953,-24.114999771118164,-0.1180000007152557,-9.343999862670898,0.5830000042915344
1622101071344,-21.06999969482422,56.13399887084961,-26.4950008392334,-0.1180000007152557,-9.085000038146973,0.4690000116825103
1622101071354,-21.13999938964844,53.83399963378906,-27.96699905395508,-0.1570000052452087,-9.197999954223633,0.209999993443489
1622101071364,-21.6299991607666,52.25299835205078,-27.464000701904297,-0.0780000016093254,-9.32800006866455,0.2669999897480011
1622101071374,-22.61000061035156,50.29399871826172,-27.239999771118164,-0.0780000016093254,-9.263999938964846,0.3580000102519989
1622101071384,-23.450000762939453,48.529998779296875,-28.1200008392334,-0.1570000052452087,-9.345999717712402,0.1439999938011169
1622101071394,-23.239999771118164,47.40700149536133,-29.81100082397461,-0.1959999948740005,-9.75699996948242,-0.0080000003799796
1622101071404,-23.8700008392334,46.250999450683594,-30.511999130249023,-0.1180000007152557,-9.8100004196167,0.0630000010132789
1622101071414,-24.080001831054688,45.81500244140625,-30.65999984741211,-0.0780000016093254,-9.737000465393066,-0.123999997973442
1622101071424,-24.290000915527344,45.37900161743164,-30.808000564575195,0.0,-9.76900005340576,-0.1689999997615814
1622101071434,-23.8700008392334,44.016998291015625,-30.336999893188477,0.1570000052452087,-9.638999938964846,-0.2259999960660934
1622101071444,-22.88999938964844,42.63399887084961,-30.155000686645508,0.2349999994039535,-9.541999816894531,-0.328000009059906
1622101071454,-21.979999542236328,40.654998779296875,-30.218999862670895,0.3919999897480011,-9.56700038909912,-0.4120000004768371
1622101071464,-19.8799991607666,38.10900115966797,-29.886999130249023,0.5099999904632568,-9.604999542236328,-0.4189999997615814
1622101071474,-17.360000610351562,36.33300018310547,-28.281000137329105,0.6280000209808348,-9.661999702453612,-0.5490000247955322
1622101071484,-15.399999618530272,34.15599822998047,-26.81599998474121,0.7059999704360961,-9.461999893188477,-0.5529999732971191
1622101071494,-14.0,31.628999710083008,-26.195999145507812,0.7450000047683715,-9.30500030517578,-0.7639999985694885
1622101071504,-11.130000114440918,28.822999954223633,-26.406000137329105,0.8629999756813049,-9.28499984741211,-0.8799999952316284
1622101071514,-9.65999984741211,25.575000762939453,-26.125999450683594,0.9020000100135804,-9.491999626159668,-0.8370000123977661
1622101071524,-7.9099998474121085,23.697999954223633,-24.750999450683594,0.9020000100135804,-9.666999816894531,-0.7490000128746032
1622101071534,-6.929999828338623,23.06999969482422,-22.799999237060547,0.9409999847412108,-9.55799961090088,-0.6890000104904174
1622101071544,-6.090000152587891,23.131000518798828,-23.145000457763672,1.0980000495910645,-9.583000183105469,-0.7739999890327453
1622101071554,-5.739999771118164,22.32699966430664,-24.636999130249023,1.1770000457763672,-9.593999862670898,-0.9350000023841856
1622101071564,-6.369999885559082,20.923999786376953,-24.742000579833984,1.215999960899353,-10.06700038909912,-1.4170000553131104
1622101071574,-8.329999923706055,20.13800048828125,-21.895999908447266,0.981000006198883,-9.812000274658203,-1.0529999732971191
1622101071584,-11.970000267028809,20.19499969482422,-18.18899917602539,0.9020000100135804,-9.86400032043457,-0.9829999804496764
1622101071594,-14.06999969482422,22.10099983215332,-16.503000259399414,0.7850000262260437,-9.845999717712402,-0.8600000143051147
1622101071604,-15.539999961853027,23.347999572753903,-16.92300033569336,0.7059999704360961,-9.800999641418455,-0.8920000195503234
1622101071614,-17.010000228881836,24.594999313354492,-17.343000411987305,0.7059999704360961,-9.579999923706056,-1.0119999647140503
1622101071624,-19.040000915527344,26.77199935913086,-18.80699920654297,0.8629999756813049,-9.342000007629396,-1.0099999904632568
1622101071634,-20.719999313354492,27.90800094604492,-18.39299964904785,0.9409999847412108,-9.22599983215332,-0.9890000224113464
1622101071644,-20.299999237060547,29.704999923706055,-16.086000442504883,0.981000006198883,-9.218999862670898,-1.0279999971389773
1622101071654,-19.11000061035156,30.82799911499023,-11.979000091552734,1.0980000495910645,-9.211999893188477,-1.0670000314712524
1622101071664,-17.56999969482422,31.246999740600582,-8.706000328063965,1.0980000495910645,-9.121000289916992,-1.1299999952316284
1622101071674,-15.960000038146973,30.496999740600582,-7.275000095367432,1.1380000114440918,-9.128000259399414,-1.0920000076293943
1622101071684,-13.020000457763672,30.10300064086914,-7.059999942779541,1.2940000295639038,-9.173999786376951,-1.059999942779541
1622101071694,-9.449999809265137,29.86000061035156,-6.889999866485596,1.4119999408721924,-9.23900032043457,-0.9120000004768372
1622101071704,-6.579999923706055,28.513999938964844,-5.704999923706055,1.3730000257492063,-9.387000083923342,-0.977999985218048
1622101071714,-5.739999771118164,27.447999954223633,-3.690000057220459,1.2549999952316284,-9.5600004196167,-1.128000020980835
1622101071724,-4.409999847412109,26.83099937438965,-3.0169999599456787,1.0980000495910645,-9.843999862670898,-1.0980000495910645
1622101071734,-2.0999999046325684,27.26499938964844,-3.864000082015991,0.981000006198883,-10.11400032043457,-1.1460000276565552
1622101071744,-0.9100000262260436,27.808000564575195,-6.540999889373779,1.0590000152587893,-10.19200038909912,-1.1599999666213987
1622101071754,-1.1200000047683716,28.152999877929688,-7.688000202178955,1.1770000457763672,-9.967000007629396,-1.0800000429153442
1622101071764,-2.5899999141693115,28.756999969482425,-7.084000110626221,1.3339999914169312,-9.458000183105469,-1.0299999713897705
1622101071774,-3.569999933242798,28.375999450683594,-5.730000019073486,1.4509999752044678,-8.930000305175781,-0.8579999804496765
1622101071784,-3.2200000286102295,26.766000747680664,-4.663000106811523,1.4509999752044678,-8.75100040435791,-0.7459999918937683
1622101071794,-0.699999988079071,25.201000213623047,-3.446000099182129,1.4119999408721924,-8.770999908447266,-0.6299999952316284
1622101071804,0.8399999737739563,24.52400016784668,-2.427999973297119,1.3730000257492063,-8.592000007629395,-0.5189999938011169
1622101071814,2.2049999237060547,24.23200035095215,-2.5864999294281006,1.2549999952316284,-8.5649995803833,-0.6740000247955322
1622101071824,3.569999933242798,23.940000534057617,-2.744999885559082,1.3339999914169312,-8.732999801635742,-0.6240000128746032
1622101071834,6.929999828338623,22.788999557495117,-2.663000106811523,1.3339999914169312,-9.076000213623049,-0.4850000143051147
1622101071844,9.9399995803833,21.94499969482422,-1.1059999465942385,1.2940000295639038,-9.402999877929688,-0.662000000476837
1622101071854,11.130000114440918,21.155000686645508,0.9580000042915344,1.215999960899353,-9.58899974822998,-0.7350000143051147
1622101071864,9.869999885559082,20.551000595092773,1.562000036239624,1.2940000295639038,-9.553000450134276,-0.488999992609024
1622101071874,6.440000057220459,19.621999740600582,-0.0230000000447034,1.3339999914169312,-9.668999671936035,-0.5099999904632568
1622101071884,3.849999904632568,18.518999099731445,-2.634000062942505,1.4119999408721924,-9.90999984741211,-0.2739999890327453
1622101071894,1.190000057220459,17.59000015258789,-4.21999979019165,1.491000056266785,-10.097999572753906,-0.1080000028014183
1622101071904,-1.6100000143051147,17.406999588012695,-4.394000053405762,1.4509999752044678,-10.253000259399414,-0.135000005364418
1622101071914,-5.809999942779541,16.101999282836914,-3.8420000076293945,1.3339999914169312,-10.232000350952148,-0.2509999871253967
1622101071924,-10.359999656677246,14.848999977111816,-3.9920001029968266,1.1770000457763672,-9.987000465393066,-0.2870000004768371
1622101071934,-12.949999809265137,14.52400016784668,-4.9730000495910645,1.1380000114440918,-10.0600004196167,-0.101000003516674
1622101071944,-14.140000343322754,13.993000030517578,-5.991000175476074,1.1380000114440918,-10.324999809265137,0.0509999990463256
1622101071954,-16.030000686645508,14.227999687194824,-5.309999942779541,1.0590000152587893,-10.524999618530272,0.0560000017285346
1622101071964,-19.18000030517578,14.074000358581545,-3.6310000419616695,1.0980000495910645,-10.33899974822998,0.1289999932050705
1622101071974,-21.06999969482422,13.531000137329102,-3.371999979019165,1.1770000457763672,-10.086999893188477,0.0540000014007091
1622101071984,-21.489999771118164,13.22700023651123,-4.065000057220459,1.215999960899353,-9.82800006866455,-0.0599999986588954
1622101071994,-20.229999542236328,12.590000152587892,-4.888000011444092,1.2549999952316284,-9.800999641418455,-0.2150000035762786
1622101072004,-19.18000030517578,11.43000030517578,-3.9549999237060542,1.3339999914169312,-9.69200038909912,-0.1550000011920929
1622101072014,-18.1299991607666,10.222000122070312,-2.746999979019165,1.2940000295639038,-9.458000183105469,-0.3529999852180481
1622101072024,-16.170000076293945,8.64900016784668,-3.0950000286102295,1.3730000257492063,-9.211999893188477,-0.3899999856948852
1622101072034,-14.454999923706056,7.574500083923339,-3.249000072479248,1.4509999752044678,-9.083000183105469,-0.4460000097751617
1622101072044,-12.739999771118164,6.5,-3.4030001163482666,1.4119999408721924,-9.178000450134276,-0.5830000042915344
1622101072054,-10.079999923706056,4.613999843597412,-3.5929999351501465,1.3730000257492063,-9.253000259399414,-0.8349999785423278
1622101072064,-8.890000343322754,2.947000026702881,-3.8159999847412114,1.4119999408721924,-9.232999801635742,-0.9509999752044676
1622101072074,-7.9099998474121085,0.9240000247955322,-4.031000137329102,1.3730000257492063,-9.137000083923342,-0.8140000104904174
1622101072084,-6.090000152587891,-1.131999969482422,-4.464000225067139,1.3730000257492063,-8.862000465393066,-0.5669999718666076
1622101072093,-1.3300000429153442,-3.3380000591278076,-4.853000164031982,1.491000056266785,-9.32800006866455,-0.4099999964237213
1622101072103,3.849999904632568,-4.817999839782715,-4.11899995803833,1.6080000400543213,-9.772999763488768,-0.3689999878406524
1622101072113,4.130000114440918,-6.864999771118164,-1.7790000438690186,1.6480000019073486,-9.637000083923342,-0.4639999866485595
1622101072123,2.5199999809265137,-9.720000267028809,-1.7139999866485596,1.72599995136261,-9.279999732971191,-0.6800000071525573
1622101072133,2.869999885559082,-13.37399959564209,-4.775000095367432,1.8040000200271609,-9.217000007629396,-0.5899999737739563
1622101072143,5.039999961853027,-16.934999465942383,-6.752999782562256,1.9220000505447388,-9.22599983215332,-0.3120000064373016
1622101072153,7.280000209808349,-19.777000427246097,-6.756999969482422,1.9609999656677248,-9.270999908447264,-0.2800000011920929
1622101072163,8.890000343322754,-23.073999404907227,-7.4089999198913565,1.8830000162124632,-9.47599983215332,-0.4760000109672546
1622101072173,9.3100004196167,-26.025999069213867,-9.208999633789062,1.7649999856948853,-9.668999671936035,-0.5099999904632568
1622101072183,7.769999980926514,-27.895999908447266,-11.102999687194824,1.6480000019073486,-9.95300006866455,-0.4799999892711639
1622101072193,4.96999979019165,-28.3700008392334,-12.038999557495115,1.569000005722046,-10.08199977874756,-0.4239999949932098
1622101072203,3.009999990463257,-27.68899917602539,-12.274999618530272,1.5299999713897705,-10.090999603271484,-0.1459999978542327
1622101072213,0.8399999737739563,-26.64699935913086,-11.734999656677246,1.6080000400543213,-10.182000160217283,-0.0829999968409538
1622101072223,-2.1700000762939453,-25.76300048828125,-11.508999824523926,1.6480000019073486,-10.053000450134276,-0.1389999985694885
1622101072233,-3.849999904632568,-25.729999542236328,-11.289999961853027,1.8040000200271609,-9.678000450134276,-0.2329999953508377
1622101072243,-4.480000019073486,-25.94499969482422,-11.68299961090088,1.8040000200271609,-9.260000228881836,-0.1190000027418136
1622101072253,-2.5899999141693115,-26.792999267578125,-12.116999626159668,1.7649999856948853,-9.0600004196167,-0.123999997973442
1622101072263,-0.6649999618530273,-27.243000030517575,-12.586999893188477,1.6480000019073486,-8.904999732971191,-0.096000000834465
1622101072273,1.2599999904632568,-27.69300079345703,-13.057000160217283,1.687000036239624,-8.82800006866455,-0.0829999968409538
1622101072283,5.599999904632568,-27.66900062561035,-13.19499969482422,1.72599995136261,-8.982999801635742,-0.1099999994039535
1622101072293,9.239999771118164,-27.23900032043457,-13.616999626159668,1.687000036239624,-9.232999801635742,-0.2739999890327453
1622101072303,11.760000228881836,-27.46299934387207,-15.574999809265137,1.569000005722046,-9.439000129699709,-0.2300000041723251
1622101072313,12.390000343322754,-27.770999908447266,-17.051000595092773,1.491000056266785,-9.529999732971191,-0.1669999957084655
1622101072323,12.529999732971191,-27.85199928283691,-18.20299911499023,1.4119999408721924,-9.595999717712402,-0.0189999993890523
1622101072333,12.670000076293944,-26.781999588012695,-18.22800064086914,1.3730000257492063,-9.571000099182127,0.0649999976158142
1622101072343,12.31999969482422,-24.461999893188477,-17.676000595092773,1.2549999952316284,-9.531999588012695,0.0719999969005584
1622101072353,11.899999618530272,-22.243999481201172,-17.356000900268555,1.2549999952316284,-9.494000434875488,0.0790000036358833
1622101072363,11.409999847412108,-19.56399917602539,-17.23900032043457,1.2940000295639038,-9.526000022888184,0.032999999821186
1622101072373,11.340000152587892,-16.47800064086914,-17.4060001373291,1.4119999408721924,-9.68000030517578,0.006000000052154
1622101072383,10.5,-14.166000366210938,-17.211000442504883,1.3730000257492063,-9.829999923706056,0.1790000051259994
1622101072393,8.539999961853027,-12.378000259399414,-16.469999313354492,1.4119999408721924,-9.857000350952148,0.3330000042915344
1622101072403,7.070000171661377,-9.31999969482422,-14.86400032043457,1.3730000257492063,-9.845999717712402,0.4939999878406524
1622101072413,5.53000020980835,-6.214000225067139,-13.534999847412108,1.2549999952316284,-9.821000099182127,0.5789999961853027
1622101072423,4.269999980926514,-1.3480000495910645,-12.107999801635742,1.1770000457763672,-9.873000144958496,0.6489999890327453
1622101072433,2.5199999809265137,4.409999847412109,-10.097999572753906,1.0199999809265137,-9.947999954223633,0.3970000147819519
1622101072443,0.9100000262260436,10.651000022888184,-8.001999855041504,0.9409999847412108,-9.965999603271484,0.2739999890327453
1622101072453,-0.3499999940395355,17.264999389648438,-5.201000213623047,0.9020000100135804,-9.722999572753906,0.4760000109672546
1622101072463,-0.3499999940395355,24.55299949645996,-2.9920001029968266,0.8629999756813049,-9.465999603271484,0.6010000109672546
1622101072473,1.190000057220459,31.535999298095703,-0.2680000066757202,0.7059999704360961,-9.491000175476074,0.5170000195503234
1622101072483,2.799999952316284,38.45800018310547,2.8010001182556152,0.6669999957084655,-9.628000259399414,0.6129999756813049
1622101072493,3.5,42.20500183105469,5.131999969482422,0.7850000262260437,-9.75100040435791,0.6309999823570251
1622101072503,4.199999809265137,45.95199966430664,7.4629998207092285,0.8629999756813049,-9.904999732971191,0.6039999723434448
1622101072513,4.690000057220459,53.750999450683594,11.609999656677246,1.1380000114440918,-9.781999588012695,0.5849999785423278
1622101072523,5.179999828338623,60.63199996948242,12.895000457763672,1.5299999713897705,-9.904999732971191,0.6039999723434448
1622101072533,5.809999942779541,65.30699920654297,11.373000144958496,2.1570000648498535,-10.006999969482422,0.5059999823570251
1622101072543,5.949999809265137,67.2249984741211,10.574000358581545,2.8239998817443848,-10.14799976348877,0.4009999930858612
1622101072553,4.409999847412109,65.8219985961914,11.677000045776367,3.413000106811523,-10.17300033569336,0.31700000166893
1622101072563,2.240000009536743,59.69900131225586,12.942999839782717,3.92300009727478,-10.01200008392334,0.3059999942779541
1622101072573,0.8399999737739563,50.09299850463867,11.392000198364258,4.276000022888184,-9.76599979400635,0.2689999938011169
1622101072583,0.4199999868869781,37.472999572753906,7.176000118255615,4.511000156402588,-9.637000083923342,0.2129999995231628
1622101072593,1.190000057220459,23.106000900268555,2.7950000762939453,4.706999778747559,-9.538999557495115,0.1099999994039535
1622101072603,1.8200000524520872,8.312999725341797,-0.3819999992847442,4.863999843597412,-9.062000274658203,0.1150000020861625
1622101072613,4.269999980926514,-6.565000057220459,-3.0769999027252197,4.824999809265137,-8.71399974822998,0.1759999990463256
1622101072623,7.980000019073486,-21.07799911499023,-4.214000225067139,4.668000221252441,-8.720999717712402,0.2150000035762786
1622101072633,12.039999961853027,-34.26900100708008,-3.9809999465942383,4.354000091552734,-8.741999626159668,0.3310000002384185
1622101072643,15.050000190734863,-45.16899871826172,-2.634000062942505,3.92300009727478,-8.947999954223633,0.3740000128746032
1622101072653,16.65999984741211,-53.29499816894531,-1.2940000295639038,3.413000106811523,-9.201000213623049,0.4490000009536743
1622101072663,16.239999771118164,-57.617000579833984,-0.5640000104904174,2.746000051498413,-9.253000259399414,0.5189999938011169
1622101072673,15.539999961853027,-58.00699996948242,0.4339999854564666,2.1570000648498535,-9.343999862670898,0.5830000042915344
1622101072683,14.909999847412108,-54.84400177001953,0.6359999775886535,1.569000005722046,-9.550999641418455,0.6259999871253967
1622101072693,13.369999885559082,-49.52799987792969,0.7210000157356262,1.0980000495910645,-9.803000450134276,0.7009999752044677
1622101072703,10.56999969482422,-41.48199844360352,0.6460000276565551,0.6669999957084655,-9.939000129699709,0.7969999909400939
1622101072713,9.204999923706056,-36.53099822998047,0.3820000290870666,0.3919999897480011,-9.906999588012695,0.8420000076293945
1622101072723,7.8400001525878915,-31.579999923706055,0.1180000007152557,0.2349999994039535,-10.02299976348877,0.8220000267028807
1622101072733,5.039999961853027,-21.540000915527344,0.8220000267028807,0.3529999852180481,-10.019000053405762,1.0219999551773071
1622101072743,3.0799999237060547,-12.619000434875488,3.0350000858306885,0.5490000247955322,-9.93000030517578,1.1970000267028809
1622101072753,2.0299999713897705,-4.005000114440918,6.188000202178955,0.7450000047683715,-9.968999862670898,1.190000057220459
1622101072763,-0.209999993443489,3.371000051498413,9.906000137329102,0.9020000100135804,-9.965999603271484,0.9509999752044676
1622101072773,-2.5199999809265137,8.371000289916992,12.991000175476074,1.1770000457763672,-9.829999923706056,0.856000006198883
1622101072783,-4.550000190734863,11.440999984741213,13.319000244140623,1.491000056266785,-9.513999938964846,0.871999979019165
1622101072793,-6.019999980926514,12.494999885559082,12.581000328063965,1.72599995136261,-9.385000228881836,0.8149999976158142
1622101072803,-7.0,11.484999656677246,12.26099967956543,2.0399999618530273,-9.307000160217283,0.828000009059906
1622101072813,-7.349999904632568,9.0649995803833,12.687000274658203,2.2750000953674316,-9.255000114440918,0.7580000162124633
1622101072823,-6.71999979019165,5.452000141143799,12.618000030517578,2.3540000915527344,-9.241000175476074,0.6809999942779541
1622101072833,-5.949999809265137,1.5789999961853027,10.79800033569336,2.2750000953674316,-9.267000198364256,0.597000002861023
1622101072843,-4.480000019073486,-1.9170000553131104,8.048999786376953,2.0789999961853027,-9.156999588012695,0.656000018119812
1622101072853,-1.3300000429153442,-4.322000026702881,5.564000129699707,1.9220000505447388,-9.178000450134276,0.7720000147819519
1622101072863,0.9800000190734864,-6.113999843597412,4.039999961853027,1.6480000019073486,-9.33199977874756,0.7440000176429749
1622101072873,3.1500000953674316,-6.065999984741211,2.555000066757202,1.3730000257492063,-9.564000129699709,0.703000009059906
1622101072883,4.269999980926514,-3.9409999847412114,0.5839999914169312,1.0980000495910645,-9.770999908447264,0.746999979019165
1622101072893,4.760000228881836,-0.5640000104904174,-2.444999933242798,0.9020000100135804,-10.027999877929688,0.621999979019165
1622101072903,4.409999847412109,2.3959999084472656,-5.122000217437744,0.7850000262260437,-10.265999794006348,0.6200000047683715
1622101072913,3.359999895095825,4.783999919891357,-5.767000198364258,0.7450000047683715,-10.470999717712402,0.4239999949932098
1622101072923,2.1700000762939453,7.651000022888184,-3.4839999675750732,0.8240000009536743,-10.432000160217283,0.4309999942779541
1622101072933,0.8399999737739563,9.447999954223633,0.0309999994933605,0.7850000262260437,-10.260000228881836,0.5809999704360961
1622101072943,0.7699999809265136,11.618000030517578,1.8350000381469729,0.8240000009536743,-10.246000289916992,0.5040000081062316
1622101072953,0.8049999475479126,12.61750030517578,2.0114998817443848,0.8629999756813049,-10.340999603271484,0.367000013589859
1622101072963,0.8399999737739563,13.616999626159668,2.187999963760376,0.9409999847412108,-10.39799976348877,0.2380000054836273
1622101072973,0.209999993443489,14.82900047302246,1.7619999647140503,1.0980000495910645,-10.440999984741213,0.0309999994933605
1622101072983,0.0700000002980232,16.28499984741211,2.374000072479248,1.1770000457763672,-10.557000160217283,0.0109999999403953
1622101072993,-1.4700000286102295,16.520000457763672,3.055000066757202,1.215999960899353,-10.550000190734863,-0.0280000008642673
1622101073003,-3.0799999237060547,15.538999557495115,4.5879998207092285,1.215999960899353,-10.4350004196167,-0.0080000003799796
1622101073013,-4.059999942779541,14.104000091552734,6.681000232696533,1.215999960899353,-10.112000465393066,-0.0299999993294477
1622101073023,-5.320000171661377,12.04800033569336,7.454999923706055,1.0590000152587893,-9.711999893188477,-0.0399999991059303
1622101073033,-6.090000152587891,10.11400032043457,7.540999889373779,0.9409999847412108,-9.312000274658203,-0.0489999987185001
1622101073043,-5.880000114440918,8.354000091552734,7.443999767303467,0.7450000047683715,-8.859999656677246,-0.1280000060796737
1622101073053,-4.829999923706055,6.748000144958496,6.875999927520752,0.5099999904632568,-8.505000114440918,-0.1059999987483024
1622101073063,-2.380000114440918,5.324999809265137,6.482999801635742,0.3140000104904174,-8.36400032043457,-0.0010000000474974
1622101073073,0.5600000023841857,4.310999870300293,5.380000114440918,0.1180000007152557,-8.402999877929688,-0.0080000003799796
1622101073083,3.7100000381469727,3.4920001029968266,3.174999952316284,0.0390000008046627,-8.72599983215332,0.0149999996647238
1622101073093,6.090000152587891,2.996999979019165,0.7419999837875366,-0.0390000008046627,-9.10099983215332,0.1080000028014183
1622101073103,7.139999866485596,2.9839999675750732,-0.3980000019073486,-0.1180000007152557,-9.352999687194824,0.1829999983310699
1622101073113,6.789999961853027,4.0960001945495605,0.1539999991655349,-0.0780000016093254,-9.50699996948242,0.1560000032186508
1622101073123,5.880000114440918,4.5980000495910645,0.5270000100135803,-0.1570000052452087,-9.637000083923342,0.2129999995231628
1622101073133,5.039999961853027,5.6529998779296875,-0.2119999974966049,-0.1180000007152557,-9.651000022888184,0.2899999916553497
1622101073143,4.130000114440918,6.973999977111816,-1.2580000162124634,-0.1570000052452087,-9.689000129699709,0.2829999923706054
1622101073153,3.6400001049041744,8.248000144958496,-2.0290000438690186,-0.1570000052452087,-9.696000099182127,0.3219999969005584
1622101073163,3.2899999618530273,10.027999877929688,-1.6440000534057615,-0.0780000016093254,-9.779999732971191,0.3470000028610229
1622101073173,3.184999942779541,10.763999938964844,-1.5850000381469729,-0.0390000008046627,-9.878000259399414,0.4490000009536743
1622101073183,3.0799999237060547,11.5,-1.5260000228881836,0.0,-10.085000038146973,0.492000013589859
1622101073193,3.569999933242798,12.06700038909912,-1.924000024795532,0.0780000016093254,-10.187000274658203,0.395000010728836
1622101073203,3.2899999618530273,11.85200023651123,-2.316999912261963,0.1570000052452087,-10.281999588012695,0.2579999864101409
1622101073213,1.8200000524520872,10.56700038909912,-1.4769999980926514,0.2349999994039535,-10.274999618530272,0.2199999988079071
1622101073223,-0.2800000011920929,9.597999572753906,1.1950000524520874,0.2349999994039535,-10.255000114440918,0.1040000021457672
1622101073233,-2.5899999141693115,8.531999588012695,4.419000148773193,0.1570000052452087,-10.159999847412108,0.2399999946355819
1622101073243,-4.340000152587891,7.125,5.947999954223633,0.0780000016093254,-10.190999984741213,0.1949999928474426
1622101073253,-5.53000020980835,5.755000114440918,6.060999870300293,0.0780000016093254,-10.11400032043457,0.2080000042915344
1622101073263,-6.650000095367432,3.9790000915527344,6.459000110626221,0.0780000016093254,-10.029999732971191,0.1829999983310699
1622101073273,-8.1899995803833,2.688999891281128,6.515999794006348,0.0,-9.720999717712402,0.2380000054836273
1622101073283,-7.280000209808349,0.8730000257492065,6.3379998207092285,0.1180000007152557,-9.592000007629396,0.1809999942779541
1622101073293,-5.039999961853027,-0.5789999961853027,6.507999897003174,0.1180000007152557,-9.675999641418455,0.2060000002384185
1622101073303,-4.340000152587891,-3.0969998836517334,7.486000061035157,0.0390000008046627,-9.72599983215332,0.0379999987781047
1622101073313,-4.340000152587891,-5.752999782562256,8.439000129699707,0.0,-9.697999954223633,-0.1169999986886978
1622101073323,-5.110000133514404,-8.732999801635742,9.619999885559082,-0.0390000008046627,-9.642000198364256,0.0130000002682209
1622101073333,-6.440000057220459,-10.833999633789064,10.244000434875488,-0.2349999994039535,-9.602999687194824,0.0199999995529651
1622101073343,-7.630000114440918,-12.515999794006348,9.30799961090088,-0.3529999852180481,-9.468999862670898,0.163000002503395
1622101073353,-8.329999923706055,-14.020999908447266,7.763000011444091,-0.4309999942779541,-9.366999626159668,0.2599999904632568
1622101073363,-8.1899995803833,-14.869000434875488,6.120999813079834,-0.4709999859333038,-9.411999702453612,0.2919999957084655
1622101073373,-8.1899995803833,-14.946000099182127,5.751999855041504,-0.4709999859333038,-9.520999908447264,0.2329999953508377
1622101073383,-8.399999618530273,-14.593000411987305,6.170000076293945,-0.5879999995231628,-9.482000350952148,0.2399999946355819
1622101073393,-9.729999542236328,-13.932000160217283,5.645999908447266,-0.6669999957084655,-9.347999572753906,0.3829999864101409
1622101073403,-9.204999923706056,-13.246999740600586,4.38100004196167,-0.9409999847412108,-9.095999717712402,0.3079999983310699
1622101073413,-8.680000305175781,-12.562000274658203,3.115999937057495,-1.0590000152587893,-8.994000434875488,0.4059999883174896
1622101073423,-6.090000152587891,-11.090000152587892,-0.3919999897480011,-1.0980000495910645,-9.053000450134276,0.5149999856948853
1622101073433,-2.799999952316284,-7.736999988555909,-3.2829999923706055,-1.1380000114440918,-9.0600004196167,0.5529999732971191
1622101073443,0.0700000002980232,-4.388000011444092,-4.540999889373779,-1.1380000114440918,-8.97599983215332,0.527999997138977
1622101073453,3.1500000953674316,-1.1440000534057615,-5.604000091552734,-1.0980000495910645,-8.916999816894531,0.4189999997615814
1622101073463,6.860000133514404,1.7139999866485596,-6.09499979019165,-0.9409999847412108,-8.961999893188477,0.4510000050067901
1622101073473,10.850000381469728,4.525000095367432,-5.1020002365112305,-0.9020000100135804,-9.21399974822998,0.5260000228881835
1622101073483,13.229999542236328,6.811999797821045,-3.561000108718872,-0.8629999756813049,-9.406999588012695,0.492000013589859
1622101073493,14.279999732971191,8.84000015258789,-2.563999891281128,-0.8240000009536743,-9.510000228881836,0.3939999938011169
1622101073503,14.699999809265137,9.942999839782717,-2.36899995803833,-0.7850000262260437,-9.612000465393066,0.2969999909400939
1622101073513,14.770000457763672,10.371999740600586,-1.5829999446868896,-0.7450000047683715,-9.734999656677246,0.3149999976158142
1622101073523,14.06999969482422,11.251999855041504,-0.9300000071525572,-0.7850000262260437,-9.779999732971191,0.3470000028610229
1622101073533,12.8100004196167,11.869000434875488,-0.395000010728836,-0.8240000009536743,-9.793999671936035,0.4239999949932098
1622101073543,12.18000030517578,12.684000015258787,-0.1800000071525573,-0.9020000100135804,-9.722999572753906,0.4760000109672546
1622101073553,11.899999618530272,13.579999923706056,-0.0219999998807907,-0.9020000100135804,-9.845999717712402,0.4939999878406524
1622101073563,10.710000038146973,13.909000396728516,0.5329999923706054,-0.8629999756813049,-10.038999557495115,0.4600000083446502
1622101073573,8.119999885559082,14.38700008392334,1.0440000295639038,-0.7850000262260437,-10.140999794006348,0.3630000054836273
1622101073583,4.760000228881836,14.390999794006348,0.6179999709129333,-0.7850000262260437,-10.1850004196167,0.1560000032186508
1622101073593,0.5600000023841857,14.359000205993652,-0.809000015258789,-0.7850000262260437,-10.279999732971191,0.0199999995529651
1622101073603,-4.199999809265137,14.314000129699709,-2.1670000553131104,-0.7450000047683715,-10.388999938964844,-0.0390000008046627
1622101073613,-8.819999694824219,13.465999603271484,-1.3930000066757202,-0.7450000047683715,-10.453000068664553,-0.1299999952316284
1622101073623,-12.949999809265137,13.072999954223633,0.0309999994933605,-0.7450000047683715,-10.394000053405762,-0.238999992609024
1622101073633,-15.890000343322754,11.69499969482422,3.413000106811523,-0.7059999704360961,-10.303000450134276,-0.3030000030994415
1622101073643,-18.760000228881836,9.923999786376951,7.010000228881836,-0.7059999704360961,-10.256999969482422,-0.3350000083446502
1622101073653,-19.775001525878903,9.542999267578123,8.364500045776367,-0.8240000009536743,-10.135000228881836,-0.3529999852180481
1622101073663,-20.790000915527344,9.161999702453612,9.718999862670898,-1.0199999809265137,-10.057000160217283,-0.3389999866485595
1622101073673,-21.420000076293945,9.255000114440918,9.593000411987305,-1.3730000257492063,-10.01200008392334,-0.3709999918937683
1622101073683,-21.420000076293945,9.45699977874756,6.429999828338623,-1.491000056266785,-10.005000114440918,-0.4099999964237213
1622101073693,-20.93000030517578,9.671999931335447,3.197999954223633,-1.4509999752044678,-10.036999702453612,-0.4550000131130218
1622101073703,-20.229999542236328,9.982999801635742,0.6230000257492065,-1.4509999752044678,-10.01200008392334,-0.3709999918937683
1622101073713,-19.8799991607666,9.659000396728516,0.8500000238418579,-1.491000056266785,-9.92099952697754,-0.4350000023841857
1622101073723,-20.3700008392334,9.322999954223633,2.3550000190734863,-1.491000056266785,-9.87600040435791,-0.4670000076293945
1622101073733,-20.93000030517578,8.543999671936035,3.1410000324249268,-1.491000056266785,-9.94200038909912,-0.3190000057220459
1622101073743,-21.06999969482422,7.677000045776368,3.628000020980835,-1.4509999752044678,-10.01200008392334,-0.3709999918937683
1622101073753,-21.0,7.458000183105469,3.66100001335144,-1.491000056266785,-9.946000099182127,-0.5189999938011169
1622101073762,-20.510000228881836,7.079999923706055,3.38100004196167,-1.5299999713897705,-9.79800033569336,-0.453000009059906
1622101073772,-19.11000061035156,7.668000221252441,0.8550000190734863,-1.491000056266785,-9.541999816894531,-0.328000009059906
1622101073782,-16.59000015258789,9.090999603271484,-3.5859999656677246,-1.3730000257492063,-9.277999877929688,-0.2419999986886978
1622101073792,-13.229999542236328,10.984000205993652,-9.081000328063965,-1.2549999952316284,-8.961999893188477,-0.2259999960660934
1622101073802,-8.539999961853027,13.059000015258787,-13.192999839782717,-1.0980000495910645,-8.692000389099121,-0.1780000030994415
1622101073812,-2.450000047683716,15.074000358581545,-14.54300022125244,-0.9020000100135804,-8.473999977111816,-0.0599999986588954
1622101073822,4.900000095367432,15.767999649047852,-13.638999938964844,-0.6669999957084655,-8.473999977111816,-0.0599999986588954
1622101073832,11.619999885559082,15.553000450134276,-10.406999588012695,-0.5879999995231628,-8.564000129699707,0.003000000026077
1622101073842,17.010000228881836,14.925000190734863,-7.248000144958496,-0.5099999904632568,-8.803000450134277,0.0010000000474974
1622101073852,19.11000061035156,14.515999794006348,-6.539000034332275,-0.5490000247955322,-8.958000183105469,-0.0260000005364418
1622101073862,19.950000762939453,14.345000267028809,-7.989999771118165,-0.5490000247955322,-9.272999763488768,-0.0419999994337558
1622101073872,19.740001678466797,14.229499816894531,-9.147999763488768,-0.4709999859333038,-9.666999816894531,-0.0710000023245811
1622101073882,19.530000686645508,14.11400032043457,-10.305999755859377,-0.4309999942779541,-9.885000228881836,-0.1889999955892562
1622101073892,17.079999923706055,14.449999809265137,-11.8100004196167,-0.4709999859333038,-9.916999816894531,-0.2349999994039535
1622101073902,13.720000267028809,14.312000274658203,-13.04300022125244,-0.3919999897480011,-9.916999816894531,-0.2349999994039535
1622101073912,10.010000228881836,13.28600025177002,-14.07699966430664,-0.3919999897480011,-9.968999862670898,-0.164000004529953
1622101073922,6.929999828338623,12.29300022125244,-13.68299961090088,-0.4309999942779541,-9.866000175476074,-0.06700000166893
1622101073932,5.389999866485596,11.222999572753906,-11.241999626159668,-0.5490000247955322,-9.718999862670898,-0.0010000000474974
1622101073942,4.96999979019165,9.779000282287598,-9.505999565124512,-0.6280000209808348,-9.68000030517578,0.006000000052154
1622101073952,5.599999904632568,8.586999893188477,-7.584000110626221,-0.7450000047683715,-9.72599983215332,0.0379999987781047
1622101073962,6.510000228881836,7.866000175476073,-5.507999897003174,-0.8629999756813049,-9.701000213623049,0.1220000013709068
1622101073972,6.929999828338623,7.663000106811523,-4.76200008392334,-0.9409999847412108,-9.616999626159668,0.0970000028610229
1622101073982,7.139999866485596,7.683000087738037,-5.682000160217285,-0.981000006198883,-9.50699996948242,0.1560000032186508
1622101073992,6.860000133514404,7.9629998207092285,-7.26800012588501,-0.981000006198883,-9.585000038146973,0.1420000046491622
1622101074002,6.789999961853027,8.793999671936035,-8.755999565124512,-0.9409999847412108,-9.682000160217283,0.2440000027418136
1622101074012,6.510000228881836,9.048999786376951,-10.20400047302246,-0.981000006198883,-9.682000160217283,0.2440000027418136
1622101074022,6.090000152587891,10.107999801635742,-11.368000030517578,-1.0199999809265137,-9.64400005340576,0.2509999871253967
1622101074032,6.579999923706055,10.47700023651123,-11.44499969482422,-0.9409999847412108,-9.689000129699709,0.2829999923706054
1622101074042,6.440000057220459,10.468999862670898,-10.593000411987305,-0.8629999756813049,-9.819000244140623,0.3400000035762786
1622101074052,5.880000114440918,9.998000144958496,-8.329999923706055,-0.7850000262260437,-9.843999862670898,0.2560000121593475
1622101074062,5.25,8.692999839782715,-6.570000171661377,-0.7059999704360961,-9.88199996948242,0.248999997973442
1622101074072,4.409999847412109,6.110000133514404,-6.031000137329102,-0.6280000209808348,-9.87600040435791,0.209999993443489
1622101074082,4.480000019073486,4.321499824523926,-6.168499946594238,-0.4709999859333038,-9.836999893188477,0.2169999927282333
1622101074092,4.550000190734863,2.5329999923706055,-6.306000232696533,-0.3529999852180481,-9.71399974822998,0.1990000009536743
1622101074102,4.900000095367432,-2.5999999046325684,-6.216000080108643,-0.2349999994039535,-9.565999984741213,0.2649999856948852
1622101074112,5.670000076293945,-8.548999786376953,-6.341000080108643,-0.1959999948740005,-9.411999702453612,0.2919999957084655
1622101074122,6.789999961853027,-14.737000465393066,-5.513000011444092,-0.1959999948740005,-9.404999732971191,0.2540000081062316
1622101074132,8.399999618530273,-20.709999084472656,-5.5,-0.4309999942779541,-9.352999687194824,0.1829999983310699
1622101074142,9.380000114440918,-25.871999740600582,-6.054999828338623,-0.5879999995231628,-9.45699977874756,0.3240000009536743
1622101074152,10.149999618530272,-29.979999542236328,-7.348000049591064,-0.7450000047683715,-9.470999717712402,0.4009999930858612
1622101074162,10.640000343322754,-32.98400115966797,-8.446000099182129,-0.9020000100135804,-9.51599979400635,0.4329999983310699
1622101074172,10.359999656677246,-34.93899917602539,-8.64799976348877,-1.1380000114440918,-9.477999687194824,0.4399999976158142
1622101074182,9.170000076293944,-35.98500061035156,-8.76200008392334,-1.3730000257492063,-9.569000244140623,0.5040000081062316
1622101074192,8.119999885559082,-35.44599914550781,-9.803999900817873,-1.6080000400543213,-9.61400032043457,0.5350000262260437
1622101074202,6.71999979019165,-33.34600067138672,-11.63700008392334,-1.7649999856948853,-9.781999588012695,0.5849999785423278
1622101074212,4.96999979019165,-30.694000244140625,-13.373000144958496,-1.9220000505447388,-9.897999763488768,0.5649999976158142
1622101074222,3.2200000286102295,-27.07699966430664,-13.729999542236328,-2.000999927520752,-9.82800006866455,0.6169999837875366
1622101074232,1.2599999904632568,-23.363000869750977,-13.430999755859377,-2.000999927520752,-9.781999588012695,0.5849999785423278
1622101074242,-0.6299999952316284,-19.631999969482425,-12.41800022125244,-2.000999927520752,-9.814000129699709,0.5400000214576721
1622101074252,-2.6600000858306885,-15.678000450134276,-11.86299991607666,-2.000999927520752,-9.697999954223633,0.5600000023841857
1622101074262,-3.7799999713897705,-12.118000030517578,-12.300999641418455,-1.8830000162124632,-9.690999984741213,0.5220000147819519
1622101074272,-4.690000057220459,-9.416999816894531,-11.895999908447266,-1.8040000200271609,-9.6850004196167,0.4830000102519989
1622101074282,-6.440000057220459,-6.468999862670898,-10.878999710083008,-1.72599995136261,-9.786999702453612,0.3849999904632568
1622101074292,-7.105000019073486,-5.011499881744385,-10.479499816894531,-1.687000036239624,-10.01200008392334,0.3059999942779541
1622101074302,-7.769999980926514,-3.553999900817871,-10.079999923706056,-1.6480000019073486,-10.263999938964844,0.3810000121593475
1622101074312,-8.890000343322754,-0.4070000052452087,-10.592000007629396,-1.6480000019073486,-10.604999542236328,0.2809999883174896
1622101074322,-11.199999809265137,2.438999891281128,-12.222000122070312,-1.6480000019073486,-10.765999794006348,0.2919999957084655
1622101074332,-13.789999961853027,5.460000038146973,-12.82699966430664,-1.5299999713897705,-10.829999923706056,0.2010000050067901
1622101074342,-16.729999542236328,8.947999954223633,-12.85200023651123,-1.3730000257492063,-10.847999572753906,0.0790000036358833
1622101074352,-19.670000076293945,11.388999938964844,-11.781000137329102,-1.3339999914169312,-10.833999633789064,0.0020000000949949
1622101074362,-21.280000686645508,14.069000244140623,-10.456000328063965,-1.2549999952316284,-10.531999588012695,0.0949999988079071
1622101074372,-20.93000030517578,16.72100067138672,-9.774999618530272,-1.2549999952316284,-10.36400032043457,0.0450000017881393
1622101074382,-19.040000915527344,19.21500015258789,-10.614999771118164,-1.0980000495910645,-10.062000274658203,0.1379999965429306
1622101074392,-17.010000228881836,21.790000915527344,-11.51099967956543,-1.0199999809265137,-10.104999542236328,-0.0689999982714653
1622101074402,-15.81999969482422,24.031999588012695,-11.32900047302246,-0.9409999847412108,-10.201000213623049,-0.2049999982118606
1622101074412,-13.369999885559082,26.22599983215332,-10.871000289916992,-0.9409999847412108,-9.95699977874756,-0.003000000026077
1622101074422,-10.149999618530272,28.05900001525879,-12.395999908447266,-0.7850000262260437,-9.687000274658203,0.0450000017881393
1622101074432,-8.329999923706055,28.763999938964844,-13.977999687194824,-0.5879999995231628,-9.33199977874756,0.06700000166893
1622101074442,-7.070000171661377,29.47800064086914,-13.994000434875488,-0.3140000104904174,-9.343999862670898,-0.0939999967813491
1622101074452,-5.949999809265137,28.927000045776367,-12.883000373840332,-0.1570000052452087,-9.241999626159668,0.0040000001899898
1622101074462,-4.340000152587891,28.156000137329105,-14.156000137329102,0.0,-9.262000083923342,0.1190000027418136
1622101074472,-1.8200000524520872,26.22100067138672,-16.48699951171875,0.0390000008046627,-9.029999732971191,0.1599999964237213
1622101074482,1.1200000047683716,25.19499969482422,-18.729000091552734,0.1570000052452087,-8.95300006866455,0.1739999949932098
1622101074492,3.430000066757202,24.513999938964844,-19.70299911499023,0.3140000104904174,-9.227999687194824,-0.0740000009536743
1622101074502,3.9200000762939458,23.85900115966797,-19.818500518798828,0.4709999859333038,-9.44200038909912,0.0080000003799796
1622101074512,4.409999847412109,23.20400047302246,-19.93400001525879,0.6669999957084655,-10.031999588012695,-0.2549999952316284
1622101074522,3.849999904632568,21.066999435424805,-20.309999465942383,0.7059999704360961,-9.704999923706056,-0.0780000016093254
1622101074532,0.0700000002980232,18.312999725341797,-22.430999755859375,0.9020000100135804,-9.529999732971191,-0.1669999957084655
1622101074542,-2.1700000762939453,14.619000434875488,-24.858999252319336,1.1380000114440918,-9.762000083923342,-0.2080000042915344
1622101074552,-3.1500000953674316,10.373000144958496,-26.176000595092773,1.4119999408721924,-9.885000228881836,-0.1889999955892562
1622101074562,-4.409999847412109,5.921000003814697,-25.113000869750977,1.4509999752044678,-9.885000228881836,-0.1889999955892562
1622101074572,-7.559999942779541,-0.6520000100135803,-24.92200088500977,1.4119999408721924,-9.793999671936035,-0.2529999911785125
1622101074582,-9.520000457763674,-7.861999988555909,-25.55299949645996,1.3339999914169312,-9.717000007629396,-0.2399999946355819
1622101074592,-10.779999732971191,-12.666999816894531,-26.11599922180176,1.1380000114440918,-9.55500030517578,-0.2509999871253967
1622101074602,-11.0600004196167,-16.454999923706055,-26.00200080871582,0.8240000009536743,-9.347999572753906,-0.2939999997615814
1622101074612,-10.56999969482422,-18.332000732421875,-25.836000442504883,0.5099999904632568,-9.354999542236328,-0.2549999952316284
1622101074622,-7.8400001525878915,-17.966999053955078,-25.48699951171875,0.2750000059604644,-9.557000160217283,-0.0120000001043081
1622101074632,-4.550000190734863,-15.44499969482422,-24.474000930786133,0.1570000052452087,-9.687000274658203,0.0450000017881393
1622101074642,-4.340000152587891,-11.425999641418455,-23.481000900268555,-0.0390000008046627,-9.576000213623049,-0.135000005364418
1622101074652,-5.25,-7.021999835968018,-23.059999465942383,-0.2349999994039535,-9.54800033569336,-0.2899999916553497
1622101074662,-5.460000038146973,-0.6800000071525573,-23.149999618530273,-0.2349999994039535,-9.54800033569336,-0.2899999916553497
1622101074672,-6.929999828338623,4.988999843597412,-21.43899917602539,-0.2349999994039535,-9.517000198364256,-0.2440000027418136
1622101074682,-8.050000190734863,11.17300033569336,-19.424999237060547,-0.2349999994039535,-9.387000083923342,-0.3009999990463256
1622101074692,-7.489999771118165,17.555999755859375,-17.731000900268555,-0.2349999994039535,-9.232999801635742,-0.2739999890327453
1622101074702,-6.579999923706055,20.718999862670895,-16.92449951171875,-0.2349999994039535,-9.130000114440918,-0.1759999990463256
1622101074712,-5.670000076293945,23.881999969482425,-16.118000030517578,-0.1180000007152557,-9.020999908447264,-0.1169999986886978
1622101074722,-3.6400001049041744,30.11400032043457,-14.378999710083008,0.0390000008046627,-8.97599983215332,-0.1490000039339065
1622101074732,-2.0999999046325684,36.3390007019043,-12.996999740600586,0.3140000104904174,-9.109999656677246,-0.2919999957084655
1622101074742,-1.0499999523162842,40.92100143432618,-10.767999649047852,0.5879999995231628,-9.142000198364256,-0.3370000123977661
1622101074752,-0.6299999952316284,43.51300048828125,-8.534000396728516,0.9409999847412108,-9.071000099182127,-0.2849999964237213
1622101074762,1.399999976158142,44.06100082397461,-6.802000045776367,1.3339999914169312,-9.102999687194824,-0.3300000131130218
1622101074772,4.059999942779541,42.4630012512207,-7.013000011444092,1.72599995136261,-9.527999877929688,-0.4050000011920929
1622101074782,4.96999979019165,39.85499954223633,-7.544000148773193,1.9220000505447388,-9.772999763488768,-0.3689999878406524
1622101074792,3.7799999713897705,36.12099838256836,-8.130999565124512,2.1570000648498535,-9.777999877929688,-0.5690000057220459
1622101074802,0.9100000262260436,30.030000686645508,-9.062999725341797,2.431999921798706,-9.595999717712402,-0.6959999799728394
1622101074812,0.2800000011920929,22.775999069213867,-9.845000267028809,2.6670000553131104,-9.654999732971191,-0.5870000123977661
1622101074822,0.9800000190734864,15.47700023651123,-9.567999839782717,2.746000051498413,-9.755000114440918,-0.2460000067949295
1622101074832,-1.2599999904632568,7.083000183105469,-9.128999710083008,2.746000051498413,-9.67099952697754,-0.2709999978542327
1622101074842,-2.7300000190734863,-0.8080000281333923,-9.524999618530272,2.628000020980835,-9.402999877929688,-0.662000000476837
1622101074852,-3.359999895095825,-8.913999557495117,-10.3149995803833,2.628000020980835,-9.357999801635742,-0.6940000057220459
1622101074862,-1.8200000524520872,-15.32900047302246,-9.810999870300291,2.549999952316284,-9.494000434875488,-0.5989999771118164
1622101074872,-0.2800000011920929,-20.70599937438965,-9.550999641418455,2.431999921798706,-9.592000007629396,-0.4959999918937683
1622101074882,0.7699999809265136,-26.204999923706055,-9.809000015258787,2.3540000915527344,-9.637000083923342,-0.4639999866485595
1622101074892,3.009999990463257,-30.636999130249023,-10.875,2.2750000953674316,-9.553000450134276,-0.488999992609024
1622101074902,4.130000114440918,-32.739498138427734,-11.246000289916992,2.236000061035156,-9.513999938964846,-0.4830000102519989
1622101074912,5.25,-34.84199905395508,-11.616999626159668,2.1570000648498535,-9.668999671936035,-0.5099999904632568
1622101074922,6.650000095367432,-38.72700119018555,-10.951000213623049,1.9220000505447388,-9.322999954223633,-0.209999993443489
1622101074932,8.75,-42.071998596191406,-8.91100025177002,1.843999981880188,-9.444000244140623,-0.4300000071525573
1622101074942,11.409999847412108,-44.1879997253418,-6.583000183105469,1.569000005722046,-9.55500030517578,-0.2509999871253967
1622101074952,14.0,-44.95800018310547,-4.230999946594238,1.2940000295639038,-9.755000114440918,-0.2460000067949295
1622101074962,15.329999923706056,-44.03400039672851,-3.427999973297119,0.9409999847412108,-9.991999626159668,-0.4869999885559082
1622101074972,13.789999961853027,-43.70500183105469,-2.872999906539917,0.6669999957084655,-10.031999588012695,-0.2549999952316284
1622101074982,12.600000381469728,-40.20100021362305,-0.9760000109672546,0.4309999942779541,-10.20699977874756,-0.1669999957084655
1622101074992,10.5,-34.42300033569336,1.3229999542236328,0.2349999994039535,-10.42099952697754,-0.0850000008940696
1622101075002,8.050000190734863,-28.506000518798828,2.437000036239624,0.0780000016093254,-10.27299976348877,-0.0189999993890523
1622101075012,4.900000095367432,-23.506000518798828,3.1050000190734863,0.0,-10.034999847412108,-0.0170000009238719
1622101075022,2.5899999141693115,-18.69300079345703,4.025000095367432,0.0,-9.878000259399414,-0.2280000001192092
1622101075032,1.4700000286102295,-13.097000122070312,7.357999801635742,0.0780000016093254,-9.652999877929688,-0.1490000039339065
1622101075042,0.8399999737739563,-7.868999958038329,10.767000198364258,0.1180000007152557,-9.460000038146973,-0.1150000020861625
1622101075052,1.2599999904632568,-2.8980000019073486,11.99899959564209,0.0780000016093254,-9.39400005340576,-0.2619999945163726
1622101075062,2.0999999046325684,0.8730000257492065,11.17099952697754,0.1959999948740005,-9.444000244140623,-0.4300000071525573
1622101075072,2.0299999713897705,3.634000062942505,8.8149995803833,0.3529999852180481,-9.444000244140623,-0.4300000071525573
1622101075082,2.6600000858306885,5.203999996185303,7.172999858856201,0.6669999957084655,-9.54800033569336,-0.2899999916553497
1622101075092,3.849999904632568,5.271999835968018,5.97599983215332,0.9020000100135804,-9.536999702453612,-0.1280000060796737
1622101075102,4.899999618530273,4.60099983215332,5.750999927520752,1.215999960899353,-9.628000259399414,-0.0649999976158142
1622101075112,5.949999809265137,3.9300000667572026,5.526000022888184,1.4119999408721924,-9.697999954223633,-0.1169999986886978
1622101075122,7.420000076293945,2.061000108718872,4.841000080108643,1.4119999408721924,-9.522999763488768,-0.2049999982118606
1622101075132,8.399999618530273,0.0820000022649765,4.7769999504089355,1.3730000257492063,-9.35099983215332,-0.0560000017285346
1622101075142,9.3100004196167,-1.7960000038146973,3.7349998950958256,1.4509999752044678,-9.20300006866455,0.0099999997764825
1622101075152,10.989999771118164,-3.056999921798706,2.0199999809265137,1.4509999752044678,-9.222999572753906,0.1260000020265579
1622101075162,12.31999969482422,-3.5320000648498535,-0.125,1.4509999752044678,-9.26900005340576,0.1580000072717666
1622101075172,13.020000457763672,-4.14900016784668,-1.86899995803833,1.5299999713897705,-9.482000350952148,0.2399999946355819
1622101075182,13.300000190734863,-4.189000129699707,-3.6530001163482666,1.5299999713897705,-9.727999687194824,0.2759999930858612
1622101075192,12.670000076293944,-4.043000221252441,-4.480000019073486,1.6080000400543213,-9.902999877929688,0.3650000095367431
1622101075202,12.039999961853027,-4.230000019073486,-5.436999797821045,1.72599995136261,-9.83899974822998,0.4560000002384185
1622101075212,11.760000228881836,-4.2179999351501465,-5.50600004196167,1.8040000200271609,-9.814000129699709,0.5400000214576721
1622101075222,10.989999771118164,-4.205999851226807,-5.574999809265137,1.8040000200271609,-9.697999954223633,0.5600000023841857
1622101075232,9.800000190734863,-4.501999855041504,-4.703000068664551,1.8830000162124632,-9.711999893188477,0.6380000114440918
1622101075242,8.399999618530273,-5.163000106811523,-4.179999828338623,1.8830000162124632,-9.79599952697754,0.6629999876022338
1622101075252,7.559999942779541,-5.414000034332275,-4.366000175476074,1.9220000505447388,-9.866000175476074,0.6100000143051147
1622101075262,6.71999979019165,-6.229000091552734,-5.789999961853027,2.0399999618530273,-9.82800006866455,0.6169999837875366
1622101075272,6.159999847412109,-7.599999904632568,-6.883999824523926,2.118000030517578,-9.744000434875488,0.5920000076293945
1622101075282,6.090000152587891,-9.614999771118164,-7.949999809265136,2.197000026702881,-9.711999893188477,0.6380000114440918
1622101075292,5.880000114440918,-11.423999786376951,-8.979999542236328,2.313999891281128,-9.803000450134276,0.7009999752044677
1622101075302,5.529999732971191,-12.678999900817873,-9.521499633789062,2.431999921798706,-9.880000114440918,0.6880000233650208
1622101075312,5.179999828338623,-13.934000015258787,-10.062999725341797,2.431999921798706,-9.95699977874756,0.6740000247955322
1622101075322,4.760000228881836,-17.323999404907227,-10.58899974822998,2.4709999561309814,-9.918999671936035,0.6809999942779541
1622101075332,4.619999885559082,-19.863000869750977,-11.107999801635742,2.431999921798706,-9.880000114440918,0.6880000233650208
1622101075342,3.7799999713897705,-21.73200035095215,-11.79300022125244,2.3929998874664307,-9.815999984741213,0.7789999842643737
1622101075352,2.940000057220459,-23.586000442504883,-12.972999572753906,2.236000061035156,-9.71399974822998,0.8759999871253967
1622101075362,2.450000047683716,-25.03700065612793,-14.01099967956543,2.236000061035156,-9.654999732971191,0.7670000195503234
1622101075372,2.309999942779541,-26.08799934387207,-13.697999954223633,2.313999891281128,-9.661999702453612,0.8059999942779541
1622101075382,2.0299999713897705,-26.768999099731445,-12.255000114440918,2.3540000915527344,-9.654999732971191,0.7670000195503234
1622101075392,2.5899999141693115,-27.347999572753903,-10.579999923706056,2.3540000915527344,-9.732000350952148,0.7530000209808348
1622101075402,2.7300000190734863,-27.98900032043457,-9.76900005340576,2.313999891281128,-9.829999923706056,0.856000006198883
1622101075412,2.240000009536743,-29.45299911499023,-9.529000282287598,2.3929998874664307,-9.777999877929688,0.7850000262260437
1622101075422,2.380000114440918,-30.632999420166016,-10.093000411987305,2.510999917984009,-9.687000274658203,0.722000002861023
1622101075432,2.1700000762939453,-32.10499954223633,-10.210000038146973,2.7070000171661377,-9.51900005340576,0.6719999909400939
1622101075442,1.6799999475479126,-35.125999450683594,-10.814000129699709,2.9030001163482666,-9.543999671936035,0.5879999995231628
1622101075452,2.0999999046325684,-39.63899993896485,-10.614999771118164,3.177000045776367,-9.58199977874756,0.5809999704360961
1622101075462,2.1700000762939453,-45.59199905395508,-9.104999542236328,3.4519999027252197,-9.595999717712402,0.6579999923706054
1622101075471,3.430000066757202,-52.472999572753906,-6.764999866485596,3.7269999980926514,-9.58199977874756,0.5809999704360961
1622101075481,4.269999980926514,-61.32400131225586,-4.131999969482422,3.8829998970031734,-9.607000350952148,0.4970000088214874
1622101075491,4.480000019073486,-66.37850189208984,-2.072999954223633,3.92300009727478,-9.762000083923342,0.4690000116825103
1622101075501,4.690000057220459,-71.43299865722656,-0.0140000004321336,3.7269999980926514,-9.781999588012695,0.5849999785423278
1622101075511,4.96999979019165,-80.80699920654298,5.583000183105469,3.4519999027252197,-9.68000030517578,0.6830000281333923
1622101075521,4.900000095367432,-89.30999755859375,10.267999649047852,3.177000045776367,-9.647999763488768,0.7279999852180481
1622101075531,5.320000171661377,-96.2310028076172,12.031999588012695,2.941999912261963,-9.57800006866455,0.781000018119812
1622101075541,6.019999980926514,-101.81500244140624,12.255999565124512,2.7850000858306885,-9.57800006866455,0.781000018119812
1622101075551,5.949999809265137,-106.42099761962892,13.789999961853027,2.549999952316284,-9.5600004196167,0.902999997138977
1622101075561,5.809999942779541,-109.45400238037108,16.8799991607666,2.313999891281128,-9.565999984741213,0.9419999718666076
1622101075571,5.389999866485596,-112.00800323486328,19.27300071716309,2.197000026702881,-9.572999954223633,0.981000006198883
1622101075581,4.480000019073486,-114.95999908447266,19.88999938964844,2.1570000648498535,-9.710000038146973,1.0759999752044678
1622101075591,3.6400001049041744,-118.50399780273438,21.04199981689453,1.9609999656677248,-9.6850004196167,1.1599999666213987
1622101075601,2.0999999046325684,-121.56999969482422,22.704999923706055,1.7649999856948853,-9.45300006866455,1.2009999752044678
1622101075611,0.6299999952316284,-124.22899627685548,25.29199981689453,1.6080000400543213,-9.151000022888184,1.2940000295639038
1622101075621,0.7699999809265136,-126.77200317382812,26.40800094604492,1.4119999408721924,-8.996000289916992,1.3209999799728394
1622101075631,1.8899999856948853,-128.33299255371094,27.197999954223633,1.0980000495910645,-8.96399974822998,1.3669999837875366
1622101075641,2.869999885559082,-129.08700561523438,29.055999755859375,0.8240000009536743,-9.010000228881836,1.39900004863739
1622101075651,2.940000057220459,-128.6199951171875,30.843999862670895,0.4709999859333038,-9.255000114440918,1.434999942779541
1622101075661,1.9600000381469729,-127.0469970703125,31.191999435424805,0.1959999948740005,-9.494000434875488,1.4329999685287476
1622101075671,1.0499999523162842,-124.68699645996094,31.111000061035156,0.0,-9.71399974822998,1.5529999732971191
1622101075681,-0.2800000011920929,-121.8560028076172,31.18400001525879,-0.2750000059604644,-9.836999893188477,1.5720000267028809
1622101075691,-1.3300000429153442,-118.03199768066406,32.07099914550781,-0.4309999942779541,-9.972999572753906,1.6670000553131104
1622101075701,-1.8550000190734863,-115.72499847412108,32.691001892089844,-0.5879999995231628,-10.01200008392334,1.6599999666213987
1622101075711,-2.380000114440918,-113.41799926757812,33.31100082397461,-0.7850000262260437,-9.965999603271484,1.628000020980835
1622101075721,-3.5,-108.94100189208984,33.319000244140625,-0.9020000100135804,-9.965999603271484,1.628000020980835
1622101075731,-4.340000152587891,-104.66699981689452,30.44700050354004,-0.9020000100135804,-10.050000190734863,1.6529999971389773
1622101075741,-4.199999809265137,-100.45099639892578,26.285999298095703,-0.9020000100135804,-10.128000259399414,1.6399999856948853
1622101075751,-4.619999885559082,-96.3550033569336,24.02300071716309,-0.981000006198883,-10.152999877929688,1.555999994277954
1622101075761,-4.900000095367432,-92.15499877929688,22.77300071716309,-1.0980000495910645,-10.145999908447266,1.5169999599456787
1622101075771,-4.619999885559082,-88.4729995727539,20.437000274658203,-1.0980000495910645,-10.062000274658203,1.4919999837875366
1622101075781,-4.550000190734863,-84.88899993896484,17.444000244140625,-1.0199999809265137,-10.086999893188477,1.4079999923706057
1622101075791,-4.550000190734863,-81.43399810791016,15.991999626159668,-0.981000006198883,-10.072999954223633,1.3309999704360962
1622101075801,-5.949999809265137,-79.26499938964844,15.378999710083008,-0.9409999847412108,-10.090999603271484,1.2079999446868896
1622101075811,-7.769999980926514,-77.81300354003906,15.208999633789064,-0.9409999847412108,-10.123000144958496,1.162999987602234
1622101075821,-9.380000114440918,-76.79499816894531,14.678000450134276,-0.981000006198883,-10.078000068664553,1.13100004196167
1622101075831,-10.920000076293944,-75.41300201416016,14.494999885559082,-1.0590000152587893,-10.0,1.1440000534057615
1622101075841,-12.739999771118164,-73.38099670410156,13.857999801635742,-1.1770000457763672,-9.979999542236328,1.0279999971389773
1622101075851,-14.140000343322754,-70.81099700927734,12.178999900817873,-1.1770000457763672,-9.92099952697754,0.9190000295639038
1622101075861,-14.840000152587892,-68.70999908447266,10.345999717712402,-1.2940000295639038,-9.760000228881836,0.9079999923706054
1622101075871,-15.260000228881836,-65.90399932861328,9.347999572753906,-1.3730000257492063,-9.590999603271484,0.8579999804496765
1622101075881,-14.840000152587892,-62.43299865722656,9.817999839782717,-1.5299999713897705,-9.43000030517578,0.847000002861023
1622101075891,-13.649999618530272,-58.59299850463867,9.001999855041504,-1.6480000019073486,-9.314000129699709,0.8669999837875366
1622101075901,-12.390000343322754,-54.57500076293945,7.578000068664551,-1.687000036239624,-9.281999588012695,0.9120000004768372
1622101075911,-11.0600004196167,-50.36199951171875,6.260000228881836,-1.72599995136261,-9.288999557495115,0.9509999752044676
1622101075921,-10.745000839233398,-48.21900177001953,5.998000144958496,-1.7649999856948853,-9.244000434875488,0.9190000295639038
1622101075931,-10.43000030517578,-46.07600021362305,5.736000061035156,-1.7649999856948853,-9.204999923706056,0.9259999990463256
1622101075941,-10.359999656677246,-42.08599853515625,6.084000110626221,-1.8040000200271609,-9.244000434875488,0.9190000295639038
1622101075951,-10.359999656677246,-37.32099914550781,6.071000099182129,-1.8830000162124632,-9.135000228881836,0.977999985218048
1622101075961,-10.710000038146973,-32.36199951171875,6.164000034332275,-2.000999927520752,-8.972999572753906,0.9670000076293944
1622101075971,-10.850000381469728,-26.770000457763672,6.296999931335449,-2.1570000648498535,-8.9350004196167,0.9739999771118164
1622101075981,-11.199999809265137,-20.319000244140625,6.795000076293945,-2.2750000953674316,-8.857000350952148,0.9869999885559082
1622101075991,-11.760000228881836,-12.642999649047852,6.797999858856201,-2.3540000915527344,-8.805000305175781,0.9169999957084656
1622101076001,-12.109999656677246,-4.625999927520752,6.078999996185303,-2.2750000953674316,-8.939000129699707,0.7739999890327453
1622101076011,-13.579999923706056,2.7579998970031734,5.320000171661377,-2.118000030517578,-9.12600040435791,0.7009999752044677
1622101076021,-15.890000343322754,8.791999816894531,6.170000076293945,-1.9220000505447388,-9.388999938964846,0.615000009536743
1622101076031,-18.34000015258789,12.822999954223633,8.303000450134277,-1.6480000019073486,-9.576000213623049,0.5419999957084655
1622101076041,-19.040000915527344,14.916000366210938,9.73799991607666,-1.4119999408721924,-9.979999542236328,0.3510000109672546
1622101076051,-18.549999237060547,14.434000015258787,13.277999877929688,-1.215999960899353,-10.411999702453612,0.3149999976158142
1622101076061,-16.729999542236328,12.892999649047852,17.98200035095215,-1.0980000495910645,-10.604999542236328,0.2809999883174896
1622101076071,-14.630000114440918,10.423999786376951,21.10099983215332,-1.0590000152587893,-10.5,0.1400000005960464
1622101076081,-12.31999969482422,8.425000190734863,20.74799919128418,-1.1380000114440918,-10.33899974822998,0.1289999932050705
1622101076091,-9.59000015258789,7.439000129699707,17.87299919128418,-1.1770000457763672,-10.10099983215332,0.1309999972581863
1622101076101,-7.210000038146973,7.556000232696533,13.984999656677246,-1.2549999952316284,-9.939000129699709,0.1199999973177909
1622101076111,-5.389999866485596,7.386000156402587,10.116000175476074,-1.2940000295639038,-9.746000289916992,0.1539999991655349
1622101076121,-2.1700000762939453,7.0279998779296875,6.499000072479248,-1.3730000257492063,-9.585000038146973,0.1420000046491622
1622101076131,0.6299999952316284,6.723999977111816,4.5970001220703125,-1.4119999408721924,-9.397999763488768,0.2150000035762786
1622101076141,1.6449999809265137,6.74399995803833,3.676500082015991,-1.5299999713897705,-9.244000434875488,0.2419999986886978
1622101076151,2.6600000858306885,6.763999938964844,2.75600004196167,-1.6080000400543213,-9.211999893188477,0.2879999876022338
1622101076161,4.340000152587891,7.164999961853027,1.690000057220459,-1.6080000400543213,-9.218999862670898,0.3260000050067901
1622101076171,4.269999980926514,7.656000137329101,0.9229999780654908,-1.5299999713897705,-9.373000144958496,0.2989999949932098
1622101076181,2.799999952316284,7.890999794006347,1.6050000190734863,-1.4509999752044678,-9.5600004196167,0.2259999960660934
1622101076191,0.209999993443489,7.563000202178955,3.4660000801086426,-1.4509999752044678,-9.553000450134276,0.1879999935626983
1622101076201,-3.009999990463257,6.849999904632568,5.89900016784668,-1.5299999713897705,-9.47599983215332,0.2010000050067901
1622101076211,-6.090000152587891,5.482999801635742,8.003999710083008,-1.6080000400543213,-9.444000244140623,0.2469999939203262
1622101076221,-8.960000038146973,4.692999839782715,10.067999839782717,-1.8040000200271609,-9.451000213623049,0.2849999964237213
1622101076231,-10.359999656677246,5.241000175476074,10.590999603271484,-1.8830000162124632,-9.314000129699709,0.1899999976158142
1622101076241,-11.6899995803833,5.78000020980835,10.756999969482422,-1.9609999656677248,-9.321000099182127,0.2290000021457672
1622101076251,-11.970000267028809,6.659999847412109,11.409999847412108,-2.0399999618530273,-9.373000144958496,0.2989999949932098
1622101076261,-11.6899995803833,7.670000076293945,11.729999542236328,-2.1570000648498535,-9.380000114440918,0.3379999995231628
1622101076271,-10.920000076293944,8.970999717712402,11.604000091552734,-2.2750000953674316,-9.387000083923342,0.3759999871253967
1622101076281,-9.800000190734863,10.958000183105469,10.81700038909912,-2.431999921798706,-9.425999641418455,0.3689999878406524
1622101076291,-7.630000114440918,13.585000038146973,8.01099967956543,-2.510999917984009,-9.484999656677246,0.4790000021457672
1622101076301,-4.900000095367432,16.93000030517578,4.76200008392334,-2.510999917984009,-9.446000099182127,0.4850000143051147
1622101076311,-1.8200000524520872,20.308000564575195,1.7330000400543213,-2.510999917984009,-9.362000465393066,0.4600000083446502
1622101076321,1.2599999904632568,23.43000030517578,-1.0579999685287476,-2.4709999561309814,-9.362000465393066,0.4600000083446502
1622101076331,3.5,26.40999984741211,-3.446000099182129,-2.3929998874664307,-9.369000434875488,0.4990000128746032
1622101076341,5.320000171661377,29.292999267578125,-5.283999919891357,-2.313999891281128,-9.28499984741211,0.4740000069141387
1622101076351,7.280000209808349,32.27299880981445,-6.464000225067139,-2.236000061035156,-9.28499984741211,0.4740000069141387
1622101076361,7.9800004959106445,33.37799835205078,-6.482500076293945,-2.118000030517578,-9.354999542236328,0.4219999909400939
1622101076371,8.680000305175781,34.483001708984375,-6.500999927520752,-1.9609999656677248,-9.387000083923342,0.3759999871253967
1622101076381,9.449999809265137,36.55099868774414,-6.136000156402588,-1.843999981880188,-9.51599979400635,0.4329999983310699
1622101076391,9.65999984741211,37.402000427246094,-6.127999782562256,-1.6480000019073486,-9.62600040435791,0.3740000128746032
1622101076401,9.100000381469728,36.875,-6.36299991607666,-1.4509999752044678,-9.619000434875488,0.3350000083446502
1622101076411,8.609999656677246,35.61399841308594,-5.6620001792907715,-1.3339999914169312,-9.586999893188477,0.3810000121593475
