timestamp,gyro_x,gyro_y,gyro_z,acc_x,acc_y,acc_z
1622106132305,0.0,0.0,0.0,0.0,0.0,0.0
1622106132314,1.399999976158142,5.440999984741211,-8.281000137329102,-0.0390000008046627,-9.741999626159668,-1.0010000467300415
1622106132324,1.2599999904632568,5.578999996185303,-8.256999969482422,0.0,-9.734999656677246,-1.0390000343322754
1622106132334,1.1200000047683716,5.561999797821045,-7.762000083923339,0.0,-9.741999626159668,-1.0010000467300415
1622106132344,0.9100000262260436,5.445000171661377,-7.498000144958496,0.0,-9.741999626159668,-1.0010000467300415
1622106132354,0.209999993443489,5.144999980926514,-7.4089999198913565,0.0,-9.741999626159668,-1.0010000467300415
1622106132364,-0.2800000011920929,5.295000076293945,-7.453999996185303,0.0,-9.734999656677246,-1.0390000343322754
1622106132374,-0.2800000011920929,4.999000072479248,-7.789999961853027,0.0390000008046627,-9.748000144958496,-0.962000012397766
1622106132384,-0.2800000011920929,4.459000110626221,-7.956999778747559,0.0,-9.717000007629396,-0.9169999957084656
1622106132394,-0.4900000095367431,4.492000102996826,-7.737999916076661,0.0,-9.67099952697754,-0.9480000138282776
1622106132404,-0.3499999940395355,4.48799991607666,-7.311999797821045,0.0390000008046627,-9.67099952697754,-0.9480000138282776
1622106132414,-0.7699999809265136,4.326000213623047,-7.197999954223633,0.0,-9.70300006866455,-0.9940000176429749
1622106132424,-0.4900000095367431,4.2769999504089355,-6.921999931335449,0.0,-9.70300006866455,-0.9940000176429749
1622106132434,-0.3499999940395355,4.492000102996826,-6.5289998054504395,0.0,-9.663999557495115,-0.9869999885559082
1622106132444,0.2800000011920929,4.203999996185303,-6.508999824523926,0.0,-9.663999557495115,-0.9869999885559082
1622106132454,0.2100000083446502,4.427000045776367,-6.36299991607666,-0.0390000008046627,-9.70300006866455,-0.9940000176429749
1622106132464,0.1400000005960464,4.650000095367432,-6.2170000076293945,0.0,-9.741999626159668,-1.0010000467300415
1622106132474,-0.209999993443489,4.982999801635742,-6.086999893188477,0.0,-9.786999702453612,-0.968999981880188
1622106132484,-0.209999993443489,4.85699987411499,-6.179999828338623,0.0,-9.779999732971191,-1.0080000162124634
1622106132494,-0.3499999940395355,4.743000030517578,-6.3429999351501465,0.0,-9.734999656677246,-1.0390000343322754
1622106132504,-0.3499999940395355,4.776000022888184,-6.124000072479248,0.0,-9.734999656677246,-1.0390000343322754
1622106132514,-0.8399999737739563,4.665999889373779,-6.711999893188477,0.0390000008046627,-9.779999732971191,-1.0080000162124634
1622106132524,-0.9800000190734864,4.678999900817871,-6.781000137329102,-0.0780000016093254,-9.689000129699709,-1.0709999799728394
1622106132534,-1.0499999523162842,4.678999900817871,-6.781000137329102,-0.0390000008046627,-9.696000099182127,-1.0329999923706057
1622106132544,-1.0499999523162842,4.394999980926514,-7.185999870300293,-0.0390000008046627,-9.657999992370604,-1.0260000228881836
1622106132554,-1.0499999523162842,4.293000221252441,-7.416999816894531,0.0,-9.663999557495115,-0.9869999885559082
1622106132564,-1.0499999523162842,4.326000213623047,-7.197999954223633,0.0,-9.62600040435791,-0.9800000190734864
1622106132574,-0.699999988079071,3.9570000171661377,-7.120999813079834,0.0,-9.657999992370604,-1.0260000228881836
1622106132584,-0.4199999868869781,4.061999797821045,-7.315999984741211,0.0,-9.663999557495115,-0.9869999885559082
1622106132594,-0.0700000002980232,3.6530001163482666,-6.605999946594238,0.0,-9.696000099182127,-1.0329999923706057
1622106132604,0.4900000095367431,3.5230000019073486,-6.27400016784668,0.0,-9.70300006866455,-0.9940000176429749
1622106132614,-0.0700000002980232,3.628000020980835,-6.4679999351501465,0.0,-9.741999626159668,-1.0010000467300415
1622106132624,-0.4900000095367431,3.802999973297119,-6.651000022888184,0.0,-9.779999732971191,-1.0080000162124634
1622106132634,-0.8399999737739563,4.078000068664551,-6.6020002365112305,0.0390000008046627,-9.819000244140623,-1.0140000581741333
1622106132644,-0.9100000262260436,3.822999954223633,-6.36299991607666,0.0390000008046627,-9.741999626159668,-1.0010000467300415
1622106132654,-1.1200000047683716,3.8550000190734863,-6.144000053405762,0.0390000008046627,-9.70300006866455,-0.9940000176429749
1622106132664,-0.9099999666213988,3.7335000038146977,-6.059000015258789,0.0390000008046627,-9.663999557495115,-0.9869999885559082
1622106132674,-0.699999988079071,3.611999988555908,-5.973999977111816,-0.0780000016093254,-9.579999923706056,-1.0119999647140503
1622106132684,-0.4199999868869781,3.328000068664551,-5.171000003814697,-0.0780000016093254,-9.62600040435791,-0.9800000190734864
1622106132694,0.2800000011920929,3.0889999866485596,-5.426000118255615,-0.0390000008046627,-9.586999893188477,-0.9729999899864196
1622106132704,1.190000057220459,3.1089999675750732,-6.3460001945495605,-0.0390000008046627,-9.62600040435791,-0.9800000190734864
1622106132714,1.2599999904632568,3.1050000190734863,-7.129000186920166,-0.0390000008046627,-9.663999557495115,-0.9869999885559082
1622106132724,1.3300000429153442,2.9590001106262207,-7.510000228881835,-0.0390000008046627,-9.70300006866455,-0.9940000176429749
1622106132734,1.4700000286102295,3.003999948501587,-7.360000133514405,-0.0390000008046627,-9.748000144958496,-0.962000012397766
1622106132744,0.8399999737739563,3.4170000553131104,-7.2870001792907715,-0.0390000008046627,-9.710000038146973,-0.9549999833106994
1622106132754,0.3499999940395355,3.566999912261963,-7.331999778747559,-0.0780000016093254,-9.710000038146973,-0.9549999833106994
1622106132764,0.2800000011920929,3.996999979019165,-7.754000186920166,-0.0780000016093254,-9.710000038146973,-0.9549999833106994
1622106132774,-0.0700000002980232,3.964999914169311,-7.973000049591064,-0.0780000016093254,-9.67099952697754,-0.9480000138282776
1622106132784,0.0,4.309000015258789,-7.9120001792907715,-0.1180000007152557,-9.678000450134276,-0.9100000262260436
1622106132794,0.0,4.735000133514404,-7.907999992370605,-0.0780000016093254,-9.67099952697754,-0.9480000138282776
1622106132804,-0.1400000005960464,4.758999824523926,-8.045999526977539,-0.0390000008046627,-9.663999557495115,-0.9869999885559082
1622106132814,-0.209999993443489,5.104000091552734,-7.985000133514405,-0.0390000008046627,-9.67099952697754,-0.9480000138282776
1622106132824,-0.2800000011920929,5.265999794006348,-8.098999977111816,0.0,-9.748000144958496,-0.962000012397766
1622106132834,-0.5600000023841857,5.265999794006348,-8.098999977111816,0.0,-9.779999732971191,-1.0080000162124634
1622106132844,-0.209999993443489,5.230000019073486,-7.892000198364258,0.0,-9.779999732971191,-1.0080000162124634
1622106132854,-0.2800000011920929,5.043000221252441,-7.639999866485595,0.0390000008046627,-9.779999732971191,-1.0080000162124634
1622106132864,-0.6299999952316284,5.104000091552734,-6.7769999504089355,0.0390000008046627,-9.741999626159668,-1.0010000467300415
1622106132874,-0.7699999809265136,4.9710001945495605,-6.01800012588501,0.0390000008046627,-9.779999732971191,-1.0080000162124634
1622106132884,-0.5600000023841857,4.39900016784668,-6.4029998779296875,0.0,-9.741999626159668,-1.0010000467300415
1622106132894,-0.2800000011920929,4.228000164031982,-6.646999835968018,0.0390000008046627,-9.70300006866455,-0.9940000176429749
1622106132904,-0.4200000166893005,4.0395002365112305,-6.786499977111816,0.0,-9.663999557495115,-0.9869999885559082
1622106132914,-0.5600000023841857,3.8510000705718994,-6.926000118255615,0.0390000008046627,-9.657999992370604,-1.0260000228881836
1622106132924,-0.1400000005960464,4.013000011444092,-7.039999961853027,0.0390000008046627,-9.663999557495115,-0.9869999885559082
1622106132934,-0.1400000005960464,3.5390000343322754,-6.76800012588501,0.0390000008046627,-9.67099952697754,-0.9480000138282776
1622106132944,-0.0700000002980232,3.308000087738037,-6.666999816894531,0.0,-9.663999557495115,-0.9869999885559082
1622106132954,0.0700000002980232,3.1579999923706055,-6.622000217437744,0.0,-9.70300006866455,-0.9940000176429749
1622106132964,0.4199999868869781,3.0079998970031734,-6.578000068664551,0.0,-9.696000099182127,-1.0329999923706057
1622106132974,0.4199999868869781,3.1619999408721924,-7.047999858856201,-0.0390000008046627,-9.741999626159668,-1.0010000467300415
1622106132984,0.4199999868869781,3.5510001182556152,-6.836999893188477,-0.0390000008046627,-9.734999656677246,-1.0390000343322754
1622106132994,-0.0700000002980232,3.6080000400543217,-6.75600004196167,-0.0390000008046627,-9.741999626159668,-1.0010000467300415
1622106133004,0.209999993443489,4.013000011444092,-7.039999961853027,-0.0780000016093254,-9.696000099182127,-1.0329999923706057
1622106133014,-0.1400000005960464,4.495999813079834,-6.954999923706055,-0.0780000016093254,-9.734999656677246,-1.0390000343322754
1622106133024,-0.1400000005960464,4.613999843597412,-7.218999862670899,-0.0390000008046627,-9.70300006866455,-0.9940000176429749
1622106133034,-0.209999993443489,4.439000129699707,-7.035999774932861,-0.0390000008046627,-9.710000038146973,-0.9549999833106994
1622106133044,-0.2800000011920929,4.269000053405762,-7.27899980545044,-0.0390000008046627,-9.710000038146973,-0.9549999833106994
1622106133054,0.0,4.10699987411499,-7.165999889373779,0.0,-9.717000007629396,-0.9169999957084656
1622106133064,-0.3499999940395355,3.900000095367432,-7.202000141143799,0.0,-9.678000450134276,-0.9100000262260436
1622106133074,-0.3499999940395355,3.6930000782012935,-7.238999843597413,0.0,-9.678000450134276,-0.9100000262260436
1622106133084,-0.1400000005960464,3.8469998836517334,-7.709000110626221,0.0,-9.6850004196167,-0.8709999918937683
1622106133094,-0.1400000005960464,3.575000047683716,-8.182999610900879,0.0,-9.717000007629396,-0.9169999957084656
1622106133104,0.209999993443489,3.3440001010894775,-8.081999778747559,-0.0390000008046627,-9.678000450134276,-0.9100000262260436
1622106133114,0.1400000005960464,3.4820001125335693,-8.057999610900879,-0.0780000016093254,-9.67099952697754,-0.9480000138282776
1622106133124,0.4900000095367431,3.562999963760376,-8.114999771118164,-0.0390000008046627,-9.678000450134276,-0.9100000262260436
1622106133134,0.7699999809265136,3.8350000381469727,-7.639999866485595,-0.0390000008046627,-9.67099952697754,-0.9480000138282776
1622106133144,0.4199999868869781,4.249000072479248,-7.566999912261963,-0.0390000008046627,-9.663999557495115,-0.9869999885559082
1622106133154,0.4199999868869781,4.392499923706055,-7.577499866485595,-0.0390000008046627,-9.710000038146973,-0.9549999833106994
1622106133164,0.4199999868869781,4.535999774932861,-7.5879998207092285,-0.0390000008046627,-9.741999626159668,-1.0010000467300415
1622106133174,0.2800000011920929,4.853000164031982,-6.9629998207092285,-0.0390000008046627,-9.779999732971191,-1.0080000162124634
1622106133184,-0.4199999868869781,5.234000205993652,-7.109000205993652,-0.0390000008046627,-9.710000038146973,-0.9549999833106994
1622106133194,-0.3499999940395355,5.26200008392334,-6.464000225067139,0.0,-9.710000038146973,-0.9549999833106994
1622106133204,-0.3499999940395355,5.559000015258789,-6.127999782562256,-0.0390000008046627,-9.67099952697754,-0.9480000138282776
1622106133214,-0.2800000011920929,4.999000072479248,-5.374000072479248,0.0,-9.663999557495115,-0.9869999885559082
1622106133224,0.0,4.633999824523926,-5.7220001220703125,-0.0390000008046627,-9.67099952697754,-0.9480000138282776
1622106133234,0.5600000023841857,4.366000175476074,-6.622000217437744,0.0,-9.68299961090088,-1.1100000143051147
1622106133244,0.5600000023841857,4.163000106811523,-7.085000038146973,0.0,-9.657999992370604,-1.0260000228881836
1622106133254,0.7699999809265136,4.249000072479248,-7.566999912261963,0.0,-9.663999557495115,-0.9869999885559082
1622106133264,0.6299999952316284,3.884000062942505,-7.915999889373779,0.0,-9.710000038146973,-0.9549999833106994
1622106133274,0.2800000011920929,3.900000095367432,-8.41100025177002,0.0,-9.717000007629396,-0.9169999957084656
1622106133284,0.3499999940395355,4.188000202178955,-8.430999755859375,-0.0390000008046627,-9.710000038146973,-0.9549999833106994
1622106133294,-0.0700000002980232,4.451000213623047,-8.312999725341797,-0.0390000008046627,-9.717000007629396,-0.9169999957084656
1622106133304,-0.0700000002980232,5.051000118255615,-8.491999626159668,-0.0390000008046627,-9.717000007629396,-0.9169999957084656
1622106133314,0.1400000005960464,5.327000141143799,-8.442999839782715,-0.0780000016093254,-9.6850004196167,-0.8709999918937683
1622106133324,0.699999988079071,5.164999961853027,-8.329999923706055,-0.0390000008046627,-9.678000450134276,-0.9100000262260436
1622106133334,0.9800000190734864,5.89900016784668,-8.057999610900879,0.0,-9.645999908447264,-0.8640000224113464
1622106133344,1.3300000429153442,6.118000030517578,-8.090999603271484,0.0,-9.61400032043457,-0.8190000057220459
1622106133354,1.4700000286102295,6.178999900817871,-8.4350004196167,0.0,-9.678000450134276,-0.9100000262260436
1622106133364,1.5399999618530271,6.235000133514404,-8.354000091552734,0.0,-9.762000083923342,-0.8849999904632568
1622106133374,1.3300000429153442,6.165999889373779,-8.366000175476074,0.0,-9.755000114440918,-0.9229999780654908
1622106133384,1.190000057220459,6.479000091552734,-8.52400016784668,0.0390000008046627,-9.755000114440918,-0.9229999780654908
1622106133394,0.9100000262260436,6.165999889373779,-8.366000175476074,0.0780000016093254,-9.755000114440918,-0.9229999780654908
1622106133404,0.7699999809265136,6.142000198364258,-8.228500366210938,0.0780000016093254,-9.722999572753906,-0.8780000209808348
1622106133414,0.6299999952316284,6.118000030517578,-8.090999603271484,0.0390000008046627,-9.678000450134276,-0.9100000262260436
1622106133424,0.7699999809265136,6.195000171661377,-7.722000122070312,0.0390000008046627,-9.6850004196167,-0.8709999918937683
1622106133434,1.190000057220459,6.090000152587891,-7.526999950408936,0.0,-9.652999877929688,-0.8259999752044677
1622106133444,1.3300000429153442,6.057000160217285,-7.745999813079834,0.0,-9.69200038909912,-0.8330000042915344
1622106133454,1.5399999618530271,6.045000076293945,-7.677000045776368,0.0390000008046627,-9.729999542236328,-0.8389999866485595
1622106133464,1.3300000429153442,6.1620001792907715,-7.940999984741211,-0.0390000008046627,-9.80799961090088,-0.8529999852180481
1622106133474,0.9100000262260436,6.965000152587891,-7.657000064849853,-0.1570000052452087,-9.814000129699709,-0.8140000104904174
1622106133484,0.3499999940395355,8.875,-7.604000091552734,-0.2750000059604644,-9.80799961090088,-0.8529999852180481
1622106133494,0.0700000002980232,10.857999801635742,-7.9660000801086435,-0.3140000104904174,-9.857999801635742,-1.0210000276565552
1622106133504,-0.4900000095367431,14.036999702453612,-8.258000373840332,-0.3529999852180481,-9.845999717712402,-0.8600000143051147
1622106133514,-0.5600000023841857,17.18000030517578,-8.343999862670898,-0.4309999942779541,-9.814000129699709,-0.8140000104904174
1622106133524,-0.6299999952316284,20.107999801635746,-7.613999843597413,-0.3919999897480011,-9.814000129699709,-0.8140000104904174
1622106133534,-0.6299999952316284,22.95800018310547,-7.254000186920166,-0.3919999897480011,-9.80799961090088,-0.8529999852180481
1622106133544,-0.4900000095367431,25.266000747680664,-6.632999897003174,-0.3529999852180481,-9.76900005340576,-0.8460000157356262
1622106133554,-0.209999993443489,27.219999313354492,-6.431000232696533,-0.3529999852180481,-9.80799961090088,-0.8529999852180481
1622106133564,-0.0700000002980232,29.583999633789062,-6.938000202178955,-0.3140000104904174,-9.83899974822998,-0.8980000019073486
1622106133574,0.0700000002980232,31.42099952697754,-7.679999828338623,-0.2349999994039535,-9.83899974822998,-0.8980000019073486
1622106133584,-0.209999993443489,33.38399887084961,-8.329999923706055,-0.2349999994039535,-9.845999717712402,-0.8600000143051147
1622106133594,-0.2800000011920929,34.481998443603516,-8.918000221252441,-0.1570000052452087,-9.83899974822998,-0.8980000019073486
1622106133604,-0.4199999868869781,35.1510009765625,-9.083999633789062,-0.0780000016093254,-9.762000083923342,-0.8849999904632568
1622106133614,-0.5600000023841857,35.67900085449219,-8.848999977111816,-0.0390000008046627,-9.633000373840332,-0.9419999718666076
1622106133624,-0.2800000011920929,35.68299865722656,-9.274999618530272,0.0780000016093254,-9.586999893188477,-0.9729999899864196
1622106133634,-0.4199999868869781,35.90999984741211,-10.159000396728516,0.1180000007152557,-9.510000228881836,-0.9599999785423278
1622106133644,-0.3499999940395355,35.36600112915039,-11.107000350952148,0.1959999948740005,-9.562000274658203,-0.8889999985694885
1622106133654,0.0700000077486038,34.99100112915039,-11.600000381469728,0.2349999994039535,-9.562000274658203,-0.8889999985694885
1622106133664,0.4900000095367431,34.61600112915039,-12.093000411987305,0.3140000104904174,-9.607999801635742,-0.8579999804496765
1622106133674,1.1200000047683716,33.93000030517578,-12.640000343322754,0.3919999897480011,-9.60099983215332,-0.8960000276565551
1622106133684,1.4700000286102295,32.78300094604492,-11.776000022888184,0.4309999942779541,-9.562000274658203,-0.8889999985694885
1622106133694,2.0299999713897705,31.461000442504883,-10.729999542236328,0.4709999859333038,-9.593999862670898,-0.9350000023841856
1622106133704,2.240000009536743,30.191999435424805,-9.177000045776367,0.5099999904632568,-9.633000373840332,-0.9419999718666076
1622106133714,2.450000047683716,28.573999404907227,-8.467000007629395,0.4709999859333038,-9.748000144958496,-0.962000012397766
1622106133724,2.240000009536743,27.12700080871582,-7.513999938964843,0.5099999904632568,-9.779999732971191,-1.0080000162124634
1622106133734,2.240000009536743,25.586000442504883,-6.434999942779541,0.5099999904632568,-9.826000213623049,-0.9760000109672546
1622106133744,1.4700000286102295,24.378000259399418,-5.22599983215332,0.4709999859333038,-9.793999671936035,-0.9300000071525572
1622106133754,0.9800000190734864,22.79700088500977,-4.7230000495910645,0.4709999859333038,-9.717000007629396,-0.9169999957084656
1622106133764,0.4900000095367431,21.604000091552734,-5.2179999351501465,0.5099999904632568,-9.762000083923342,-0.8849999904632568
1622106133774,-0.3499999940395355,20.611000061035156,-6.0329999923706055,0.4709999859333038,-9.833000183105469,-0.9369999766349792
1622106133784,-0.699999988079071,19.183000564575195,-7.208000183105469,0.5099999904632568,-9.83899974822998,-0.8980000019073486
1622106133794,-1.190000057220459,17.93400001525879,-7.7839999198913565,0.4709999859333038,-9.793999671936035,-0.9300000071525572
1622106133804,-1.399999976158142,16.499000549316406,-8.107999801635742,0.4709999859333038,-9.786999702453612,-0.968999981880188
1622106133814,-2.0299999713897705,15.213000297546388,-7.269000053405762,0.5099999904632568,-9.755000114440918,-0.9229999780654908
1622106133824,-2.240000009536743,14.086000442504885,-7.324999809265136,0.5099999904632568,-9.755000114440918,-0.9229999780654908
1622106133834,-2.5199999809265137,13.258999824523926,-7.47100019454956,0.4709999859333038,-9.678000450134276,-0.9100000262260436
1622106133844,-2.450000047683716,12.029999732971191,-7.758999824523927,0.5099999904632568,-9.729999542236328,-0.8389999866485595
1622106133854,-2.0999999046325684,10.9350004196167,-7.597000122070312,0.4709999859333038,-9.69200038909912,-0.8330000042915344
1622106133864,-1.8899999856948853,10.031000137329102,-6.9029998779296875,0.4309999942779541,-9.645999908447264,-0.8640000224113464
1622106133873,-1.1200000047683716,9.281000137329102,-6.679999828338623,0.3919999897480011,-9.628000259399414,-0.7419999837875366
1622106133883,-0.6650000214576721,8.971000671386719,-6.734499931335449,0.3529999852180481,-9.58899974822998,-0.7350000143051147
1622106133893,-0.209999993443489,8.66100025177002,-6.789000034332275,0.3919999897480011,-9.505000114440918,-0.7599999904632568
1622106133903,0.8399999737739563,7.294000148773193,-7.10099983215332,0.3529999852180481,-9.543999671936035,-0.7670000195503234
1622106133913,1.75,6.755000114440918,-7.267000198364258,0.3529999852180481,-9.55799961090088,-0.6890000104904174
1622106133923,2.5899999141693115,6.004000186920166,-7.044000148773193,0.2750000059604644,-9.58899974822998,-0.7350000143051147
1622106133933,3.009999990463257,5.420000076293945,-7.361000061035157,0.2750000059604644,-9.697999954223633,-0.7940000295639038
1622106133943,3.2899999618530273,4.938000202178955,-7.44600009918213,0.2750000059604644,-9.729999542236328,-0.8389999866485595
1622106133953,2.6600000858306885,4.334000110626221,-6.841000080108643,0.2349999994039535,-9.76900005340576,-0.8460000157356262
1622106133963,2.0999999046325684,3.7179999351501465,-6.168000221252441,0.2349999994039535,-9.814000129699709,-0.8140000104904174
1622106133973,1.190000057220459,3.559999942779541,-5.271999835968018,0.2349999994039535,-9.845999717712402,-0.8600000143051147
1622106133983,0.1400000005960464,3.243000030517578,-5.895999908447266,0.2349999994039535,-9.83899974822998,-0.8980000019073486
1622106133993,-1.190000057220459,3.66100001335144,-6.249000072479248,0.2349999994039535,-9.76900005340576,-0.8460000157356262
1622106134003,-2.450000047683716,3.697000026702881,-6.455999851226807,0.1959999948740005,-9.782999992370604,-0.7689999938011169
1622106134013,-2.5899999141693115,3.2309999465942383,-7.035999774932861,0.1570000052452087,-9.776000022888184,-0.8080000281333923
1622106134023,-3.0799999237060547,4.008999824523926,-6.613999843597412,0.0780000016093254,-9.737000465393066,-0.8009999990463256
1622106134033,-3.2899999618530273,4.033999919891357,-6.751999855041504,0.1180000007152557,-9.704999923706056,-0.7549999952316284
1622106134043,-2.940000057220459,4.374000072479248,-6.265999794006348,0.0780000016093254,-9.704999923706056,-0.7549999952316284
1622106134053,-2.450000047683716,4.876999855041504,-5.89300012588501,0.0780000016093254,-9.65999984741211,-0.787000000476837
1622106134063,-2.240000009536743,5.104000091552734,-5.567999839782715,0.0780000016093254,-9.69200038909912,-0.8330000042915344
1622106134073,-2.0299999713897705,5.88700008392334,-5.572000026702881,0.1180000007152557,-9.652999877929688,-0.8259999752044677
1622106134083,-2.065000057220459,6.3535003662109375,-5.596499919891357,0.1180000007152557,-9.697999954223633,-0.7940000295639038
1622106134093,-2.0999999046325684,6.820000171661377,-5.620999813079834,0.1180000007152557,-9.697999954223633,-0.7940000295639038
1622106134103,-2.0299999713897705,7.362999916076661,-5.88100004196167,0.1180000007152557,-9.697999954223633,-0.7940000295639038
1622106134113,-2.1700000762939453,8.550999641418457,-6.169000148773193,0.1180000007152557,-9.697999954223633,-0.7940000295639038
1622106134123,-2.1700000762939453,9.06999969482422,-6.290999889373779,0.1570000052452087,-9.697999954223633,-0.7940000295639038
1622106134133,-2.450000047683716,9.73900032043457,-6.456999778747559,0.1570000052452087,-9.65999984741211,-0.787000000476837
1622106134143,-2.5899999141693115,10.21399974822998,-6.729000091552734,0.1959999948740005,-9.645999908447264,-0.8640000224113464
1622106134153,-1.9600000381469729,10.817999839782717,-7.333000183105469,0.2349999994039535,-9.697999954223633,-0.7940000295639038
1622106134163,-2.240000009536743,11.215000152587892,-7.973999977111816,0.2349999994039535,-9.776000022888184,-0.8080000281333923
1622106134173,-2.5899999141693115,11.782999992370604,-8.371000289916992,0.2349999994039535,-9.762000083923342,-0.8849999904632568
1622106134183,-3.2200000286102295,11.895999908447266,-8.208999633789062,0.2750000059604644,-9.800999641418455,-0.8920000195503234
1622106134193,-3.6400001049041744,12.326000213623049,-8.630999565124512,0.2750000059604644,-9.80799961090088,-0.8529999852180481
1622106134203,-4.340000152587891,12.541000366210938,-8.237000465393066,0.3140000104904174,-9.762000083923342,-0.8849999904632568
1622106134213,-4.829999923706055,12.711000442504885,-7.993999958038329,0.3529999852180481,-9.762000083923342,-0.8849999904632568
1622106134223,-4.550000190734863,12.326000213623049,-7.421999931335449,0.3919999897480011,-9.762000083923342,-0.8849999904632568
1622106134233,-4.199999809265137,12.19200038909912,-6.664000034332275,0.4309999942779541,-9.6850004196167,-0.8709999918937683
1622106134243,-4.199999809265137,12.144000053405762,-6.388000011444092,0.4309999942779541,-9.678000450134276,-0.9100000262260436
1622106134253,-4.619999885559082,11.97700023651123,-7.057000160217285,0.4309999942779541,-9.734999656677246,-1.0390000343322754
1622106134263,-4.829999923706055,11.8149995803833,-6.943999767303467,0.4709999859333038,-9.779999732971191,-1.0080000162124634
1622106134273,-5.320000171661377,11.564000129699709,-7.130000114440918,0.4309999942779541,-9.85099983215332,-1.059999942779541
1622106134283,-5.635000228881836,11.53950023651123,-6.992500305175781,0.4309999942779541,-9.85099983215332,-1.059999942779541
1622106134293,-5.949999809265137,11.515000343322754,-6.855000019073486,0.4309999942779541,-9.812000274658203,-1.0529999732971191
1622106134303,-6.019999980926514,11.251999855041504,-5.763999938964844,0.4309999942779541,-9.734999656677246,-1.0390000343322754
1622106134313,-6.159999847412109,10.687999725341797,-4.584000110626221,0.3529999852180481,-9.689000129699709,-1.0709999799728394
1622106134323,-6.369999885559082,10.602999687194824,-2.8929998874664307,0.3529999852180481,-9.64400005340576,-1.1030000448226929
1622106134333,-6.159999847412109,10.210000038146973,-2.677999973297119,0.3140000104904174,-9.637000083923342,-1.1419999599456787
1622106134343,-6.230000019073486,9.897999763488768,-3.7279999256134033,0.3140000104904174,-9.651000022888184,-1.0640000104904177
1622106134353,-5.670000076293945,9.730999946594238,-4.396999835968018,0.3919999897480011,-9.612000465393066,-1.0579999685287476
1622106134363,-5.179999828338623,9.621999740600586,-4.985000133514404,0.3140000104904174,-9.56700038909912,-1.0889999866485596
1622106134373,-4.550000190734863,9.314000129699709,-5.252999782562256,0.3140000104904174,-9.5600004196167,-1.128000020980835
1622106134383,-4.409999847412109,8.980999946594238,-5.381999969482422,0.3529999852180481,-9.598999977111816,-1.1349999904632568
1622106134393,-3.9200000762939458,9.244999885559082,-5.264999866485596,0.2750000059604644,-9.675999641418455,-1.1480000019073486
1622106134403,-3.849999904632568,9.175999641418455,-5.2769999504089355,0.1959999948740005,-9.772999763488768,-1.0460000038146973
1622106134413,-3.359999895095825,9.982999801635742,-5.419000148773193,0.1180000007152557,-9.720999717712402,-1.1169999837875366
1622106134423,-3.1500000953674316,11.779000282287598,-5.5289998054504395,0.0390000008046627,-9.675999641418455,-1.1480000019073486
1622106134433,-3.0799999237060547,13.133000373840332,-5.1479997634887695,0.0780000016093254,-9.675999641418455,-1.1480000019073486
1622106134443,-2.940000057220459,15.270000457763672,-4.770999908447266,0.0780000016093254,-9.675999641418455,-1.1480000019073486
1622106134453,-2.5199999809265137,17.375,-4.61299991607666,0.0780000016093254,-9.675999641418455,-1.1480000019073486
1622106134463,-1.9600000381469729,19.28499984741211,-4.559999942779541,0.0780000016093254,-9.668999671936035,-1.187000036239624
1622106134473,-1.6100000143051147,20.124500274658203,-4.483500003814697,0.1180000007152557,-9.708000183105469,-1.194000005722046
1622106134483,-1.2599999904632568,20.964000701904297,-4.4070000648498535,0.1180000007152557,-9.675999641418455,-1.1480000019073486
1622106134493,-0.9100000262260436,21.77899932861328,-4.191999912261963,0.1180000007152557,-9.592000007629396,-1.1729999780654907
1622106134503,-0.4900000095367431,22.524999618530273,-3.989000082015991,0.1570000052452087,-9.630000114440918,-1.1799999475479126
1622106134513,-0.6299999952316284,23.562999725341797,-4.232999801635742,0.1959999948740005,-9.661999702453612,-1.22599995136261
1622106134523,-0.8399999737739563,24.12299919128418,-3.7790000438690186,0.1959999948740005,-9.630000114440918,-1.1799999475479126
1622106134533,-0.699999988079071,24.843999862670895,-3.437999963760376,0.2750000059604644,-9.598999977111816,-1.1349999904632568
1622106134543,-0.3499999940395355,25.062999725341797,-3.4709999561309814,0.3529999852180481,-9.651000022888184,-1.0640000104904177
1622106134553,-0.1400000005960464,24.89699935913086,-4.139999866485596,0.4309999942779541,-9.604999542236328,-1.0959999561309814
1622106134563,0.1400000005960464,24.54400062561035,-4.557000160217285,0.5099999904632568,-9.598999977111816,-1.1349999904632568
1622106134573,0.1400000005960464,23.58300018310547,-5.1529998779296875,0.5099999904632568,-9.64400005340576,-1.1030000448226929
1622106134583,0.699999988079071,22.427000045776367,-5.854000091552734,0.5490000247955322,-9.64400005340576,-1.1030000448226929
1622106134593,1.1200000047683716,21.07699966430664,-6.660999774932861,0.6280000209808348,-9.68299961090088,-1.1100000143051147
1622106134603,0.9100000262260436,19.097999572753903,-6.72599983215332,0.5490000247955322,-9.720999717712402,-1.1169999837875366
1622106134613,0.9100000262260436,17.341999053955078,-6.039999961853027,0.5879999995231628,-9.720999717712402,-1.1169999837875366
1622106134623,0.6299999952316284,15.392000198364258,-5.460000038146973,0.5879999995231628,-9.71399974822998,-1.1549999713897705
1622106134633,0.6299999952316284,13.1899995803833,-5.066999912261963,0.5879999995231628,-9.720999717712402,-1.1169999837875366
1622106134643,-0.0700000002980232,10.854000091552734,-5.123000144958496,0.5879999995231628,-9.68299961090088,-1.1100000143051147
1622106134653,-0.1050000041723251,9.732999801635742,-5.2139997482299805,0.5879999995231628,-9.720999717712402,-1.1169999837875366
1622106134663,-0.1400000005960464,8.612000465393066,-5.304999828338623,0.5879999995231628,-9.71399974822998,-1.1549999713897705
1622106134673,0.0700000002980232,6.381999969482422,-5.556000232696533,0.5879999995231628,-9.746000289916992,-1.2009999752044678
1622106134683,0.0700000002980232,4.334000110626221,-5.632999897003174,0.5490000247955322,-9.73900032043457,-1.2389999628067017
1622106134693,-0.4199999868869781,2.2899999618530273,-6.136000156402588,0.4709999859333038,-9.746000289916992,-1.2009999752044678
1622106134703,-0.5600000023841857,0.3479999899864196,-6.4070000648498535,0.3919999897480011,-9.708000183105469,-1.194000005722046
1622106134713,-0.7699999809265136,-0.6290000081062316,-6.507999897003174,0.3529999852180481,-9.64400005340576,-1.1030000448226929
1622106134723,-0.699999988079071,-1.7450000047683716,-6.633999824523926,0.3140000104904174,-9.598999977111816,-1.1349999904632568
1622106134733,-0.6299999952316284,-2.624000072479248,-6.078000068664551,0.2349999994039535,-9.598999977111816,-1.1349999904632568
1622106134743,-0.4199999868869781,-3.2890000343322754,-5.129000186920166,0.1180000007152557,-9.54599952697754,-1.2050000429153442
1622106134753,0.1400000005960464,-3.8199999332427974,-4.938000202178955,0.0780000016093254,-9.5600004196167,-1.128000020980835
1622106134763,0.699999988079071,-3.6659998893737793,-5.408999919891357,0.0780000016093254,-9.56700038909912,-1.0889999866485596
1622106134773,1.2599999904632568,-3.5,-5.947999954223633,0.0390000008046627,-9.68299961090088,-1.1100000143051147
1622106134783,1.399999976158142,-2.8350000381469727,-5.689000129699707,0.0390000008046627,-9.720999717712402,-1.1169999837875366
1622106134793,1.2599999904632568,-2.177999973297119,-5.785999774932861,0.0390000008046627,-9.720999717712402,-1.1169999837875366
1622106134803,1.0499999523162842,-1.5779999494552612,-5.965000152587891,0.0,-9.720999717712402,-1.1169999837875366
1622106134813,0.9100000262260436,-1.0230000019073486,-6.293000221252441,0.0,-9.753000259399414,-1.1619999408721924
1622106134823,0.3499999940395355,0.0839999988675117,-6.52400016784668,0.0,-9.79800033569336,-1.1299999952316284
1622106134833,0.0700000002980232,1.0740000009536743,-6.492000102996826,0.0,-9.80500030517578,-1.0920000076293943
1622106134843,-0.2800000011920929,2.436000108718872,-6.9629998207092285,0.0,-9.791999816894531,-1.1690000295639038
1622106134853,-0.4200000166893005,3.121500015258789,-7.019499778747559,0.0,-9.746000289916992,-1.2009999752044678
1622106134863,-0.5600000023841857,3.8069999217987065,-7.076000213623047,0.0390000008046627,-9.78499984741211,-1.2079999446868896
1622106134873,-1.190000057220459,4.986999988555908,-6.513000011444092,0.0390000008046627,-9.854999542236328,-1.2599999904632568
1622106134883,-1.9600000381469729,6.482999801635742,-6.5329999923706055,-0.0390000008046627,-9.93299961090088,-1.2730000019073486
1622106134893,-2.799999952316284,7.939000129699707,-5.921000003814697,-0.0780000016093254,-9.970999717712402,-1.2799999713897705
1622106134903,-3.849999904632568,9.24899959564209,-5.690000057220459,-0.1180000007152557,-10.003000259399414,-1.3259999752044678
1622106134913,-4.900000095367432,10.711999893188477,-5.929999828338623,-0.1570000052452087,-9.958000183105469,-1.3569999933242798
1622106134923,-6.019999980926514,12.651000022888184,-6.440999984741211,-0.1959999948740005,-9.842000007629396,-1.337000012397766
1622106134933,-7.630000114440918,14.876999855041504,-5.763999938964844,-0.1959999948740005,-9.803000450134276,-1.3300000429153442
1622106134943,-8.819999694824219,17.548999786376953,-4.795000076293945,-0.1959999948740005,-9.763999938964846,-1.3229999542236328
1622106134953,-9.520000457763674,20.375999450683594,-4.296999931335449,-0.2349999994039535,-9.770999908447264,-1.2849999666213987
1622106134963,-10.010000228881836,23.551000595092773,-4.164000034332275,-0.1959999948740005,-9.777999877929688,-1.2460000514984133
1622106134973,-10.359999656677246,26.37700080871582,-3.6649999618530273,-0.2349999994039535,-9.73900032043457,-1.2389999628067017
1622106134983,-10.359999656677246,29.06999969482422,-3.6170001029968266,-0.1959999948740005,-9.763999938964846,-1.3229999542236328
1622106134993,-10.359999656677246,31.61599922180176,-2.7420001029968266,-0.1570000052452087,-9.687000274658203,-1.309999942779541
1622106135003,-10.43000030517578,34.49100112915039,-2.5190000534057617,-0.1959999948740005,-9.687000274658203,-1.309999942779541
1622106135013,-10.710000038146973,36.72200012207031,-2.2679998874664307,-0.0780000016093254,-9.718999862670898,-1.3550000190734863
1622106135023,-10.779999732971191,38.452999114990234,-2.815000057220459,0.0,-9.628000259399414,-1.4190000295639038
1622106135033,-11.130000114440918,40.05099868774414,-3.812999963760376,0.0780000016093254,-9.628000259399414,-1.4190000295639038
1622106135043,-11.340000152587892,41.14899826049805,-4.401000022888184,0.1959999948740005,-9.628000259399414,-1.4190000295639038
1622106135053,-11.514999389648438,41.512001037597656,-4.444000244140625,0.2349999994039535,-9.628000259399414,-1.4190000295639038
1622106135063,-11.6899995803833,41.875,-4.486999988555908,0.3140000104904174,-9.543999671936035,-1.444000005722046
1622106135073,-11.130000114440918,41.595001220703125,-5.317999839782715,0.3919999897480011,-9.505000114440918,-1.437000036239624
1622106135083,-10.850000381469728,40.80899810791016,-6.0960001945495605,0.3919999897480011,-9.473999977111816,-1.3919999599456787
1622106135093,-9.729999542236328,40.1349983215332,-6.7129998207092285,0.4309999942779541,-9.4350004196167,-1.3849999904632568
1622106135103,-8.609999656677246,38.75299835205078,-6.53000020980835,0.4709999859333038,-9.35099983215332,-1.4099999666213987
1622106135113,-7.139999866485596,37.51599884033203,-5.966000080108643,0.5490000247955322,-9.35099983215332,-1.4099999666213987
1622106135123,-5.460000038146973,35.902000427246094,-5.682000160217285,0.6280000209808348,-9.388999938964846,-1.4170000553131104
1622106135133,-4.269999980926514,34.29999923706055,-5.4670000076293945,0.7059999704360961,-9.49899959564209,-1.47599995136261
1622106135143,-3.7100000381469727,32.86899948120117,-5.007999897003174,0.7059999704360961,-9.576000213623049,-1.4889999628067017
1622106135153,-3.009999990463257,30.77199935913086,-6.01800012588501,0.7059999704360961,-9.621000289916992,-1.4570000171661377
1622106135163,-2.309999942779541,28.695999145507812,-7.947999954223632,0.7450000047683715,-9.61400032043457,-1.4960000514984133
1622106135173,-1.8899999856948853,26.566999435424805,-9.175999641418455,0.7450000047683715,-9.583000183105469,-1.4509999752044678
1622106135183,-1.399999976158142,23.46500015258789,-9.722999572753906,0.7450000047683715,-9.491999626159668,-1.5140000581741333
1622106135193,-1.0499999523162842,20.61000061035156,-9.657999992370604,0.7850000262260437,-9.460000038146973,-1.468999981880188
1622106135203,-0.3499999940395355,17.511999130249023,-9.421999931335447,0.7850000262260437,-9.467000007629396,-1.4299999475479126
1622106135213,0.2800000011920929,14.340999603271484,-8.77299976348877,0.7850000262260437,-9.460000038146973,-1.468999981880188
1622106135223,0.4199999868869781,11.706000328063965,-8.739999771118164,0.7850000262260437,-9.536999702453612,-1.4830000400543213
1622106135233,0.1400000005960464,9.37399959564209,-9.222000122070312,0.7450000047683715,-9.621000289916992,-1.4570000171661377
1622106135243,0.1400000005960464,7.370999813079834,-10.357000350952148,0.7059999704360961,-9.65999984741211,-1.4639999866485596
1622106135253,0.1400000005960464,5.651000022888184,-11.086999893188477,0.7059999704360961,-9.628000259399414,-1.4190000295639038
1622106135263,0.3849999904632568,4.5970001220703125,-10.953000068664553,0.6280000209808348,-9.635000228881836,-1.3799999952316284
1622106135273,0.6299999952316284,3.5429999828338623,-10.819000244140623,0.5490000247955322,-9.642000198364256,-1.3420000076293943
1622106135283,1.2599999904632568,1.7100000381469729,-10.503000259399414,0.5490000247955322,-9.536999702453612,-1.4830000400543213
1622106135293,1.399999976158142,-0.3580000102519989,-9.659000396728516,0.5099999904632568,-9.550999641418455,-1.4049999713897705
1622106135303,2.0999999046325684,-1.8910000324249268,-8.222999572753906,0.4709999859333038,-9.51900005340576,-1.3600000143051147
1622106135313,2.6600000858306885,-3.2330000400543213,-7.4650001525878915,0.4309999942779541,-9.526000022888184,-1.3209999799728394
1622106135323,3.0799999237060547,-4.323999881744385,-6.519999980926514,0.4309999942779541,-9.526000022888184,-1.3209999799728394
1622106135333,3.359999895095825,-4.814000129699707,-6.961999893188477,0.4309999942779541,-9.571000099182127,-1.2890000343322754
1622106135343,3.2200000286102295,-4.656000137329102,-7.857999801635742,0.3919999897480011,-9.64900016784668,-1.3029999732971191
1622106135353,3.009999990463257,-4.129000186920166,-8.831000328063965,0.4309999942779541,-9.687000274658203,-1.309999942779541
1622106135363,3.0799999237060547,-4.210000038146973,-9.982999801635742,0.4309999942779541,-9.72599983215332,-1.3170000314712524
1622106135373,2.5899999141693115,-4.6479997634887695,-9.91800022125244,0.4309999942779541,-9.687000274658203,-1.309999942779541
1622106135383,2.240000009536743,-4.794000148773193,-9.090999603271484,0.4309999942779541,-9.72599983215332,-1.3170000314712524
1622106135393,2.450000047683716,-5.25600004196167,-7.67899990081787,0.4309999942779541,-9.687000274658203,-1.309999942779541
1622106135403,2.5199999809265137,-5.767000198364258,-5.992000102996826,0.3919999897480011,-9.694000244140623,-1.2710000276565552
1622106135413,2.7300000190734863,-6.059000015258789,-4.3379998207092285,0.3529999852180481,-9.732999801635742,-1.2779999971389773
1622106135423,3.0799999237060547,-6.748000144958496,-3.250999927520752,0.3140000104904174,-9.694000244140623,-1.2710000276565552
1622106135433,2.940000057220459,-6.926000118255615,-2.6429998874664307,0.3140000104904174,-9.654999732971191,-1.2640000581741333
1622106135443,2.6600000858306885,-7.0970001220703125,-2.885999917984009,0.3140000104904174,-9.654999732971191,-1.2640000581741333
1622106135453,2.6600000858306885,-6.999000072479248,-3.437999963760376,0.3140000104904174,-9.616999626159668,-1.2580000162124634
1622106135463,3.2200000286102295,-7.42899990081787,-4.223999977111816,0.2750000059604644,-9.616999626159668,-1.2580000162124634
1622106135472,3.009999990463257,-7.260999679565431,-4.371999740600586,0.3140000104904174,-9.616999626159668,-1.2580000162124634
1622106135482,2.799999952316284,-7.0929999351501465,-4.519999980926514,0.2750000059604644,-9.609999656677246,-1.2960000038146973
1622106135492,2.869999885559082,-7.044000148773193,-4.796000003814697,0.2349999994039535,-9.654999732971191,-1.2640000581741333
1622106135502,3.0799999237060547,-6.678999900817871,-5.656000137329102,0.2750000059604644,-9.701000213623049,-1.2330000400543213
1622106135512,3.0799999237060547,-6.550000190734863,-5.98799991607666,0.2349999994039535,-9.732999801635742,-1.2779999971389773
1622106135522,3.0799999237060547,-5.961999893188477,-6.0980000495910645,0.2349999994039535,-9.732999801635742,-1.2779999971389773
1622106135532,2.940000057220459,-5.823999881744385,-6.073999881744385,0.2750000059604644,-9.694000244140623,-1.2710000276565552
1622106135542,2.7300000190734863,-5.770999908447266,-5.566999912261963,0.2750000059604644,-9.661999702453612,-1.22599995136261
1622106135552,2.940000057220459,-5.361000061035156,-5.067999839782715,0.2750000059604644,-9.57800006866455,-1.2510000467300415
1622106135562,2.7300000190734863,-5.085999965667725,-5.019000053405762,0.2349999994039535,-9.585000038146973,-1.212000012397766
1622106135572,3.2200000286102295,-4.664000034332275,-5.797999858856201,0.2349999994039535,-9.592000007629396,-1.1729999780654907
1622106135582,3.7799999713897705,-4.132999897003174,-7.197000026702881,0.2349999994039535,-9.585000038146973,-1.212000012397766
1622106135592,4.550000190734863,-3.848999977111816,-8.0,0.2349999994039535,-9.592000007629396,-1.1729999780654907
1622106135602,5.039999961853027,-3.8410000801086426,-8.85200023651123,0.2349999994039535,-9.630000114440918,-1.1799999475479126
1622106135612,5.25,-3.4719998836517334,-8.928999900817871,0.2349999994039535,-9.661999702453612,-1.22599995136261
1622106135622,5.460000038146973,-3.2209999561309814,-8.741999626159668,0.2349999994039535,-9.668999671936035,-1.187000036239624
1622106135632,5.25,-2.510999917984009,-8.333000183105469,0.1959999948740005,-9.701000213623049,-1.2330000400543213
1622106135642,5.25,-2.1540000438690186,-8.340999603271484,0.2349999994039535,-9.753000259399414,-1.1619999408721924
1622106135652,4.690000057220459,-1.6469999551773071,-8.394000053405762,0.2349999994039535,-9.746000289916992,-1.2009999752044678
1622106135662,4.409999847412109,-0.9580000042915344,-8.272000312805176,0.2750000059604644,-9.78499984741211,-1.2079999446868896
1622106135672,3.849999904632568,-0.4269999861717224,-8.463000297546387,0.1959999948740005,-9.791999816894531,-1.1690000295639038
1622106135682,3.6400001049041744,0.453000009059906,-9.017999649047852,0.2349999994039535,-9.791999816894531,-1.1690000295639038
1622106135692,3.5,0.7894999980926513,-9.31399917602539,0.2349999994039535,-9.746000289916992,-1.2009999752044678
1622106135702,3.359999895095825,1.1260000467300415,-9.609999656677246,0.2349999994039535,-9.791999816894531,-1.1690000295639038
1622106135712,3.1500000953674316,1.72599995136261,-9.788999557495115,0.2349999994039535,-9.753000259399414,-1.1619999408721924
1622106135722,3.0799999237060547,2.683000087738037,-9.97599983215332,0.1570000052452087,-9.720999717712402,-1.1169999837875366
1622106135732,3.430000066757202,3.4570000171661377,-10.336999893188477,0.1959999948740005,-9.689000129699709,-1.0709999799728394
1622106135742,3.9200000762939458,3.713000059127808,-10.576000213623049,0.2349999994039535,-9.689000129699709,-1.0709999799728394
1622106135752,4.269999980926514,4.158999919891357,-10.284000396728516,0.2750000059604644,-9.651000022888184,-1.0640000104904177
1622106135762,4.550000190734863,4.775000095367432,-9.74899959564209,0.2750000059604644,-9.663999557495115,-0.9869999885559082
1622106135772,4.829999923706055,5.209000110626221,-9.387999534606934,0.2750000059604644,-9.657999992370604,-1.0260000228881836
1622106135782,5.25,5.646999835968018,-9.45300006866455,0.3140000104904174,-9.657999992370604,-1.0260000228881836
1622106135792,5.599999904632568,6.604000091552734,-9.640000343322754,0.3529999852180481,-9.663999557495115,-0.9869999885559082
1622106135802,5.739999771118164,6.99399995803833,-9.428999900817873,0.3140000104904174,-9.67099952697754,-0.9480000138282776
1622106135812,5.809999942779541,7.800000190734864,-9.571000099182127,0.3140000104904174,-9.67099952697754,-0.9480000138282776
1622106135822,5.739999771118164,8.331999778747559,-9.762000083923342,0.3140000104904174,-9.717000007629396,-0.9169999957084656
1622106135832,5.320000171661377,8.980999946594238,-9.006999969482422,0.2750000059604644,-9.710000038146973,-0.9549999833106994
1622106135842,4.619999885559082,9.597000122070312,-8.472000122070312,0.2750000059604644,-9.755000114440918,-0.9229999780654908
1622106135852,4.199999809265137,10.331000328063965,-8.201000213623047,0.2750000059604644,-9.793999671936035,-0.9300000071525572
1622106135862,3.359999895095825,11.340999603271484,-7.880000114440918,0.2750000059604644,-9.76900005340576,-0.8460000157356262
1622106135872,3.2899999618530273,11.998000144958496,-7.978000164031982,0.3140000104904174,-9.762000083923342,-0.8849999904632568
1622106135882,3.009999990463257,11.97700023651123,-7.057000160217285,0.3919999897480011,-9.762000083923342,-0.8849999904632568
1622106135892,2.5199999809265137,12.213000297546388,-6.375999927520752,0.3919999897480011,-9.800999641418455,-0.8920000195503234
1622106135902,2.5199999809265137,12.217000007629396,-5.593999862670898,0.3919999897480011,-9.762000083923342,-0.8849999904632568
1622106135912,2.5199999809265137,12.305999755859377,-5.293000221252441,0.4309999942779541,-9.755000114440918,-0.9229999780654908
1622106135922,2.380000114440918,11.961000442504885,-5.354000091552734,0.4709999859333038,-9.722999572753906,-0.8780000209808348
1622106135932,2.2750000953674316,11.927000045776367,-5.360000133514404,0.4309999942779541,-9.729999542236328,-0.8389999866485595
1622106135942,2.1700000762939453,11.892999649047852,-5.366000175476074,0.3919999897480011,-9.762000083923342,-0.8849999904632568
1622106135952,2.309999942779541,11.656999588012695,-4.839000225067139,0.3919999897480011,-9.762000083923342,-0.8849999904632568
1622106135962,2.309999942779541,11.786999702453612,-5.171999931335449,0.3529999852180481,-9.722999572753906,-0.8780000209808348
1622106135972,2.0299999713897705,11.63700008392334,-5.126999855041504,0.3529999852180481,-9.762000083923342,-0.8849999904632568
1622106135982,2.1700000762939453,11.482999801635742,-4.6570000648498535,0.3529999852180481,-9.729999542236328,-0.8389999866485595
1622106135992,2.309999942779541,11.515999794006348,-4.438000202178955,0.3140000104904174,-9.717000007629396,-0.9169999957084656
1622106136002,2.380000114440918,11.215000152587892,-4.348999977111816,0.3529999852180481,-9.717000007629396,-0.9169999957084656
1622106136012,2.380000114440918,11.340999603271484,-4.255000114440918,0.3919999897480011,-9.717000007629396,-0.9169999957084656
1622106136022,2.309999942779541,11.29300022125244,-3.9800000190734863,0.3919999897480011,-9.69200038909912,-0.8330000042915344
1622106136032,2.6600000858306885,11.352999687194824,-4.323999881744385,0.3919999897480011,-9.697999954223633,-0.7940000295639038
1622106136042,2.869999885559082,11.263999938964844,-4.624000072479248,0.3140000104904174,-9.6850004196167,-0.8709999918937683
1622106136052,3.1500000953674316,11.52400016784668,-5.289000034332275,0.3140000104904174,-9.717000007629396,-0.9169999957084656
1622106136062,3.430000066757202,11.178999900817873,-5.349999904632568,0.3529999852180481,-9.717000007629396,-0.9169999957084656
1622106136072,3.7100000381469727,11.199000358581545,-5.061999797821045,0.3529999852180481,-9.678000450134276,-0.9100000262260436
1622106136082,3.430000066757202,10.741000175476074,-5.284999847412109,0.3529999852180481,-9.717000007629396,-0.9169999957084656
1622106136092,3.430000066757202,10.640000343322754,-5.515999794006348,0.3529999852180481,-9.755000114440918,-0.9229999780654908
1622106136102,2.869999885559082,10.708000183105469,-5.504000186920166,0.3919999897480011,-9.83899974822998,-0.8980000019073486
1622106136112,2.6600000858306885,10.534000396728516,-5.322000026702881,0.3919999897480011,-9.871000289916992,-0.944000005722046
1622106136122,1.75,10.298999786376951,-4.794000148773193,0.3919999897480011,-9.83899974822998,-0.8980000019073486
1622106136132,1.2599999904632568,10.177000045776367,-4.105000019073486,0.4309999942779541,-9.83899974822998,-0.8980000019073486
1622106136142,1.0499999523162842,9.637999534606934,-3.062999963760376,0.3919999897480011,-9.800999641418455,-0.8920000195503234
1622106136152,0.8399999737739563,9.281000137329102,-3.055000066757202,0.3529999852180481,-9.762000083923342,-0.8849999904632568
1622106136162,0.5600000023841857,9.152000427246092,-3.9309999942779545,0.3919999897480011,-9.6850004196167,-0.8709999918937683
1622106136172,0.7699999809265136,9.156000137329102,-4.355999946594238,0.3919999897480011,-9.6850004196167,-0.8709999918937683
1622106136182,0.840000033378601,9.19849967956543,-4.597499847412109,0.4309999942779541,-9.69200038909912,-0.8330000042915344
1622106136192,0.9100000262260436,9.241000175476074,-4.839000225067139,0.3919999897480011,-9.652999877929688,-0.8259999752044677
1622106136202,1.1200000047683716,8.944999694824219,-5.175000190734863,0.4309999942779541,-9.6850004196167,-0.8709999918937683
1622106136212,1.2599999904632568,8.51099967956543,-5.535999774932861,0.3919999897480011,-9.69200038909912,-0.8330000042915344
1622106136222,1.1200000047683716,8.32800006866455,-5.710999965667725,0.3529999852180481,-9.729999542236328,-0.8389999866485595
1622106136232,0.9100000262260436,8.043999671936035,-6.116000175476074,0.3529999852180481,-9.729999542236328,-0.8389999866485595
1622106136242,0.9800000190734864,7.781000137329101,-6.234000205993652,0.3529999852180481,-9.69200038909912,-0.8330000042915344
1622106136252,0.8399999737739563,7.703999996185303,-6.603000164031982,0.3529999852180481,-9.6850004196167,-0.8709999918937683
1622106136262,0.9800000190734864,7.635000228881835,-6.614999771118164,0.3529999852180481,-9.69200038909912,-0.8330000042915344
1622106136272,0.9100000262260436,7.763999938964843,-6.947000026702881,0.3529999852180481,-9.6850004196167,-0.8709999918937683
1622106136282,1.399999976158142,7.625999927520752,-6.9720001220703125,0.3529999852180481,-9.722999572753906,-0.8780000209808348
1622106136292,1.399999976158142,7.329999923706055,-7.308000087738037,0.3529999852180481,-9.717000007629396,-0.9169999957084656
1622106136302,0.9100000262260436,7.27400016784668,-7.388999938964843,0.3919999897480011,-9.729999542236328,-0.8389999866485595
1622106136312,0.8399999737739563,7.171999931335449,-7.619999885559082,0.3140000104904174,-9.793999671936035,-0.9300000071525572
1622106136322,0.8399999737739563,7.139999866485596,-7.83900022506714,0.3140000104904174,-9.76900005340576,-0.8460000157356262
1622106136332,0.7699999809265136,7.00600004196167,-8.288999557495117,0.3919999897480011,-9.729999542236328,-0.8389999866485595
1622106136342,0.6299999952316284,6.73799991607666,-7.980999946594238,0.3919999897480011,-9.76900005340576,-0.8460000157356262
1622106136352,1.190000057220459,6.341000080108643,-7.3400001525878915,0.3919999897480011,-9.729999542236328,-0.8389999866485595
1622106136362,1.3300000429153442,5.691999912261963,-6.886000156402588,0.4309999942779541,-9.729999542236328,-0.8389999866485595
1622106136372,1.8200000524520872,5.116000175476074,-6.8460001945495605,0.3919999897480011,-9.737000465393066,-0.8009999990463256
1622106136382,2.309999942779541,4.690999984741211,-6.849999904632568,0.3919999897480011,-9.697999954223633,-0.7940000295639038
1622106136392,2.1700000762939453,4.256999969482422,-7.210000038146973,0.3529999852180481,-9.65999984741211,-0.787000000476837
1622106136402,2.5199999809265137,3.78600001335144,-7.363999843597413,0.3529999852180481,-9.737000465393066,-0.8009999990463256
1622106136412,2.5199999809265137,3.697000026702881,-7.664000034332275,0.3140000104904174,-9.776000022888184,-0.8080000281333923
1622106136422,2.1700000762939453,3.628000020980835,-7.677000045776368,0.3140000104904174,-9.80799961090088,-0.8529999852180481
1622106136432,2.0299999713897705,3.490000009536743,-7.701000213623046,0.2750000059604644,-9.845999717712402,-0.8600000143051147
1622106136442,1.8899999856948853,3.3519999980926514,-7.724999904632568,0.2750000059604644,-9.845999717712402,-0.8600000143051147
1622106136452,1.4700000286102295,2.8420000076293945,-7.247000217437744,0.3140000104904174,-9.885000228881836,-0.8669999837875366
1622106136462,0.7699999809265136,2.9790000915527344,-7.222000122070312,0.3140000104904174,-9.885000228881836,-0.8669999837875366
1622106136472,0.7699999809265136,2.7850000858306885,-7.328000068664551,0.2750000059604644,-9.852999687194824,-0.8209999799728394
1622106136482,0.5600000023841857,2.6670000553131104,-7.064000129699707,0.2750000059604644,-9.814000129699709,-0.8140000104904174
1622106136492,0.8399999737739563,2.180999994277954,-6.7230000495910645,0.2349999994039535,-9.79599952697754,-0.6919999718666076
1622106136502,1.1200000047683716,2.436000108718872,-6.9629998207092285,0.2349999994039535,-9.744000434875488,-0.762000024318695
1622106136512,1.9600000381469729,2.309999942779541,-7.056000232696533,0.2349999994039535,-9.704999923706056,-0.7549999952316284
1622106136522,2.869999885559082,2.3829998970031734,-7.469999790191651,0.2349999994039535,-9.621000289916992,-0.7799999713897705
1622106136532,3.7799999713897705,2.3429999351501465,-6.836999893188477,0.1959999948740005,-9.628000259399414,-0.7419999837875366
1622106136542,4.550000190734863,2.375,-6.618000030517578,0.1959999948740005,-9.583000183105469,-0.7739999890327453
1622106136552,5.25,2.627000093460083,-6.432000160217285,0.1570000052452087,-9.628000259399414,-0.7419999837875366
1622106136562,5.739999771118164,2.760999917984009,-5.980999946594238,0.1180000007152557,-9.621000289916992,-0.7799999713897705
1622106136572,5.880000114440918,3.255000114440918,-5.965000152587891,0.1180000007152557,-9.58899974822998,-0.7350000143051147
1622106136582,5.809999942779541,3.36899995803833,-5.802999973297119,0.1180000007152557,-9.635000228881836,-0.703000009059906
1622106136592,6.090000152587891,3.6449999809265137,-5.755000114440918,0.1570000052452087,-9.576000213623049,-0.8119999766349792
1622106136602,6.579999923706055,3.875999927520752,-5.855999946594238,0.0780000016093254,-9.628000259399414,-0.7419999837875366
1622106136612,7.139999866485596,4.349999904632568,-6.127999782562256,0.0780000016093254,-9.666999816894531,-0.7490000128746032
1622106136622,7.559999942779541,5.044000148773193,-6.432000160217285,0.0780000016093254,-9.711999893188477,-0.7170000076293945
1622106136632,7.769999980926514,5.943999767303467,-6.699999809265137,0.0780000016093254,-9.758000373840332,-0.6850000023841857
1622106136642,8.260000228881836,6.831999778747559,-6.8979997634887695,0.0780000016093254,-9.763999938964846,-0.6460000276565551
1622106136652,8.260000228881836,7.613999843597413,-6.9029998779296875,0.0780000016093254,-9.732000350952148,-0.6010000109672546
1622106136662,8.434999465942383,7.881999969482423,-6.60699987411499,0.1180000007152557,-9.73900032043457,-0.5619999766349792
1622106136672,8.609999656677246,8.149999618530273,-6.310999870300293,0.1570000052452087,-9.701000213623049,-0.5550000071525573
1622106136682,8.819999694824219,9.184000015258787,-6.127999782562256,0.1570000052452087,-9.654999732971191,-0.5870000123977661
1622106136692,8.539999961853027,9.711000442504885,-5.89300012588501,0.1570000052452087,-9.73900032043457,-0.5619999766349792
1622106136702,8.260000228881836,10.972000122070312,-6.59499979019165,0.1570000052452087,-9.777999877929688,-0.5690000057220459
1622106136712,8.609999656677246,11.633000373840332,-7.118000030517578,0.1570000052452087,-9.777999877929688,-0.5690000057220459
1622106136722,8.75,12.289999961853027,-7.2160000801086435,0.1180000007152557,-9.73900032043457,-0.5619999766349792
1622106136732,9.029999732971191,12.848999977111816,-6.761000156402588,0.1180000007152557,-9.668999671936035,-0.5099999904632568
1622106136742,9.729999542236328,13.166000366210938,-6.13700008392334,0.1570000052452087,-9.630000114440918,-0.5030000209808348
1622106136752,10.989999771118164,13.67300033569336,-6.190000057220459,0.1959999948740005,-9.592000007629396,-0.4959999918937683
1622106136762,12.739999771118164,14.362000465393066,-7.276999950408936,0.1959999948740005,-9.508000373840332,-0.5210000276565551
1622106136772,15.050000190734863,14.928999900817873,-7.673999786376954,0.1959999948740005,-9.47599983215332,-0.4760000109672546
1622106136782,17.360000610351562,15.684000015258787,-8.322999954223633,0.1959999948740005,-9.43000030517578,-0.5080000162124633
1622106136792,19.670000076293945,16.16200065612793,-9.020999908447264,0.1959999948740005,-9.444000244140623,-0.4300000071525573
1622106136802,22.049999237060547,16.91200065612793,-9.244000434875488,0.1959999948740005,-9.411999702453612,-0.3849999904632568
1622106136812,24.290000915527344,17.743000030517578,-9.52400016784668,0.1959999948740005,-9.418999671936035,-0.3459999859333038
1622106136822,26.11000061035156,18.41699981689453,-8.906999588012695,0.1570000052452087,-9.347999572753906,-0.2939999997615814
1622106136832,28.280000686645508,19.13800048828125,-8.567000389099121,0.1570000052452087,-9.3100004196167,-0.2870000004768371
1622106136842,30.030000686645508,19.78300094604492,-8.595000267028809,0.1570000052452087,-9.303000450134276,-0.3260000050067901
1622106136852,30.729999542236328,20.17200088500977,-8.383999824523926,0.1180000007152557,-9.39400005340576,-0.2619999945163726
1622106136862,31.290000915527344,20.53300094604492,-7.610000133514405,0.1180000007152557,-9.517000198364256,-0.2440000027418136
1622106136872,31.43000030517578,21.562999725341797,-7.001999855041504,0.1180000007152557,-9.541999816894531,-0.328000009059906
1622106136882,31.7450008392334,21.964500427246097,-6.859999656677246,0.1180000007152557,-9.529999732971191,-0.1669999957084655
1622106136892,32.060001373291016,22.36599922180176,-6.7179999351501465,0.1180000007152557,-9.51900005340576,-0.0049999998882412
1622106136902,32.900001525878906,22.97100067138672,-6.113999843597412,0.1180000007152557,-9.494000434875488,0.0790000036358833
1622106136912,33.880001068115234,24.041000366210938,-6.138999938964844,0.0780000016093254,-9.468999862670898,0.163000002503395
1622106136922,34.86000061035156,24.68199920654297,-5.741000175476074,0.0780000016093254,-9.520999908447264,0.2329999953508377
1622106136932,35.209999084472656,25.67099952697754,-5.709000110626221,0.0780000016093254,-9.637000083923342,0.2129999995231628
1622106136942,34.22999954223633,26.469999313354492,-6.208000183105469,0.0390000008046627,-9.772999763488768,0.3079999983310699
1622106136952,32.619998931884766,27.39900016784668,-5.830999851226807,0.0390000008046627,-9.83199977874756,0.4169999957084655
1622106136962,30.170000076293945,28.52199935913086,-5.3480000495910645,0.0390000008046627,-9.897999763488768,0.5649999976158142
1622106136972,27.440000534057617,29.06100082397461,-5.182000160217285,0.0390000008046627,-10.107000350952148,0.847000002861023
1622106136982,24.850000381469727,30.05900001525879,-6.001999855041504,0.0,-10.166000366210938,0.955999970436096
1622106136992,22.260000228881836,31.31599998474121,-7.486000061035157,0.0,-10.211999893188477,0.9879999756813048
1622106137002,20.299999237060547,31.959999084472656,-8.722999572753906,0.0390000008046627,-10.211999893188477,0.9879999756813048
1622106137012,17.639999389648438,32.909000396728516,-9.26599979400635,0.0780000016093254,-10.18000030517578,1.0329999923706057
1622106137022,14.979999542236328,33.87799835205078,-9.522000312805178,0.0,-10.18000030517578,1.0329999923706057
1622106137032,13.090000152587892,34.77799987792969,-9.78999996185303,-0.0390000008046627,-10.14799976348877,1.0789999961853027
1622106137042,11.479999542236328,35.48400115966797,-10.163000106811523,0.0,-10.14799976348877,1.0789999961853027
1622106137052,9.65999984741211,36.06800079345703,-9.845999717712402,0.0390000008046627,-10.071000099182127,1.0920000076293943
1622106137062,7.559999942779541,37.40999984741211,-9.397000312805178,0.0,-10.187000274658203,1.0720000267028809
1622106137072,4.269999980926514,39.04399871826172,-9.392999649047852,-0.0390000008046627,-10.277999877929688,1.1349999904632568
1622106137082,0.4900000095367431,40.54499816894531,-8.630999565124512,-0.0390000008046627,-10.354999542236328,1.121999979019165
1622106137092,-1.399999976158142,41.51599884033203,-8.494999885559082,-0.0390000008046627,-10.439000129699709,1.1469999551773071
1622106137102,-3.2899999618530273,42.48699951171875,-8.359000205993652,-0.0390000008046627,-10.446000099182127,1.184999942779541
1622106137111,-6.860000133514404,43.84099960327149,-7.978000164031982,0.0,-10.369000434875488,1.1990000009536743
1622106137121,-9.729999542236328,44.957000732421875,-7.853000164031982,0.0,-10.253000259399414,1.218999981880188
1622106137131,-12.390000343322754,46.99599838256836,-8.133000373840332,0.0390000008046627,-10.20699977874756,1.187999963760376
1622106137141,-14.840000152587892,48.03400039672851,-7.168000221252441,0.0390000008046627,-10.090999603271484,1.2079999446868896
1622106137151,-16.59000015258789,49.38899993896485,-6.7870001792907715,0.1180000007152557,-10.090999603271484,1.2079999446868896
1622106137161,-18.1299991607666,50.779998779296875,-6.61299991607666,0.1180000007152557,-10.038999557495115,1.1380000114440918
1622106137171,-19.11000061035156,51.97600173950195,-6.544000148773193,0.1180000007152557,-9.961999893188477,1.1510000228881836
1622106137181,-19.600000381469727,52.84000015258789,-6.605000019073486,0.1570000052452087,-9.90999984741211,1.0809999704360962
1622106137191,-19.739999771118164,53.80899810791016,-6.860000133514404,0.1959999948740005,-9.90999984741211,1.0809999704360962
1622106137201,-20.579999923706055,55.358001708984375,-6.374000072479248,0.1570000052452087,-9.895999908447264,1.003000020980835
1622106137211,-21.559999465942383,57.053001403808594,-5.506999969482422,0.1570000052452087,-9.836999893188477,0.8939999938011169
1622106137221,-21.559999465942383,58.305999755859375,-5.35699987411499,0.1570000052452087,-9.753000259399414,0.8690000176429749
1622106137231,-21.350000381469727,59.63600158691406,-4.8379998207092285,0.1570000052452087,-9.585000038146973,0.8190000057220459
1622106137241,-20.790000915527344,60.95000076293945,-3.8239998817443848,0.1959999948740005,-9.461999893188477,0.8009999990463256
1622106137251,-19.8799991607666,62.11800003051758,-3.191999912261963,0.1959999948740005,-9.293999671936035,0.7509999871253967
1622106137261,-18.270000457763672,63.39500045776367,-3.180000066757202,0.1959999948740005,-9.210000038146973,0.7260000109672546
1622106137271,-16.520000457763672,64.53500366210938,-3.191999912261963,0.2349999994039535,-9.05500030517578,0.7530000209808348
1622106137281,-14.210000038146973,65.46700286865234,-3.240999937057495,0.2349999994039535,-8.925999641418457,0.6970000267028807
1622106137291,-12.529999732971191,66.66000366210938,-2.746000051498413,0.3140000104904174,-8.911999702453613,0.6190000176429749
1622106137301,-11.725000381469728,67.00250244140625,-2.47249984741211,0.3529999852180481,-8.904999732971191,0.5809999704360961
1622106137311,-10.920000076293944,67.34500122070312,-2.1989998817443848,0.3919999897480011,-8.954999923706055,0.4129999876022338
1622106137321,-9.029999732971191,67.79499816894531,-2.3329999446868896,0.4309999942779541,-9.00100040435791,0.4440000057220459
1622106137331,-6.650000095367432,68.78800201416016,-2.7260000705718994,0.3919999897480011,-8.947999954223633,0.3740000128746032
1622106137341,-3.990000009536743,69.7490005493164,-3.3389999866485596,0.3140000104904174,-8.979999542236328,0.328000009059906
1622106137351,-1.9600000381469729,70.29299926757812,-3.5980000495910645,0.3140000104904174,-9.064000129699709,0.3529999852180481
1622106137361,0.1400000005960464,71.375,-3.6919999122619633,0.3529999852180481,-9.277999877929688,0.4350000023841857
1622106137371,1.6100000143051147,71.88200378417969,-3.744999885559082,0.3529999852180481,-9.607000350952148,0.4970000088214874
1622106137381,3.359999895095825,72.91600036621094,-4.770999908447266,0.3140000104904174,-9.89099979400635,0.5260000228881835
1622106137391,4.760000228881836,74.31900024414062,-7.081999778747559,0.2750000059604644,-10.013999938964844,0.5440000295639038
1622106137401,6.090000152587891,76.0260009765625,-9.909000396728516,0.2349999994039535,-10.020999908447266,0.5830000042915344
1622106137411,6.860000133514404,78.62899780273438,-11.369000434875488,0.2349999994039535,-10.027999877929688,0.621999979019165
1622106137421,7.070000171661377,81.17500305175781,-11.70199966430664,0.2349999994039535,-10.034999847412108,0.6600000262260437
1622106137431,7.070000171661377,83.37699890136719,-12.095000267028809,0.2349999994039535,-9.96399974822998,0.7129999995231628
1622106137441,6.579999923706055,85.1729965209961,-12.204999923706056,0.1959999948740005,-9.89400005340576,0.7649999856948853
1622106137451,5.110000133514404,87.24500274658203,-12.265999794006348,0.2349999994039535,-9.687000274658203,0.722000002861023
1622106137461,3.1500000953674316,88.96499633789062,-11.536999702453612,0.2750000059604644,-9.602999687194824,0.6970000267028807
1622106137471,1.3300000429153442,90.45700073242188,-11.130999565124512,0.2750000059604644,-9.479999542236328,0.6779999732971191
1622106137481,-0.699999988079071,92.0019989013672,-11.428000450134276,0.2750000059604644,-9.472999572753906,0.6399999856948853
1622106137491,-2.7300000190734863,93.30799865722656,-11.979000091552734,0.2349999994039535,-9.38199996948242,0.5759999752044677
1622106137501,-4.059999942779541,94.43900299072264,-12.347999572753906,0.2349999994039535,-9.29800033569336,0.5509999990463256
1622106137511,-4.96999979019165,95.43599700927734,-13.16800022125244,0.1959999948740005,-9.168999671936035,0.4939999878406524
1622106137521,-5.25,96.12750244140624,-13.259000778198242,0.1959999948740005,-9.092000007629396,0.5080000162124633
1622106137531,-5.53000020980835,96.81900024414062,-13.350000381469728,0.1570000052452087,-9.161999702453612,0.4560000002384185
1622106137541,-5.110000133514404,98.45700073242188,-13.772000312805176,0.2349999994039535,-9.565999984741213,0.2649999856948852
1622106137551,-4.690000057220459,99.75900268554688,-13.89799976348877,0.1959999948740005,-10.371000289916992,0.0829999968409538
1622106137561,-4.480000019073486,101.197998046875,-14.0,0.1570000052452087,-11.003000259399414,0.0520000010728836
1622106137571,-4.619999885559082,103.05999755859376,-14.880000114440918,0.0390000008046627,-11.041000366210938,0.0450000017881393
1622106137581,-4.760000228881836,104.17400360107422,-18.3799991607666,0.0,-10.635000228881836,-0.003000000026077
1622106137591,-4.900000095367432,106.6510009765625,-22.350000381469727,-0.0390000008046627,-10.17099952697754,0.0790000036358833
1622106137601,-6.159999847412109,110.17099761962892,-24.57200050354004,-0.1570000052452087,-9.73900032043457,0.1150000020861625
1622106137611,-7.9099998474121085,114.31099700927734,-25.47699928283691,-0.2750000059604644,-9.392000198364256,0.1759999990463256
1622106137621,-8.539999961853027,118.22799682617188,-27.131999969482425,-0.3140000104904174,-9.043999671936035,0.2380000054836273
1622106137631,-7.980000019073486,121.42299652099608,-27.91900062561035,-0.3140000104904174,-8.902999877929688,0.3420000076293945
1622106137641,-5.880000114440918,124.8249969482422,-26.253000259399418,-0.3529999852180481,-8.885000228881836,0.4650000035762786
1622106137651,-2.940000057220459,128.35800170898438,-22.503000259399418,-0.5099999904632568,-9.006999969482422,0.4830000102519989
1622106137661,1.3300000429153442,131.61399841308594,-20.00900077819824,-0.6280000209808348,-9.260000228881836,0.5580000281333923
1622106137671,5.739999771118164,134.30299377441406,-19.53499984741211,-0.6280000209808348,-9.460000038146973,0.5630000233650208
1622106137681,9.029999732971191,136.5489959716797,-18.570999145507812,-0.5879999995231628,-9.690999984741213,0.5220000147819519
1622106137691,10.640000343322754,138.77200317382812,-16.260000228881836,-0.5490000247955322,-10.08899974822998,0.2919999957084655
1622106137701,9.380000114440918,140.3090057373047,-13.286999702453612,-0.5490000247955322,-10.54599952697754,0.1720000058412551
1622106137711,5.460000038146973,140.9499969482422,-11.682000160217283,-0.6280000209808348,-10.654999732971191,0.1129999980330467
1622106137721,3.5,141.15850830078125,-11.85849952697754,-0.6280000209808348,-10.630000114440918,0.1969999969005584
1622106137731,1.5399999618530271,141.36700439453125,-12.034999847412108,-0.6280000209808348,-10.404999732971191,0.2759999930858612
1622106137741,-1.6100000143051147,141.85000610351565,-11.949999809265137,-0.6280000209808348,-10.199999809265137,0.4720000028610229
1622106137751,-3.0799999237060547,141.38400268554688,-11.321000099182127,-0.5879999995231628,-10.003000259399414,0.7059999704360961
1622106137761,-2.380000114440918,140.5449981689453,-10.189000129699709,-0.5879999995231628,-9.78499984741211,0.8240000009536743
1622106137771,0.0700000002980232,138.65499877929688,-9.95400047302246,-0.5490000247955322,-9.777999877929688,0.7850000262260437
1622106137781,3.430000066757202,136.5709991455078,-9.824000358581545,-0.4309999942779541,-9.906999588012695,0.8420000076293945
1622106137791,6.019999980926514,134.29600524902344,-9.017000198364256,-0.3529999852180481,-10.062000274658203,0.8149999976158142
1622106137801,7.210000038146973,131.32400512695312,-8.687999725341797,-0.2750000059604644,-10.02299976348877,0.8220000267028807
1622106137811,7.769999980926514,128.3470001220703,-10.350000381469728,-0.2349999994039535,-10.010000228881836,0.7440000176429749
1622106137821,6.71999979019165,125.16000366210938,-11.623000144958496,-0.1570000052452087,-10.010000228881836,0.7440000176429749
1622106137831,4.550000190734863,122.39800262451172,-11.68299961090088,-0.1180000007152557,-10.015999794006348,0.7829999923706054
1622106137841,1.8200000524520872,119.2519989013672,-12.380000114440918,-0.0390000008046627,-9.984999656677246,0.8289999961853027
1622106137851,-1.0499999523162842,116.052001953125,-12.37600040435791,0.0390000008046627,-10.04800033569336,0.7379999756813049
1622106137861,-3.5,112.43499755859376,-12.017999649047852,0.1180000007152557,-10.072999954223633,0.6539999842643737
1622106137871,-5.809999942779541,109.0530014038086,-10.979999542236328,0.2349999994039535,-10.085000038146973,0.492000013589859
1622106137881,-8.399999618530273,104.54799652099608,-10.423999786376951,0.2349999994039535,-10.123000144958496,0.4850000143051147
1622106137891,-10.5,100.16500091552734,-10.557000160217283,0.1959999948740005,-9.961999893188477,0.4740000069141387
1622106137901,-11.270000457763672,95.50599670410156,-11.946999549865724,0.2750000059604644,-9.826000213623049,0.3790000081062316
1622106137911,-11.970000267028809,91.21499633789062,-12.206000328063965,0.2750000059604644,-9.741000175476074,0.3540000021457672
1622106137921,-12.25,87.11199951171875,-11.508000373840332,0.2750000059604644,-9.637000083923342,0.2129999995231628
1622106137931,-12.145000457763672,84.9000015258789,-11.862500190734863,0.2349999994039535,-9.642000198364256,0.0130000002682209
1622106137941,-12.039999961853027,82.68800354003906,-12.217000007629396,0.1959999948740005,-9.718999862670898,-0.0010000000474974
1622106137951,-11.270000457763672,78.1050033569336,-13.23799991607666,0.1959999948740005,-9.628000259399414,-0.0649999976158142
1622106137961,-10.220000267028809,73.79499816894531,-13.784999847412108,0.1570000052452087,-9.562000274658203,-0.2119999974966049
1622106137971,-9.100000381469728,69.36699676513672,-14.067999839782717,0.1180000007152557,-9.54800033569336,-0.2899999916553497
1622106137981,-8.119999885559082,65.16600036621094,-14.027000427246094,0.0390000008046627,-9.458000183105469,-0.3529999852180481
1622106137991,-7.139999866485596,61.358001708984375,-14.201000213623049,-0.0390000008046627,-9.322999954223633,-0.209999993443489
1622106138001,-5.670000076293945,58.70199966430664,-14.456000328063965,-0.1570000052452087,-9.187000274658203,-0.3050000071525573
1622106138011,-3.7100000381469727,56.61800003051758,-15.534000396728516,-0.1959999948740005,-9.194000244140623,-0.2669999897480011
1622106138021,-1.8200000524520872,55.63600158691406,-16.417999267578125,-0.3140000104904174,-9.187000274658203,-0.3050000071525573
1622106138031,0.6299999952316284,55.20600128173828,-17.204999923706055,-0.4309999942779541,-9.187000274658203,-0.3050000071525573
1622106138041,2.6600000858306885,55.275001525878906,-18.400999069213867,-0.4709999859333038,-9.187000274658203,-0.3050000071525573
1622106138051,4.130000114440918,55.97600173950195,-19.55699920654297,-0.4709999859333038,-9.25100040435791,-0.3959999978542327
1622106138061,4.900000095367432,56.83599853515625,-20.399999618530273,-0.4709999859333038,-9.32800006866455,-0.4099999964237213
1622106138071,5.53000020980835,58.42599868774414,-20.54700088500977,-0.4309999942779541,-9.366999626159668,-0.4169999957084655
1622106138081,5.389999866485596,59.15999984741211,-20.274999618530273,-0.3140000104904174,-9.444000244140623,-0.4300000071525573
1622106138091,5.25,59.95399856567382,-20.347999572753903,-0.1959999948740005,-9.451000213623049,-0.3919999897480011
1622106138101,4.690000057220459,59.59400177001953,-18.70599937438965,-0.0390000008046627,-9.496000289916992,-0.3600000143051147
1622106138111,4.550000190734863,59.07899856567382,-16.593000411987305,0.0780000016093254,-9.510000228881836,-0.2829999923706054
1622106138121,4.199999809265137,57.887001037597656,-14.67099952697754,0.2349999994039535,-9.522999763488768,-0.2049999982118606
1622106138131,3.7799999713897705,55.803001403808594,-13.33199977874756,0.3529999852180481,-9.55500030517578,-0.2509999871253967
1622106138141,3.5,54.71849822998047,-12.421499252319336,0.4709999859333038,-9.60099983215332,-0.2189999967813491
1622106138151,3.2200000286102295,53.63399887084961,-11.51099967956543,0.5490000247955322,-9.60099983215332,-0.2189999967813491
1622106138161,2.0999999046325684,51.33100128173828,-8.932000160217285,0.4709999859333038,-9.498000144958496,-0.1209999993443489
1622106138171,1.0499999523162842,49.12099838256836,-6.479000091552734,0.2750000059604644,-9.543999671936035,-0.0900000035762786
1622106138181,0.0,48.119998931884766,-4.025000095367432,0.0780000016093254,-9.67300033569336,-0.032999999821186
1622106138191,-0.7699999809265136,49.37300109863281,-1.4589999914169312,-0.0390000008046627,-9.694000244140623,0.0829999968409538
1622106138201,-0.7699999809265136,52.36199951171875,0.135000005364418,-0.1180000007152557,-9.8100004196167,0.0630000010132789
1622106138211,-0.1400000005960464,55.35100173950195,0.5189999938011169,-0.1180000007152557,-10.062000274658203,0.1379999965429306
1622106138221,0.2800000011920929,58.69599914550781,2.1040000915527344,-0.1959999948740005,-10.159999847412108,0.2399999946355819
1622106138231,0.6299999952316284,62.78400039672851,4.317999839782715,-0.1959999948740005,-10.01200008392334,0.3059999942779541
1622106138241,1.2599999904632568,66.59200286865234,4.492000102996826,-0.1180000007152557,-9.960000038146973,0.2349999994039535
1622106138251,1.6100000143051147,69.94499969482422,4.017000198364258,-0.0390000008046627,-10.197999954223633,0.2329999953508377
1622106138261,1.6100000143051147,73.28700256347656,6.0279998779296875,0.0390000008046627,-10.578000068664553,0.1260000020265579
1622106138271,1.1200000047683716,77.02200317382812,7.823999881744384,-0.0390000008046627,-10.906999588012695,0.1879999935626983
1622106138281,0.8399999737739563,80.45600128173828,6.083000183105469,0.0,-10.881999969482422,0.2720000147819519
1622106138291,0.7699999809265136,83.61000061035156,1.0950000286102295,0.1570000052452087,-10.630000114440918,0.1969999969005584
1622106138301,-0.209999993443489,86.6259994506836,-2.7090001106262207,0.2750000059604644,-10.437000274658203,0.231000006198883
1622106138311,-1.2599999904632568,90.46199798583984,-3.0980000495910645,0.4309999942779541,-10.373000144958496,0.3219999969005584
1622106138321,-1.399999976158142,93.11799621582033,-4.052000045776367,0.5879999995231628,-10.315999984741213,0.4510000050067901
1622106138331,-0.3499999940395355,94.54499816894533,-7.710000038146973,0.7850000262260437,-10.29800033569336,0.5740000009536743
1622106138341,1.6799999475479126,95.00700378417967,-11.538000106811523,0.9409999847412108,-10.312000274658203,0.6510000228881835
1622106138351,2.7300000190734863,94.9540023803711,-12.044500350952148,1.1770000457763672,-10.312000274658203,0.6510000228881835
1622106138361,3.7799999713897705,94.9010009765625,-12.550999641418455,1.3730000257492063,-10.227999687194824,0.6259999871253967
1622106138371,5.039999961853027,94.19200134277344,-10.543999671936035,1.4509999752044678,-10.104999542236328,0.6079999804496765
1622106138381,5.460000038146973,92.25800323486328,-8.041999816894531,1.569000005722046,-10.020999908447266,0.5830000042915344
1622106138391,4.690000057220459,90.36100006103516,-5.745999813079834,1.6480000019073486,-9.961999893188477,0.4740000069141387
1622106138401,3.6400001049041744,87.88300323486328,-2.984999895095825,1.72599995136261,-9.954999923706056,0.4350000023841857
1622106138411,2.5899999141693115,85.16699981689453,0.7300000190734863,1.7649999856948853,-9.968999862670898,0.5130000114440918
1622106138421,1.6100000143051147,82.50299835205078,2.5350000858306885,1.7649999856948853,-9.994000434875488,0.4289999902248382
1622106138431,0.699999988079071,79.10099792480469,3.2860000133514404,1.843999981880188,-10.04599952697754,0.4990000128746032
1622106138441,-0.9100000262260436,75.81700134277344,3.7730000019073486,1.843999981880188,-10.071000099182127,0.4149999916553497
1622106138451,-2.0999999046325684,72.26100158691406,4.99399995803833,1.843999981880188,-10.14799976348877,0.4009999930858612
1622106138461,-2.869999885559082,68.55000305175781,5.4770002365112305,1.687000036239624,-10.085000038146973,0.492000013589859
1622106138471,-2.450000047683716,64.44300079345703,4.184000015258789,1.6080000400543213,-9.814000129699709,0.5400000214576721
1622106138481,-1.190000057220459,60.20500183105469,2.015000104904175,1.569000005722046,-9.465999603271484,0.6010000109672546
1622106138491,0.8399999737739563,55.60200119018555,1.9140000343322752,1.569000005722046,-9.189000129699709,0.6100000143051147
1622106138501,3.9200000762939458,51.803001403808594,3.305999994277954,1.4119999408721924,-9.03499984741211,0.6380000114440918
1622106138511,7.0,48.23899841308594,4.170000076293945,1.2940000295639038,-9.112000465393066,0.6240000128746032
1622106138521,9.9399995803833,44.78799819946289,3.98799991607666,1.215999960899353,-9.241000175476074,0.6809999942779541
1622106138531,12.039999961853027,41.689998626708984,3.015000104904175,1.1380000114440918,-9.357000350952148,0.6600000262260437
1622106138541,13.510000228881836,38.665000915527344,2.836999893188477,1.0590000152587893,-9.395999908447264,0.652999997138977
1622106138551,14.279999732971191,35.49399948120117,3.486000061035156,1.0199999809265137,-9.357000350952148,0.6600000262260437
1622106138561,14.139999389648438,34.13949966430664,3.7095000743865967,0.9020000100135804,-9.319000244140623,0.6669999957084655
1622106138571,14.0,32.78499984741211,3.9330000877380367,0.7450000047683715,-9.248000144958496,0.7189999818801879
1622106138581,13.579999923706056,30.270999908447266,4.485000133514404,0.7059999704360961,-9.17099952697754,0.7329999804496765
1622106138591,12.670000076293944,28.05299949645996,4.164999961853027,0.6669999957084655,-9.163999557495115,0.6940000057220459
1622106138601,11.550000190734863,25.944000244140625,3.2239999771118164,0.6669999957084655,-9.156999588012695,0.656000018119812
1622106138611,10.779999732971191,24.371000289916992,1.6670000553131104,0.6280000209808348,-9.196000099182127,0.6489999890327453
1622106138621,8.960000038146973,22.611000061035156,0.3619999885559082,0.6280000209808348,-9.326000213623049,0.7059999704360961
1622106138631,7.070000171661377,20.64800071716309,-1.406000018119812,0.6280000209808348,-9.395999908447264,0.652999997138977
1622106138641,4.690000057220459,18.733999252319336,-3.4489998817443848,0.6280000209808348,-9.440999984741213,0.6850000023841857
1622106138651,1.9600000381469729,16.656999588012695,-4.171000003814697,0.6669999957084655,-9.402999877929688,0.6919999718666076
1622106138661,-0.8399999737739563,15.125,-3.9440000057220455,0.6280000209808348,-9.371000289916992,0.7379999756813049
1622106138671,-2.309999942779541,12.736000061035156,-4.506999969482422,0.6280000209808348,-9.210000038146973,0.7260000109672546
1622106138681,-2.7300000190734863,11.163000106811523,-4.855000019073486,0.6280000209808348,-9.05500030517578,0.7530000209808348
1622106138691,-1.6799999475479126,9.30500030517578,-5.609000205993652,0.5879999995231628,-8.946000099182129,0.8119999766349792
1622106138701,-0.209999993443489,7.4120001792907715,-6.1570000648498535,0.6280000209808348,-8.984999656677246,0.8059999942779541
1622106138710,0.1400000005960464,5.752999782562256,-6.021999835968018,0.6280000209808348,-9.128000259399414,0.9399999976158142
1622106138720,0.0700000002980232,4.083000183105469,-5.818999767303467,0.6280000209808348,-9.263999938964846,1.0349999666213987
1622106138730,-0.4199999868869781,3.255000114440918,-5.965000152587891,0.6669999957084655,-9.562000274658203,1.1419999599456787
1622106138741,-0.8399999737739563,3.1579999923706055,-6.622000217437744,0.6280000209808348,-9.6850004196167,1.1599999666213987
1622106138750,-1.8200000524520872,2.496999979019165,-7.307000160217285,0.6280000209808348,-9.76900005340576,1.184999942779541
1622106138760,-2.625,2.4744999408721924,-7.381999969482423,0.6280000209808348,-9.83899974822998,1.1330000162124634
1622106138770,-3.430000066757202,2.4519999027252197,-7.456999778747559,0.6669999957084655,-9.871000289916992,1.0880000591278076
1622106138780,-4.829999923706055,2.6429998874664307,-6.926000118255615,0.6280000209808348,-9.9350004196167,0.996999979019165
1622106138790,-6.71999979019165,2.3959999084472656,-5.122000217437744,0.6280000209808348,-9.965999603271484,0.9509999752044676
1622106138800,-8.539999961853027,1.6579999923706057,-3.759000062942505,0.6669999957084655,-9.92099952697754,0.9190000295639038
1622106138810,-10.359999656677246,0.9929999709129332,-2.809999942779541,0.7450000047683715,-9.791000366210936,0.8629999756813049
1622106138820,-11.829999923706056,0.1940000057220459,-2.311000108718872,0.7850000262260437,-9.682000160217283,0.921999990940094
1622106138830,-12.390000343322754,-0.774999976158142,-2.055999994277954,0.8629999756813049,-9.612000465393066,0.9739999771118164
1622106138840,-12.109999656677246,-1.8090000152587893,-2.23799991607666,0.981000006198883,-9.496000289916992,0.9940000176429749
1622106138850,-11.550000190734863,-3.6659998893737793,-2.9920001029968266,1.1380000114440918,-9.425999641418455,1.0470000505447388
1622106138860,-11.199999809265137,-6.440000057220459,-4.191999912261963,1.2940000295639038,-9.55500030517578,1.1030000448226929
1622106138870,-10.56999969482422,-9.75699996948242,-5.131999969482422,1.3339999914169312,-9.678000450134276,1.121999979019165
1622106138880,-10.079999923706056,-12.907999992370604,-5.4039998054504395,1.3730000257492063,-9.6850004196167,1.1599999666213987
1622106138890,-9.9399995803833,-15.706000328063965,-6.466000080108643,1.3730000257492063,-9.61400032043457,1.212000012397766
1622106138900,-9.9399995803833,-18.288999557495117,-8.343000411987305,1.4509999752044678,-9.491000175476074,1.194000005722046
1622106138910,-10.220000267028809,-20.81999969482422,-9.713000297546388,1.5299999713897705,-9.4350004196167,1.3240000009536743
1622106138920,-10.5,-23.26499938964844,-9.14900016784668,1.6480000019073486,-9.737000465393066,1.2309999465942385
1622106138930,-9.380000114440918,-26.47599983215332,-7.867000102996825,1.687000036239624,-10.998000144958496,0.9290000200271606
1622106138940,-7.280000209808349,-30.45400047302246,-4.658999919891357,1.687000036239624,-13.04800033569336,0.8059999942779541
1622106138950,-6.055000305175781,-31.875,-2.24399995803833,1.4509999752044678,-13.921999931335447,1.2489999532699585
1622106138960,-4.829999923706055,-33.29600143432617,0.1710000038146972,1.0590000152587893,-13.142999649047852,1.3470000028610227
1622106138970,-3.359999895095825,-36.29199981689453,-0.5709999799728394,1.1380000114440918,-11.800000190734863,1.1859999895095823
1622106138980,-3.569999933242798,-39.89899826049805,-11.157999992370604,1.3339999914169312,-10.729999542236328,1.2150000333786013
1622106138990,-4.829999923706055,-41.78499984741211,-18.597999572753903,1.491000056266785,-10.175000190734863,1.2330000400543213
1622106139000,-7.070000171661377,-42.404998779296875,-12.666000366210938,1.4119999408721924,-10.182000160217283,1.2719999551773071
1622106139010,-9.029999732971191,-44.52000045776367,-0.6710000038146972,1.2940000295639038,-10.33899974822998,1.4830000400543213
1622106139020,-9.170000076293944,-49.304000854492195,6.303999900817871,1.2940000295639038,-10.359000205993652,1.5989999771118164
1622106139030,-8.399999618530273,-55.74300003051758,6.946000099182129,1.3730000257492063,-10.229999542236328,1.5420000553131104
1622106139040,-7.8400001525878915,-61.86199951171875,8.994000434875488,1.4509999752044678,-10.190999984741213,1.5490000247955322
1622106139050,-8.609999656677246,-67.31099700927734,15.710000038146973,1.215999960899353,-10.11400032043457,1.562999963760376
1622106139060,-10.5,-71.80699920654297,21.457000732421875,1.0199999809265137,-9.906999588012695,1.5190000534057615
1622106139070,-12.390000343322754,-75.4280014038086,21.031999588012695,0.9020000100135804,-9.699999809265137,1.47599995136261
1622106139080,-13.859999656677246,-78.23899841308594,16.413000106811523,0.9409999847412108,-9.513999938964846,1.5490000247955322
1622106139090,-14.979999542236328,-81.10199737548828,13.704999923706056,1.0199999809265137,-9.397999763488768,1.569000005722046
1622106139100,-15.399999618530272,-83.822998046875,14.220000267028809,1.0199999809265137,-9.340999603271484,1.6990000009536743
1622106139110,-14.840000152587892,-86.89199829101562,13.892000198364258,0.9409999847412108,-9.322999954223633,1.8209999799728391
1622106139120,-12.880000114440918,-90.10399627685548,11.548999786376951,0.9020000100135804,-9.375,1.8919999599456787
1622106139130,-9.9399995803833,-92.63899993896484,9.395999908447264,0.8240000009536743,-9.343999862670898,1.937000036239624
1622106139140,-8.889999389648438,-93.40150451660156,7.875499725341797,0.6669999957084655,-9.26599979400635,1.950999975204468
1622106139150,-7.8400001525878915,-94.16400146484376,6.355000019073486,0.5490000247955322,-9.227999687194824,1.9579999446868896
1622106139160,-6.369999885559082,-94.78500366210936,2.621000051498413,0.4709999859333038,-9.220999717712402,1.919000029563904
1622106139170,-5.599999904632568,-94.10399627685548,-1.2400000095367432,0.4309999942779541,-9.291000366210936,1.8669999837875368
1622106139180,-6.159999847412109,-93.0709991455078,-3.4739999771118164,0.3919999897480011,-9.369000434875488,1.8530000448226929
1622106139190,-7.559999942779541,-92.06900024414062,-4.718999862670898,0.4309999942779541,-9.329999923706056,1.8600000143051147
1622106139200,-9.170000076293944,-91.51000213623048,-5.473999977111816,0.4709999859333038,-9.277999877929688,1.7899999618530271
1622106139210,-10.920000076293944,-90.6709976196289,-6.605000019073486,0.5099999904632568,-9.194000244140623,1.7649999856948853
1622106139220,-12.390000343322754,-89.822998046875,-7.380000114440918,0.6280000209808348,-9.123000144958496,1.8170000314712524
1622106139230,-13.859999656677246,-89.2030029296875,-7.269999980926514,0.6669999957084655,-9.109999656677246,1.7400000095367432
1622106139240,-15.539999961853027,-89.3239974975586,-6.580999851226807,0.6280000209808348,-9.08899974822998,1.6239999532699585
1622106139250,-16.3799991607666,-89.43800354003906,-5.534999847412109,0.6280000209808348,-9.012000083923342,1.6369999647140503
1622106139260,-16.65999984741211,-89.91600036621094,-4.836999893188477,0.6669999957084655,-8.913999557495117,1.5349999666213987
1622106139270,-16.3799991607666,-90.572998046875,-3.5309998989105225,0.7059999704360961,-8.95300006866455,1.5279999971389773
1622106139280,-15.75,-90.59300231933594,-2.611000061035156,0.7059999704360961,-8.946000099182129,1.4900000095367432
1622106139290,-15.050000190734863,-90.99400329589844,-1.5440000295639038,0.7059999704360961,-8.862000465393066,1.4650000333786013
1622106139300,-14.210000038146973,-91.45999908447264,-0.9160000085830688,0.7059999704360961,-8.770999908447266,1.4010000228881836
1622106139310,-13.510000228881836,-92.59200286865236,0.662000000476837,0.8240000009536743,-8.732000350952148,1.4079999923706057
1622106139320,-13.020000457763672,-94.25,3.2130000591278076,0.8629999756813049,-8.718999862670898,1.3309999704360962
1622106139330,-12.31999969482422,-96.21600341796876,5.495999813079834,0.8240000009536743,-8.866000175476074,1.2649999856948853
1622106139340,-11.690000534057615,-97.38999938964844,6.106499671936035,0.8240000009536743,-9.175999641418455,1.2100000381469729
1622106139350,-11.0600004196167,-98.56400299072264,6.7170000076293945,0.8629999756813049,-9.562000274658203,1.1419999599456787
1622106139360,-9.029999732971191,-101.3209991455078,7.439000129699707,0.7059999704360961,-9.786999702453612,1.062999963760376
1622106139370,-6.369999885559082,-103.22299957275392,6.534999847412109,0.5879999995231628,-9.90999984741211,1.0809999704360962
1622106139380,-3.6400001049041744,-104.6060028076172,4.301000118255615,0.5099999904632568,-9.871000289916992,1.0880000591278076
1622106139390,-0.7699999809265136,-105.05699920654295,0.809000015258789,0.4309999942779541,-9.83899974822998,1.1330000162124634
1622106139400,1.0499999523162842,-104.79299926757812,-1.4900000095367432,0.3919999897480011,-9.824999809265137,1.055999994277954
1622106139410,2.0999999046325684,-102.9280014038086,-2.7960000038146973,0.2750000059604644,-9.895999908447264,1.003000020980835
1622106139420,2.1700000762939453,-100.91699981689452,-3.7209999561309814,0.2750000059604644,-9.888999938964846,0.9649999737739564
1622106139430,1.8200000524520872,-99.01499938964844,-4.025000095367432,0.2750000059604644,-9.9350004196167,0.996999979019165
1622106139440,0.5600000023841857,-97.54299926757812,-3.9079999923706055,0.3529999852180481,-9.928000450134276,0.9580000042915344
1622106139450,-0.9100000262260436,-96.36699676513672,-2.9179999828338623,0.3140000104904174,-9.88199996948242,0.9259999990463256
1622106139460,-2.869999885559082,-95.7020034790039,-1.4509999752044678,0.2750000059604644,-9.869000434875488,0.8489999771118164
1622106139470,-5.53000020980835,-95.33300018310548,-0.3190000057220459,0.3140000104904174,-9.970999717712402,0.7509999871253967
1622106139480,-7.630000114440918,-96.25299835205078,2.0769999027252197,0.3140000104904174,-10.196000099182127,0.6719999909400939
1622106139490,-9.65999984741211,-96.93800354003906,5.15500020980835,0.2349999994039535,-10.336999893188477,0.5669999718666076
1622106139500,-10.710000038146973,-97.51300048828124,7.612999916076661,0.1570000052452087,-10.515999794006348,0.4560000002384185
1622106139510,-11.199999809265137,-97.41600036621092,8.270000457763672,0.0780000016093254,-10.491000175476074,0.5400000214576721
1622106139520,-11.409999847412108,-96.63800048828124,7.482999801635742,0.0,-10.253000259399414,0.5419999957084655
1622106139530,-11.549999237060549,-95.95849609375,6.856499671936035,-0.0780000016093254,-9.937000274658203,0.5580000281333923
1622106139540,-11.6899995803833,-95.27899932861328,6.230000019073486,-0.0780000016093254,-9.65999984741211,0.5669999718666076
1622106139550,-12.460000038146973,-92.82599639892578,4.814000129699707,-0.1570000052452087,-9.529999732971191,0.5099999904632568
1622106139560,-14.06999969482422,-90.00800323486328,3.746999979019165,-0.1180000007152557,-9.678000450134276,0.4440000057220459
1622106139570,-15.260000228881836,-87.11299896240233,3.049000024795532,-0.1570000052452087,-9.972999572753906,0.3129999935626983
1622106139580,-16.520000457763672,-84.3759994506836,2.0390000343322754,-0.1570000052452087,-10.385000228881836,0.1609999984502792
1622106139590,-17.639999389648438,-81.93499755859375,0.6930000185966491,-0.1959999948740005,-10.725000381469728,0.0610000006854534
1622106139600,-18.34000015258789,-79.197998046875,-0.31700000166893,-0.1570000052452087,-10.904999732971191,-0.0509999990463256
1622106139610,-19.38999938964844,-76.35600280761719,-2.7309999465942383,-0.1959999948740005,-10.878000259399414,-0.2049999982118606
1622106139620,-20.299999237060547,-73.24600219726562,-6.659999847412109,-0.1180000007152557,-10.663999557495115,-0.2870000004768371
1622106139630,-21.06999969482422,-70.58699798583984,-10.456000328063965,-0.0390000008046627,-10.418999671936035,-0.3230000138282775
1622106139640,-21.90999984741211,-68.30000305175781,-12.541000366210938,0.0,-10.102999687194824,-0.3079999983310699
1622106139650,-22.1200008392334,-66.16300201416016,-13.371999740600586,0.0390000008046627,-9.755000114440918,-0.2460000067949295
1622106139660,-21.13999938964844,-64.71600341796875,-14.324999809265137,0.0780000016093254,-9.45300006866455,-0.152999997138977
1622106139670,-19.040000915527344,-63.22800064086914,-15.91100025177002,0.0780000016093254,-9.220999717712402,-0.1120000034570694
1622106139680,-16.729999542236328,-61.08300018310547,-17.5939998626709,0.0780000016093254,-9.097999572753906,-0.1309999972581863
1622106139690,-14.5600004196167,-58.68600082397461,-19.090999603271484,0.0780000016093254,-9.104999542236328,-0.0920000001788139
1622106139700,-12.949999809265137,-56.582000732421875,-20.141000747680664,0.0390000008046627,-9.175999641418455,-0.1439999938011169
1622106139710,-12.670000076293944,-54.0880012512207,-20.981000900268555,0.0390000008046627,-9.291999816894531,-0.1650000065565109
1622106139720,-13.19499969482422,-52.90999984741211,-20.80900001525879,0.0,-9.406999588012695,-0.1850000023841857
1622106139730,-13.720000267028809,-51.73199844360352,-20.636999130249023,0.0,-9.439000129699709,-0.2300000041723251
1622106139740,-14.630000114440918,-49.07600021362305,-19.17300033569336,0.0,-9.401000022888184,-0.2240000069141387
1622106139750,-15.68000030517578,-46.78099822998047,-17.275999069213867,0.0780000016093254,-9.477999687194824,-0.2370000034570694
1622106139760,-16.59000015258789,-44.77299880981445,-15.357999801635742,0.0390000008046627,-9.496000289916992,-0.3600000143051147
1622106139770,-16.8700008392334,-42.42100143432618,-13.380000114440918,0.0780000016093254,-9.458000183105469,-0.3529999852180481
1622106139780,-16.799999237060547,-40.07699966430664,-11.758000373840332,0.0390000008046627,-9.496000289916992,-0.3600000143051147
1622106139790,-16.450000762939453,-37.92399978637695,-10.666999816894531,0.0780000016093254,-9.53499984741211,-0.367000013589859
1622106139800,-15.960000038146973,-35.80699920654297,-9.369999885559082,0.1180000007152557,-9.604999542236328,-0.4189999997615814
1622106139810,-14.489999771118164,-33.645999908447266,-9.130999565124512,0.1570000052452087,-9.630000114440918,-0.5030000209808348
1622106139820,-13.4399995803833,-30.948999404907227,-9.508999824523924,0.1180000007152557,-9.73900032043457,-0.5619999766349792
1622106139830,-12.460000038146973,-27.996999740600582,-10.125,0.1180000007152557,-9.901000022888184,-0.5509999990463256
1622106139840,-12.31999969482422,-25.263999938964844,-10.710000038146973,0.1570000052452087,-10.041999816894531,-0.6549999713897705
1622106139850,-12.949999809265137,-22.39299964904785,-11.270000457763672,0.1959999948740005,-10.072999954223633,-0.7009999752044677
1622106139860,-14.630000114440918,-19.993000030517575,-11.984000205993652,0.2750000059604644,-10.112000465393066,-0.7080000042915344
1622106139870,-16.3799991607666,-17.99799919128418,-12.413999557495115,0.2750000059604644,-10.06700038909912,-0.7390000224113464
1622106139880,-18.6200008392334,-16.018999099731445,-12.348999977111816,0.2750000059604644,-9.97599983215332,-0.8029999732971191
1622106139890,-20.510000228881836,-14.121000289916992,-12.227999687194824,0.3140000104904174,-9.897999763488768,-0.7889999747276306
1622106139900,-21.489999771118164,-11.845999717712402,-11.82699966430664,0.2750000059604644,-9.737000465393066,-0.8009999990463256
1622106139910,-22.049999237060547,-8.869999885559082,-11.373000144958496,0.2750000059604644,-9.607999801635742,-0.8579999804496765
1622106139920,-22.049999237060547,-7.547999858856201,-11.211000442504885,0.3140000104904174,-9.46399974822998,-0.9919999837875366
1622106139930,-22.049999237060547,-6.22599983215332,-11.048999786376951,0.3140000104904174,-9.37399959564209,-1.0549999475479126
1622106139940,-21.6299991607666,-2.7309999465942383,-10.717000007629396,0.3140000104904174,-9.282999992370604,-1.11899995803833
1622106139950,-21.350000381469727,0.3549999892711639,-9.675000190734863,0.3140000104904174,-9.237000465393066,-1.1510000228881836
1622106139960,-20.790000915527344,3.0160000324249268,-8.637999534606934,0.3140000104904174,-9.229999542236328,-1.1890000104904177
1622106139970,-20.15999984741211,6.0370001792907715,-8.034000396728516,0.3529999852180481,-9.223999977111816,-1.2280000448226929
1622106139980,-19.18000030517578,9.138999938964846,-7.486999988555909,0.3529999852180481,-9.17099952697754,-1.2979999780654907
1622106139990,-18.34000015258789,12.095000267028809,-7.32100009918213,0.3919999897480011,-9.196000099182127,-1.3830000162124634
1622106140000,-17.639999389648438,14.72700023651123,-6.927999973297119,0.3529999852180481,-9.175999641418455,-1.4980000257492063
1622106140010,-17.149999618530273,16.957000732421875,-6.677000045776367,0.3919999897480011,-9.098999977111816,-1.4850000143051147
1622106140020,-16.8700008392334,19.36199951171875,-6.607999801635742,0.4309999942779541,-9.04599952697754,-1.5549999475479126
1622106140030,-16.520000457763672,22.06599998474121,-6.629000186920166,0.3919999897480011,-8.956000328063965,-1.61899995803833
1622106140040,-15.539999961853027,24.718000411987305,-7.156000137329102,0.4309999942779541,-8.90999984741211,-1.6510000228881836
1622106140050,-14.909999847412108,27.788000106811523,-8.036999702453613,0.4309999942779541,-8.826000213623047,-1.6759999990463257
1622106140060,-13.649999618530272,31.031000137329105,-10.30799961090088,0.4709999859333038,-8.755999565124512,-1.6239999532699585
1622106140070,-12.460000038146973,33.88999938964844,-13.215999603271484,0.5490000247955322,-8.664999961853027,-1.687000036239624
1622106140080,-11.619999885559082,37.117000579833984,-16.201000213623047,0.5879999995231628,-8.651000022888184,-1.7640000581741333
1622106140090,-11.0600004196167,40.52299880981445,-18.586000442504883,0.5879999995231628,-8.605999946594238,-1.7960000038146973
1622106140100,-11.130000114440918,44.03799819946289,-21.590999603271484,0.5490000247955322,-8.553000450134277,-1.8669999837875368
1622106140110,-11.270000457763672,47.41999816894531,-25.04599952697754,0.5879999995231628,-8.482999801635742,-1.8140000104904177
1622106140120,-11.479999542236328,51.18199920654297,-28.64800071716309,0.5879999995231628,-8.366999626159668,-1.7940000295639038
1622106140130,-12.039999961853027,55.20399856567382,-31.70599937438965,0.6280000209808348,-8.32800006866455,-1.7869999408721924
1622106140140,-12.215000152587892,57.62049865722656,-33.51850128173828,0.6280000209808348,-8.244000434875488,-1.812000036239624
1622106140150,-12.390000343322754,60.0369987487793,-35.33100128173828,0.6280000209808348,-8.206000328063965,-1.8049999475479128
1622106140160,-13.090000152587892,64.46499633789062,-38.67300033569336,0.6280000209808348,-8.32800006866455,-1.7869999408721924
1622106140170,-13.4399995803833,69.302001953125,-41.516998291015625,0.5490000247955322,-8.503000259399414,-1.6990000009536743
1622106140180,-13.789999961853027,74.16400146484375,-43.28900146484375,0.5099999904632568,-8.727999687194824,-1.7779999971389773
1622106140190,-14.909999847412108,79.33399963378906,-44.79399871826172,0.4309999942779541,-9.114999771118164,-1.8459999561309817
1622106140200,-16.729999542236328,84.98600006103516,-45.006000518798835,0.2750000059604644,-9.37399959564209,-1.7319999933242798
1622106140210,-19.25,91.9240036010742,-44.8489990234375,0.0390000008046627,-9.62600040435791,-1.656999945640564
1622106140220,-21.280000686645508,100.9469985961914,-44.821998596191406,-0.1570000052452087,-9.987000465393066,-1.6419999599456787
1622106140230,-22.399999618530273,111.91500091552734,-46.15700149536133,-0.2349999994039535,-10.354999542236328,-1.587000012397766
1622106140240,-23.799999237060547,124.37200164794922,-49.07899856567382,-0.1570000052452087,-10.529999732971191,-1.4980000257492063
1622106140250,-24.850000381469727,136.19200134277344,-51.6150016784668,0.0,-10.564000129699709,-1.3049999475479126
1622106140260,-25.40999984741211,146.01300048828125,-52.08599853515625,0.1959999948740005,-10.592000007629396,-1.1510000228881836
1622106140270,-24.36000061035156,154.33799743652344,-48.91299819946289,0.2750000059604644,-10.895999908447266,-1.0049999952316284
1622106140280,-21.979999542236328,161.73899841308594,-44.125,0.3529999852180481,-11.470999717712402,-0.9070000052452089
1622106140290,-19.739999771118164,168.14700317382812,-40.152000427246094,0.4709999859333038,-12.102999687194824,-0.9390000104904174
1622106140300,-17.360000610351562,173.01699829101565,-36.73400115966797,0.6280000209808348,-12.72700023651123,-1.008999943733215
1622106140310,-16.309999465942383,176.38400268554688,-32.444000244140625,0.8629999756813049,-13.237000465393066,-1.0590000152587893
1622106140320,-17.079999923706055,178.51699829101565,-26.808000564575195,1.0590000152587893,-13.468000411987305,-1.100000023841858
1622106140330,-19.25,178.21400451660156,-21.459999084472656,1.2940000295639038,-13.256999969482422,-0.9430000185966492
1622106140340,-20.719999313354492,176.01699829101565,-16.658000946044922,1.4119999408721924,-12.79300022125244,-0.8619999885559082
1622106140349,-21.90999984741211,172.6959991455078,-11.130999565124512,1.5299999713897705,-12.343000411987305,-0.703000009059906
1622106140359,-22.260000228881836,168.46800231933594,-4.484000205993652,1.569000005722046,-11.911999702453612,-0.6660000085830688
1622106140369,-22.50500106811523,166.26449584960938,-1.4605001211166382,1.569000005722046,-11.75,-0.6779999732971191
1622106140379,-22.75,164.06100463867188,1.562999963760376,1.5299999713897705,-11.666000366210938,-0.703000009059906
1622106140389,-22.959999084472656,159.67799377441406,6.263000011444092,1.4509999752044678,-11.729999542236328,-0.7940000295639038
1622106140399,-24.010000228881836,155.5469970703125,9.940999984741213,1.3339999914169312,-11.722999572753906,-0.8320000171661377
1622106140409,-25.270000457763672,152.16099548339844,12.61400032043457,1.1380000114440918,-11.484999656677246,-0.8299999833106994
1622106140419,-26.600000381469727,149.656005859375,14.730999946594238,1.0199999809265137,-11.053000450134276,-0.7940000295639038
1622106140429,-28.280000686645508,147.75799560546875,17.027000427246094,0.9409999847412108,-10.543999671936035,-0.7440000176429749
1622106140439,-29.540000915527344,146.0800018310547,19.290000915527344,0.9020000100135804,-10.020999908447266,-0.7710000276565551
1622106140449,-30.520000457763672,144.16600036621094,23.288000106811523,0.8240000009536743,-9.697999954223633,-0.7940000295639038
1622106140459,-30.940000534057617,141.9080047607422,27.22599983215332,0.8629999756813049,-9.460000038146973,-0.7919999957084655
1622106140469,-30.940000534057617,139.91799926757812,29.64699935913086,0.8629999756813049,-9.298999786376951,-0.8029999732971191
1622106140479,-31.290000915527344,137.69200134277344,31.386999130249023,0.9020000100135804,-9.0600004196167,-0.8009999990463256
1622106140489,-31.219999313354492,135.1490020751953,31.29400062561035,1.0590000152587893,-8.776000022888184,-0.8299999833106994
1622106140499,-31.290000915527344,132.4040069580078,30.73900032043457,1.1770000457763672,-8.401000022888184,-0.9240000247955322
1622106140509,-31.149999618530273,129.18800354003906,30.02899932861328,1.215999960899353,-8.239999771118164,-0.9350000023841856
1622106140519,-31.149999618530273,125.81400299072266,29.007999420166016,1.2549999952316284,-8.045999526977539,-0.9010000228881836
1622106140529,-30.8700008392334,121.76699829101564,27.3700008392334,1.2940000295639038,-7.847000122070312,-0.906000018119812
1622106140539,-29.68000030517578,117.1719970703125,25.209999084472656,1.3339999914169312,-7.801000118255616,-0.9369999766349792
1622106140549,-27.649999618530273,112.83300018310548,24.01799964904785,1.4119999408721924,-7.833000183105469,-0.9829999804496764
1622106140559,-25.479999542236328,107.56999969482422,23.23200035095215,1.4509999752044678,-7.948999881744384,-1.003000020980835
1622106140569,-22.88999938964844,102.28199768066406,22.583999633789062,1.4509999752044678,-7.986999988555909,-1.0099999904632568
1622106140579,-20.09000015258789,96.76300048828124,22.038000106811523,1.491000056266785,-8.128000259399414,-1.1150000095367432
1622106140589,-16.729999542236328,91.2689971923828,21.35300064086914,1.569000005722046,-8.244000434875488,-1.1349999904632568
1622106140599,-13.720000267028809,85.58000183105469,21.770999908447266,1.569000005722046,-8.39900016784668,-1.1619999408721924
1622106140609,-10.56999969482422,79.82599639892578,21.75200080871582,1.569000005722046,-8.5600004196167,-1.1510000228881836
1622106140619,-7.489999771118165,74.71199798583984,20.92099952697754,1.5299999713897705,-8.708000183105469,-1.2170000076293943
1622106140629,-6.054999828338623,72.39250183105469,20.36999893188477,1.491000056266785,-8.78499984741211,-1.2300000190734863
1622106140639,-4.619999885559082,70.072998046875,19.819000244140625,1.491000056266785,-8.829999923706055,-1.1990000009536743
1622106140649,-2.0299999713897705,65.41000366210938,18.854999542236328,1.4119999408721924,-8.946000099182129,-1.218999981880188
1622106140659,1.0499999523162842,60.59600067138672,17.934999465942383,1.3730000257492063,-9.062000274658203,-1.2389999628067017
1622106140669,3.569999933242798,56.07500076293945,17.777000427246094,1.3339999914169312,-9.145999908447264,-1.2139999866485596
1622106140679,6.159999847412109,51.80899810791016,18.589000701904297,1.2549999952316284,-9.19200038909912,-1.1829999685287476
1622106140689,9.100000381469728,47.560001373291016,20.11400032043457,1.215999960899353,-9.237000465393066,-1.1510000228881836
1622106140699,12.31999969482422,43.334999084472656,21.50200080871582,1.1770000457763672,-9.244000434875488,-1.1119999885559082
1622106140709,15.81999969482422,39.74599838256836,22.503999710083008,1.1380000114440918,-9.29599952697754,-1.0420000553131104
1622106140719,19.25,36.62799835205078,23.65999984741211,1.0980000495910645,-9.411999702453612,-1.062000036239624
1622106140729,22.469999313354492,33.54199981689453,25.03499984741211,0.981000006198883,-9.696000099182127,-1.0329999923706057
1622106140739,24.290000915527344,30.655000686645508,27.29800033569336,0.9409999847412108,-9.92099952697754,-1.1119999885559082
1622106140749,24.989999771118164,27.89900016784668,30.437000274658203,0.8240000009536743,-10.11400032043457,-1.1460000276565552
1622106140759,23.799999237060547,25.166000366210938,33.4379997253418,0.7059999704360961,-10.26200008392334,-1.212000012397766
1622106140769,21.6299991607666,23.28499984741211,35.23899841308594,0.6280000209808348,-10.409999847412108,-1.2779999971389773
1622106140779,18.200000762939453,21.548999786376953,36.21200180053711,0.5879999995231628,-10.50100040435791,-1.2139999866485596
1622106140789,14.5600004196167,19.992000579833984,36.57699966430664,0.4309999942779541,-10.43000030517578,-1.1619999408721924
1622106140799,11.199999809265137,18.905000686645508,35.88800048828125,0.3140000104904174,-10.288999557495115,-1.0570000410079956
1622106140809,8.399999618530273,17.920000076293945,34.22200012207031,0.3140000104904174,-10.142000198364258,-0.9919999837875366
1622106140819,6.300000190734863,17.246000289916992,32.39699935913086,0.2750000059604644,-9.994000434875488,-0.9259999990463256
1622106140829,4.619999885559082,16.85700035095215,30.97800064086914,0.2349999994039535,-9.878000259399414,-0.9049999713897704
1622106140839,3.430000066757202,16.14699935913086,29.36000061035156,0.1570000052452087,-9.814000129699709,-0.8140000104904174
1622106140849,3.0799999237060547,15.55500030517578,27.479000091552734,0.0780000016093254,-9.704999923706056,-0.7549999952316284
1622106140859,2.869999885559082,15.340000152587892,25.87700080871582,0.0390000008046627,-9.595999717712402,-0.6959999799728394
1622106140869,3.114999771118164,14.968500137329102,24.958499908447266,0.0390000008046627,-9.550999641418455,-0.7279999852180481
1622106140879,3.359999895095825,14.597000122070312,24.040000915527344,0.0390000008046627,-9.4350004196167,-0.7080000042915344
1622106140889,3.990000009536743,14.60099983215332,22.406000137329105,0.0780000016093254,-9.371000289916992,-0.6169999837875366
1622106140899,4.829999923706055,14.32900047302246,20.722999572753903,0.0390000008046627,-9.255000114440918,-0.5960000157356262
1622106140909,5.25,13.98799991607666,19.027999877929688,0.0,-9.157999992370604,-0.6990000009536743
1622106140919,5.460000038146973,14.218999862670898,17.718000411987305,0.0390000008046627,-9.151000022888184,-0.7369999885559082
1622106140929,4.340000152587891,14.607999801635742,16.72100067138672,0.0,-9.227999687194824,-0.7509999871253967
1622106140939,3.1500000953674316,15.472000122070312,15.451000213623049,-0.0780000016093254,-9.27400016784668,-0.7189999818801879
1622106140949,2.240000009536743,16.261999130249023,13.38700008392334,-0.1180000007152557,-9.241999626159668,-0.6740000247955322
1622106140959,1.3300000429153442,17.15399932861328,10.345999717712402,-0.1180000007152557,-9.17099952697754,-0.6209999918937683
1622106140969,1.6799999475479126,18.464000701904297,8.15999984741211,-0.1570000052452087,-9.05500030517578,-0.6010000109672546
1622106140979,2.5199999809265137,20.198999404907227,5.978000164031982,-0.1570000052452087,-8.991999626159668,-0.5099999904632568
1622106140989,4.409999847412109,21.2450008392334,3.674999952316284,-0.1570000052452087,-8.913999557495117,-0.4959999918937683
1622106140999,6.369999885559082,22.298999786376953,1.7280000448226929,-0.1180000007152557,-8.928000450134277,-0.4189999997615814
1622106141009,8.1899995803833,23.121999740600582,1.0920000076293943,-0.0780000016093254,-8.984999656677246,-0.5490000247955322
1622106141019,9.65999984741211,23.49099922180176,1.0149999856948853,-0.0390000008046627,-9.069000244140623,-0.5239999890327453
1622106141029,10.149999618530272,23.766000747680664,1.062999963760376,0.0390000008046627,-9.276000022888184,-0.4799999892711639
1622106141039,9.800000190734863,23.677000045776367,0.7630000114440918,0.0390000008046627,-9.352999687194824,-0.4939999878406524
1622106141049,8.890000343322754,23.559999465942383,1.0269999504089355,0.0390000008046627,-9.43000030517578,-0.5080000162124633
1622106141059,7.280000209808349,22.910999298095703,1.4809999465942385,0.0390000008046627,-9.508000373840332,-0.5210000276565551
1622106141069,5.25,22.371999740600582,2.5230000019073486,0.1180000007152557,-9.585000038146973,-0.5350000262260437
1622106141079,3.569999933242798,21.23200035095215,3.7439999580383305,0.0780000016093254,-9.668999671936035,-0.5099999904632568
1622106141089,1.8899999856948853,20.34000015258789,4.368000030517578,0.0780000016093254,-9.637000083923342,-0.4639999866485595
1622106141099,0.3499999940395355,19.854000091552734,4.709000110626221,0.0390000008046627,-9.5600004196167,-0.4510000050067901
1622106141109,-1.0499999523162842,19.691999435424805,4.822999954223633,0.0390000008046627,-9.444000244140623,-0.4300000071525573
1622106141119,-1.3650000095367432,19.496999740600582,4.717499732971191,0.0390000008046627,-9.32800006866455,-0.4099999964237213
1622106141129,-1.6799999475479126,19.302000045776367,4.611999988555908,0.0390000008046627,-9.204999923706056,-0.4280000030994415
1622106141139,-2.240000009536743,19.43600082397461,3.8540000915527344,0.0780000016093254,-9.11400032043457,-0.492000013589859
1622106141149,-2.869999885559082,19.606000900268555,2.888000011444092,0.0780000016093254,-9.145999908447264,-0.537000000476837
1622106141159,-3.2899999618530273,19.674999237060547,1.6920000314712524,0.1180000007152557,-9.11400032043457,-0.492000013589859
1622106141169,-3.849999904632568,20.18600082397461,0.0049999998882412,0.1959999948740005,-9.062000274658203,-0.5619999766349792
1622106141179,-4.130000114440918,19.825000762939453,-1.9780000448226929,0.2349999994039535,-9.11400032043457,-0.492000013589859
1622106141189,-4.199999809265137,19.750999450683594,-2.7720000743865967,0.3529999852180481,-9.244000434875488,-0.4350000023841857
1622106141199,-4.199999809265137,19.312999725341797,-3.9159998893737793,0.4309999942779541,-9.321000099182127,-0.4490000009536743
1622106141209,-3.7100000381469727,19.118000030517575,-6.438000202178955,0.4309999942779541,-9.321000099182127,-0.4490000009536743
1622106141219,-3.2200000286102295,19.11400032043457,-9.637000083923342,0.5490000247955322,-9.26900005340576,-0.5189999938011169
1622106141229,-3.2899999618530273,18.676000595092773,-11.98900032043457,0.6280000209808348,-9.293999671936035,-0.6029999852180481
1622106141239,-3.7799999713897705,18.902999877929688,-12.873000144958496,0.6669999957084655,-9.319000244140623,-0.6869999766349792
1622106141249,-4.340000152587891,18.305999755859375,-13.119999885559082,0.7059999704360961,-9.467000007629396,-0.7530000209808348
1622106141259,-5.110000133514404,17.320999145507812,-13.57900047302246,0.7850000262260437,-9.638999938964846,-0.902999997138977
1622106141269,-6.019999980926514,15.864999771118164,-12.982000350952148,0.8240000009536743,-9.998000144958496,-1.1260000467300415
1622106141279,-7.0,13.850000381469728,-11.631999969482422,0.8629999756813049,-10.487000465393066,-1.2910000085830688
1622106141289,-6.579999923706055,12.223999977111816,-10.06999969482422,0.8240000009536743,-10.95699977874756,-1.3350000381469729
1622106141299,-4.829999923706055,10.013999938964844,-10.032999992370604,0.8240000009536743,-11.12600040435791,-1.2849999666213987
1622106141309,-2.240000009536743,7.527999877929688,-12.461999893188477,0.8629999756813049,-10.939000129699709,-1.212000012397766
1622106141319,0.3499999940395355,5.548999786376953,-16.152000427246094,0.9020000100135804,-10.661999702453612,-1.2029999494552612
1622106141329,3.2899999618530273,3.8459999561309814,-18.584999084472656,0.9409999847412108,-10.585000038146973,-1.1890000104904177
1622106141339,5.53000020980835,1.7610000371932983,-18.454999923706055,0.9020000100135804,-10.770999908447266,-1.2619999647140503
1622106141349,6.510000228881836,-0.8050000071525573,-15.993000030517578,0.8629999756813049,-11.112000465393066,-1.3619999885559082
1622106141359,6.685000419616699,-2.4814999103546143,-14.546999931335447,0.8240000009536743,-11.607000350952148,-1.4889999628067017
1622106141369,6.860000133514404,-4.1579999923706055,-13.10099983215332,0.7850000262260437,-11.909999847412108,-1.5820000171661377
1622106141379,5.809999942779541,-7.203000068664551,-9.94200038909912,0.7450000047683715,-11.979999542236328,-1.633999943733215
1622106141389,4.550000190734863,-9.701000213623049,-8.675999641418457,0.7850000262260437,-11.748000144958496,-1.593999981880188
1622106141399,3.2899999618530273,-10.986000061035156,-10.253999710083008,0.8629999756813049,-11.477999687194824,-1.5460000038146973
1622106141409,2.5199999809265137,-11.902999877929688,-13.116000175476074,0.9020000100135804,-11.29800033569336,-1.434999942779541
1622106141419,1.9600000381469729,-11.78600025177002,-17.0049991607666,1.0199999809265137,-11.079999923706056,-1.3159999847412107
1622106141429,2.1700000762939453,-11.892000198364258,-20.434999465942383,1.0590000152587893,-10.784999847412108,-1.184999942779541
1622106141439,2.450000047683716,-12.090999603271484,-23.739999771118164,1.0980000495910645,-10.392000198364258,-1.1549999713897705
1622106141449,3.430000066757202,-12.305999755859377,-25.34199905395508,1.215999960899353,-10.064000129699709,-0.977999985218048
1622106141459,4.199999809265137,-12.33899974822998,-24.35300064086914,1.215999960899353,-9.762000083923342,-0.8849999904632568
1622106141469,4.409999847412109,-12.88599967956543,-21.25,1.0980000495910645,-9.569000244140623,-0.8510000109672546
1622106141479,3.9200000762939458,-13.918999671936035,-16.599000930786133,0.9409999847412108,-9.491999626159668,-0.8370000123977661
1622106141489,3.0799999237060547,-14.916000366210938,-10.946000099182127,0.8629999756813049,-9.446000099182127,-0.8690000176429749
1622106141499,1.6799999475479126,-15.758000373840332,-4.556000232696533,0.7450000047683715,-9.39400005340576,-0.9390000104904174
1622106141509,-0.4900000095367431,-15.725000381469728,1.7050000429153442,0.6280000209808348,-9.458000183105469,-1.0299999713897705
1622106141519,-2.7300000190734863,-15.805999755859377,5.38700008392334,0.5490000247955322,-9.458000183105469,-1.0299999713897705
1622106141529,-4.059999942779541,-15.02299976348877,6.591000080108643,0.4709999859333038,-9.48900032043457,-1.0759999752044678
1622106141539,-4.550000190734863,-14.248000144958496,6.230000019073486,0.3529999852180481,-9.520999908447264,-1.1210000514984133
1622106141549,-4.480000019073486,-13.895999908447266,5.440000057220459,0.2750000059604644,-9.598999977111816,-1.1349999904632568
1622106141559,-3.7100000381469727,-14.503999710083008,5.261000156402588,0.1570000052452087,-9.637000083923342,-1.1419999599456787
1622106141569,-1.8899999856948853,-14.496000289916992,4.409999847412109,0.0780000016093254,-9.520999908447264,-1.1210000514984133
1622106141579,-1.1200000047683716,-14.214000701904297,3.8199999332427974,-0.0390000008046627,-9.392000198364256,-1.1779999732971191
1622106141589,-0.3499999940395355,-13.932000160217283,3.2300000190734863,-0.0780000016093254,-9.345999717712402,-1.2100000381469729
1622106141599,1.190000057220459,-13.10099983215332,1.741000056266785,-0.1180000007152557,-9.461999893188477,-1.2300000190734863
1622106141609,2.309999942779541,-11.83199977874756,0.1879999935626983,-0.1959999948740005,-9.571000099182127,-1.2890000343322754
1622106141619,3.430000066757202,-10.692999839782717,-1.0329999923706057,-0.2349999994039535,-9.64900016784668,-1.3029999732971191
1622106141629,4.409999847412109,-9.736000061035156,-2.427999973297119,-0.2750000059604644,-9.642000198364256,-1.3420000076293943
1622106141639,5.880000114440918,-8.840999603271484,-4.685999870300293,-0.2750000059604644,-9.564000129699709,-1.3279999494552612
1622106141649,7.280000209808349,-7.664999961853027,-6.113999843597412,-0.2349999994039535,-9.416999816894531,-1.2619999647140503
1622106141659,9.380000114440918,-6.756999969482422,-7.232999801635742,-0.1570000052452087,-9.19200038909912,-1.1829999685287476
1622106141669,11.340000152587892,-4.681000232696533,-8.928000450134277,-0.1570000052452087,-9.029999732971191,-1.194000005722046
1622106141679,11.760000228881836,-2.000999927520752,-12.435999870300291,-0.1570000052452087,-9.16499996185303,-1.337000012397766
1622106141689,10.850000381469728,0.6589999794960022,-15.02400016784668,-0.1180000007152557,-9.460000038146973,-1.468999981880188
1622106141699,9.239999771118164,2.3580000400543213,-15.789999961853027,-0.0390000008046627,-9.762000083923342,-1.562000036239624
1622106141709,7.420000076293945,3.947999954223633,-14.727999687194824,0.0,-9.878000259399414,-1.5820000171661377
1622106141719,5.599999904632568,5.071000099182129,-14.246000289916992,0.0,-9.852999687194824,-1.4980000257492063
1622106141729,4.480000019073486,5.423999786376953,-13.828000068664553,0.0780000016093254,-9.704999923706056,-1.4320000410079956
1622106141739,3.7799999713897705,6.373000144958496,-13.163000106811523,0.0780000016093254,-9.602999687194824,-1.3350000381469729
1622106141749,3.2899999618530273,6.875999927520752,-11.58199977874756,0.0780000016093254,-9.571000099182127,-1.2890000343322754
1622106141759,2.7300000190734863,7.256999969482423,-10.520000457763672,0.0780000016093254,-9.564000129699709,-1.3279999494552612
1622106141769,2.450000047683716,7.947000026702882,-9.1899995803833,0.0780000016093254,-9.642000198364256,-1.3420000076293943
1622106141779,1.9600000381469729,8.170000076293945,-7.230999946594238,0.0390000008046627,-9.732999801635742,-1.2779999971389773
