timestamp,gyro_x,gyro_y,gyro_z,acc_x,acc_y,acc_z
1622105383440,0.0,0.0,0.0,0.0,0.0,0.0
1622105384089,0.0,0.0,0.0,-0.0780000016093254,-9.916999816894531,-0.9120000004768372
1622105384099,1.5399999618530271,10.888999938964844,-19.829999923706055,0.0,-10.109999656677246,-0.9459999799728392
1622105384109,0.699999988079071,11.98799991607666,-19.209999084472656,0.0780000016093254,-10.22599983215332,-0.9670000076293944
1622105384119,-1.1200000047683716,13.659000396728516,-18.204999923706055,0.1570000052452087,-10.380000114440918,-0.9940000176429749
1622105384129,-3.2899999618530273,15.093999862670898,-17.881000518798828,0.1570000052452087,-10.520999908447266,-1.0980000495910645
1622105384139,-6.860000133514404,16.594999313354492,-17.118000030517578,0.1570000052452087,-10.644000053405762,-1.0800000429153442
1622105384149,-10.850000381469728,18.423999786376953,-15.800999641418455,0.1180000007152557,-10.651000022888184,-1.0420000553131104
1622105384159,-14.420000076293944,21.257999420166016,-14.946000099182127,0.0780000016093254,-10.572999954223633,-1.0279999971389773
1622105384169,-17.639999389648438,24.17799949645996,-14.572999954223633,0.1180000007152557,-10.45699977874756,-1.006999969482422
1622105384179,-19.950000762939453,27.349000930786133,-14.013999938964844,0.1570000052452087,-10.380000114440918,-0.9940000176429749
1622105384189,-22.81999969482422,29.834999084472656,-11.585000038146973,0.1570000052452087,-10.496000289916992,-1.0140000581741333
1622105384199,-27.229999542236328,31.63599967956543,-8.496000289916992,0.1180000007152557,-10.572999954223633,-1.0279999971389773
1622105384209,-32.130001068115234,33.97999954223633,-5.665999889373779,0.1570000052452087,-10.572999954223633,-1.0279999971389773
1622105384219,-36.75,36.72999954223633,-4.328000068664551,0.1180000007152557,-10.510000228881836,-0.9369999766349792
1622105384229,-39.970001220703125,38.89099884033203,-4.089000225067139,0.1180000007152557,-10.31700038909912,-0.902999997138977
1622105384239,-42.0,40.34700012207031,-4.684999942779541,0.1570000052452087,-10.071000099182127,-0.9390000104904174
1622105384249,-43.119998931884766,41.02000045776367,-5.2769999504089355,0.0390000008046627,-9.86400032043457,-0.9829999804496764
1622105384259,-42.97999954223633,42.766998291015625,-6.320000171661377,-0.0780000016093254,-9.62600040435791,-0.9800000190734864
1622105384269,-41.29999923706055,45.430999755859375,-6.915999889373779,-0.0780000016093254,-9.342000007629396,-1.0099999904632568
1622105384279,-38.08000183105469,47.709999084472656,-6.940999984741211,0.0,-8.979999542236328,-1.0260000228881836
1622105384289,-35.4900016784668,48.03450012207031,-6.564000129699707,0.5099999904632568,-8.32800006866455,-1.1100000143051147
1622105384299,-32.900001525878906,48.35900115966797,-6.186999797821045,0.6669999957084655,-8.230999946594238,-1.212000012397766
1622105384309,-26.950000762939453,47.678001403808594,-4.743000030517578,0.7450000047683715,-8.333000183105469,-1.309999942779541
1622105384319,-20.09000015258789,45.387001037597656,-3.440999984741211,0.7059999704360961,-8.5649995803833,-1.35099995136261
1622105384329,-14.0,42.89699935913086,-4.235000133514404,0.6669999957084655,-8.64900016784668,-1.3259999752044678
1622105384339,-9.100000381469728,40.94200134277344,-8.062999725341797,0.7450000047683715,-8.744000434875488,-1.462000012397766
1622105384349,-4.619999885559082,39.36000061035156,-12.392999649047852,0.7850000262260437,-8.852999687194824,-1.5210000276565552
1622105384359,-1.190000057220459,37.53499984741211,-15.345000267028809,0.7850000262260437,-9.104999542236328,-1.4459999799728394
1622105384369,0.9100000262260436,35.45899963378906,-16.066999435424805,0.7850000262260437,-9.279999732971191,-1.3580000400543213
1622105384379,1.6799999475479126,33.39500045776367,-15.64900016784668,0.7850000262260437,-9.319000244140623,-1.3639999628067017
1622105384389,1.8200000524520872,30.993999481201172,-16.14299964904785,0.7850000262260437,-9.44200038909912,-1.3459999561309814
1622105384399,0.4199999868869781,28.836999893188477,-16.808000564575195,0.7059999704360961,-9.68000030517578,-1.3480000495910645
1622105384409,-0.9800000190734864,28.72699928283691,-16.187000274658203,0.6280000209808348,-9.8100004196167,-1.2920000553131104
1622105384419,-2.1700000762939453,29.315000534057617,-16.297000885009766,0.5879999995231628,-9.73900032043457,-1.2389999628067017
1622105384429,-2.5899999141693115,30.875999450683594,-17.08799934387207,0.5879999995231628,-9.71399974822998,-1.1549999713897705
1622105384439,-2.240000009536743,32.27899932861328,-16.982999801635742,0.6280000209808348,-9.612000465393066,-1.0579999685287476
1622105384449,-1.399999976158142,33.507999420166016,-15.487000465393066,0.7059999704360961,-9.579999923706056,-1.0119999647140503
1622105384459,-0.209999993443489,34.29899978637695,-13.925999641418455,0.7450000047683715,-9.541999816894531,-1.0049999952316284
1622105384469,1.9600000381469729,35.512001037597656,-13.142999649047852,0.8240000009536743,-9.470999717712402,-0.953000009059906
1622105384479,2.869999885559082,36.20500183105469,-12.23900032043457,0.9020000100135804,-9.54800033569336,-0.9670000076293944
1622105384489,3.0450000762939453,36.42850112915039,-11.48900032043457,0.8629999756813049,-9.607999801635742,-0.8579999804496765
1622105384499,3.2200000286102295,36.652000427246094,-10.73900032043457,0.8629999756813049,-9.576000213623049,-0.8119999766349792
1622105384509,3.5,37.35699844360352,-8.694999694824219,0.7850000262260437,-9.569000244140623,-0.8510000109672546
1622105384519,3.5,38.042999267578125,-5.730999946594238,0.7850000262260437,-9.543999671936035,-0.7670000195503234
1622105384529,4.130000114440918,38.27000045776367,-4.197999954223633,0.7850000262260437,-9.44200038909912,-0.6690000295639038
1622105384539,5.110000133514404,38.319000244140625,-3.2660000324249268,0.8629999756813049,-9.447999954223633,-0.6299999952316284
1622105384549,5.949999809265137,38.37200164794922,-2.759000062942505,0.9020000100135804,-9.461999893188477,-0.5529999732971191
1622105384559,6.440000057220459,37.756000518798835,-2.0850000381469727,0.8629999756813049,-9.508000373840332,-0.5210000276565551
1622105384569,5.949999809265137,36.680999755859375,-1.6349999904632568,0.9020000100135804,-9.553000450134276,-0.488999992609024
1622105384579,5.53000020980835,36.2760009765625,-1.35099995136261,0.9020000100135804,-9.604999542236328,-0.4189999997615814
1622105384589,4.619999885559082,35.81800079345703,-1.5740000009536743,0.9409999847412108,-9.64400005340576,-0.4259999990463256
1622105384599,4.409999847412109,35.08300018310547,-3.053999900817871,0.9409999847412108,-9.651000022888184,-0.3869999945163726
1622105384609,3.7799999713897705,34.7140007019043,-4.185999870300293,1.0590000152587893,-9.612000465393066,-0.3799999952316284
1622105384619,2.6600000858306885,34.159000396728516,-5.065000057220459,1.0980000495910645,-9.682000160217283,-0.4329999983310699
1622105384629,0.9800000190734864,33.91899871826172,-5.321000099182129,1.2549999952316284,-9.80500030517578,-0.414000004529953
1622105384639,-0.8399999737739563,33.33100128173828,-5.210999965667725,1.3730000257492063,-9.836999893188477,-0.4600000083446502
1622105384649,-2.1700000762939453,32.244998931884766,-4.691999912261963,1.4509999752044678,-9.869000434875488,-0.5049999952316284
1622105384659,-3.009999990463257,31.361000061035156,-3.7109999656677246,1.491000056266785,-9.829999923706056,-0.4990000128746032
1622105384669,-3.430000066757202,30.420000076293945,-2.809999942779541,1.491000056266785,-9.829999923706056,-0.4990000128746032
1622105384679,-3.325000047683716,30.138500213623047,-2.2200000286102295,1.491000056266785,-9.854999542236328,-0.5830000042915344
1622105384689,-3.2200000286102295,29.85700035095215,-1.6299999952316284,1.491000056266785,-9.918999671936035,-0.6740000247955322
1622105384699,-2.7300000190734863,29.625999450683594,-0.3199999928474426,1.4119999408721924,-9.996000289916992,-0.6869999766349792
1622105384709,-1.75,29.14299964904785,-0.4059999883174896,1.3339999914169312,-10.079999923706056,-0.662000000476837
1622105384719,-1.0499999523162842,29.097999572753903,-1.7640000581741333,1.3339999914169312,-10.12600040435791,-0.6299999952316284
1622105384729,-0.7699999809265136,29.722999572753903,-2.0799999237060547,1.2940000295639038,-10.131999969482422,-0.5920000076293945
1622105384739,-0.1400000005960464,30.291000366210938,-1.2690000534057615,1.2940000295639038,-10.138999938964844,-0.5529999732971191
1622105384749,0.8399999737739563,31.340999603271484,-0.3729999959468841,1.215999960899353,-10.10099983215332,-0.5460000038146972
1622105384759,1.9600000381469729,32.34299850463867,0.7979999780654907,1.1380000114440918,-10.156999588012695,-0.6759999990463256
1622105384769,3.569999933242798,33.24700164794922,1.312999963760376,1.0590000152587893,-10.217000007629396,-0.5669999718666076
1622105384779,5.389999866485596,34.12300109863281,2.3919999599456787,0.9409999847412108,-10.203000068664553,-0.6439999938011169
1622105384789,7.420000076293945,34.89400100708008,3.6649999618530273,0.9409999847412108,-10.145999908447266,-0.5139999985694885
1622105384799,9.239999771118164,35.16999816894531,4.921999931335449,0.9409999847412108,-10.166000366210938,-0.3989999890327453
1622105384809,10.850000381469728,35.862998962402344,4.618000030517578,0.8629999756813049,-10.14799976348877,-0.2759999930858612
1622105384819,11.550000190734863,37.042999267578125,3.973000049591065,0.8240000009536743,-10.116000175476074,-0.2300000041723251
1622105384829,10.56999969482422,38.665000915527344,4.046000003814697,0.7059999704360961,-10.116000175476074,-0.2300000041723251
1622105384839,9.65999984741211,42.290000915527344,4.045000076293945,0.5490000247955322,-10.085000038146973,-0.1850000023841857
1622105384848,9.029999732971191,47.382999420166016,3.378999948501587,0.3529999852180481,-10.013999938964844,-0.1330000013113021
1622105384858,8.994999885559082,50.31050109863281,2.9004998207092285,0.1570000052452087,-9.982000350952148,-0.0869999974966049
1622105384868,8.960000038146973,53.237998962402344,2.421999931335449,0.0780000016093254,-9.866000175476074,-0.06700000166893
1622105384878,8.890000343322754,59.57600021362305,0.3400000035762786,0.0780000016093254,-9.803000450134276,0.0240000002086162
1622105384888,8.260000228881836,65.54499816894531,-1.6640000343322754,0.1959999948740005,-9.770999908447264,0.0700000002980232
1622105384898,7.0,70.49600219726562,-3.135999917984009,0.3529999852180481,-9.763999938964846,0.0309999994933605
1622105384908,4.409999847412109,74.1729965209961,-3.838000059127808,0.5099999904632568,-9.840999603271484,0.0170000009238719
1622105384918,1.9600000381469729,77.13800048828125,-3.315999984741211,0.6669999957084655,-9.821000099182127,-0.0989999994635581
1622105384928,-0.5600000023841857,78.63400268554688,-2.128000020980835,0.8240000009536743,-9.645999908447264,-0.1870000064373016
1622105384938,-1.3300000429153442,78.37899780273438,-0.6800000071525573,1.0199999809265137,-9.529999732971191,-0.1669999957084655
1622105384948,-0.7699999809265136,77.25599670410156,1.2539999485015867,1.1380000114440918,-9.312000274658203,-0.0489999987185001
1622105384958,1.2599999904632568,74.822998046875,4.165999889373779,1.2549999952316284,-9.133000373840332,0.0630000010132789
1622105384968,3.430000066757202,72.19599914550781,6.9730000495910645,1.3730000257492063,-9.069000244140623,0.1539999991655349
1622105384978,5.809999942779541,69.35399627685547,9.38599967956543,1.4509999752044678,-9.08899974822998,0.2689999938011169
1622105384988,8.470000267028809,66.59300231933594,10.534000396728516,1.4509999752044678,-9.102999687194824,0.3470000028610229
1622105384998,11.619999885559082,63.5629997253418,10.781000137329102,1.491000056266785,-9.194000244140623,0.4099999964237213
1622105385008,14.279999732971191,61.06600189208984,10.83899974822998,1.4509999752044678,-9.362000465393066,0.4600000083446502
1622105385018,15.295000076293944,59.71549987792969,10.63599967956543,1.491000056266785,-9.60099983215332,0.4580000042915344
1622105385028,16.309999465942383,58.3650016784668,10.43299961090088,1.569000005722046,-9.776000022888184,0.5469999909400939
1622105385038,17.360000610351562,55.303001403808594,9.253999710083008,1.6080000400543213,-9.904999732971191,0.6039999723434448
1622105385048,17.56999969482422,51.96200180053711,8.451000213623047,1.687000036239624,-10.027999877929688,0.621999979019165
1622105385058,17.079999923706055,48.417999267578125,8.395000457763672,1.687000036239624,-10.125,0.7239999771118164
1622105385068,15.960000038146973,45.10100173950195,8.663000106811523,1.687000036239624,-10.196000099182127,0.6719999909400939
1622105385078,14.279999732971191,42.38800048828125,8.32699966430664,1.569000005722046,-10.329999923706056,0.5289999842643737
1622105385088,12.039999961853027,39.54100036621094,8.74899959564209,1.5299999713897705,-10.477999687194824,0.4629999995231628
1622105385098,9.59000015258789,37.09600067138672,9.312999725341797,1.3730000257492063,-10.593999862670898,0.44200000166893
1622105385108,6.929999828338623,34.94300079345703,9.430999755859377,1.2940000295639038,-10.496000289916992,0.3400000035762786
1622105385118,3.990000009536743,32.7859992980957,8.765999794006348,1.1770000457763672,-10.281999588012695,0.2579999864101409
1622105385128,2.0999999046325684,31.013999938964844,8.73799991607666,1.0980000495910645,-10.029999732971191,0.1829999983310699
1622105385138,0.209999993443489,29.611000061035156,9.840999603271484,0.981000006198883,-9.970999717712402,0.0740000009536743
1622105385148,-0.9100000262260436,28.902000427246097,11.848999977111816,0.8240000009536743,-9.95699977874756,-0.003000000026077
1622105385158,-1.5399999618530271,28.479999542236328,12.626999855041504,0.6669999957084655,-9.911999702453612,-0.0350000001490116
1622105385168,-2.309999942779541,27.007999420166016,12.510000228881836,0.5490000247955322,-9.859999656677246,-0.1049999967217445
1622105385178,-3.0799999237060547,26.00200080871582,12.972000122070312,0.4309999942779541,-9.885000228881836,-0.1889999955892562
1622105385188,-3.184999942779541,25.625,13.901000022888184,0.3140000104904174,-9.871000289916992,-0.2669999897480011
1622105385198,-3.2899999618530273,25.24799919128418,14.829999923706056,0.1959999948740005,-9.779999732971191,-0.3300000131130218
1622105385208,-3.569999933242798,24.035999298095703,16.464000701904297,0.1180000007152557,-9.734999656677246,-0.3619999885559082
1622105385218,-3.849999904632568,23.04700088500977,17.639999389648438,0.0,-9.612000465393066,-0.3799999952316284
1622105385228,-3.849999904632568,21.643999099731445,18.743000030517575,0.0,-9.482999801635742,-0.4370000064373016
1622105385238,-3.9200000762939458,20.43199920654297,19.16900062561035,-0.0390000008046627,-9.437000274658203,-0.4690000116825103
1622105385248,-4.409999847412109,19.437999725341797,19.562999725341797,-0.0780000016093254,-9.397999763488768,-0.4620000123977661
1622105385258,-4.550000190734863,18.32699966430664,19.01099967956543,-0.1570000052452087,-9.392000198364256,-0.5009999871253967
1622105385268,-3.9200000762939458,17.5,17.656999588012695,-0.2349999994039535,-9.314000129699709,-0.4869999885559082
1622105385278,-3.2200000286102295,17.30900001525879,14.708999633789064,-0.3529999852180481,-9.26900005340576,-0.5189999938011169
1622105385288,-1.5399999618530271,17.45800018310547,12.248000144958496,-0.5099999904632568,-9.204999923706056,-0.4280000030994415
1622105385298,-0.1400000005960464,17.21500015258789,10.00100040435791,-0.5490000247955322,-9.204999923706056,-0.4280000030994415
1622105385308,0.7699999809265136,17.47800064086914,8.90999984741211,-0.6280000209808348,-9.314000129699709,-0.4869999885559082
1622105385318,1.2599999904632568,18.604999542236328,7.758999824523927,-0.7450000047683715,-9.352999687194824,-0.4939999878406524
1622105385328,1.75,19.82200050354004,6.9070000648498535,-0.9020000100135804,-9.43000030517578,-0.5080000162124633
1622105385338,1.8899999856948853,21.902000427246097,5.99399995803833,-1.0980000495910645,-9.47599983215332,-0.4760000109672546
1622105385348,1.924999952316284,23.220001220703125,5.977499961853027,-1.1770000457763672,-9.47599983215332,-0.4760000109672546
1622105385358,1.9600000381469729,24.538000106811523,5.960999965667725,-1.2549999952316284,-9.482999801635742,-0.4370000064373016
1622105385368,2.0299999713897705,27.652000427246097,6.440000057220459,-1.3339999914169312,-9.437000274658203,-0.4690000116825103
1622105385378,2.0299999713897705,31.191999435424805,6.921999931335449,-1.3730000257492063,-9.437000274658203,-0.4690000116825103
1622105385388,1.9600000381469729,34.643001556396484,7.104000091552734,-1.4119999408721924,-9.437000274658203,-0.4690000116825103
1622105385398,1.3300000429153442,38.98199844360352,7.086999893188477,-1.3339999914169312,-9.437000274658203,-0.4690000116825103
1622105385408,0.4199999868869781,43.11399841308594,7.0329999923706055,-1.3730000257492063,-9.468999862670898,-0.5149999856948853
1622105385418,0.2800000011920929,47.09199905395508,7.451000213623046,-1.3730000257492063,-9.444000244140623,-0.4300000071525573
1622105385428,-0.1400000005960464,50.303001403808594,8.586000442504883,-1.2940000295639038,-9.404999732971191,-0.4239999949932098
1622105385438,-0.4900000095367431,52.86600112915039,8.965999603271484,-1.2549999952316284,-9.359999656677246,-0.4550000131130218
1622105385448,-0.2800000011920929,55.055999755859375,9.850000381469728,-1.215999960899353,-9.345999717712402,-0.5329999923706054
1622105385458,0.4900000095367431,56.479000091552734,10.243000030517578,-1.1380000114440918,-9.300999641418455,-0.5649999976158142
1622105385468,1.2599999904632568,57.82600021362305,10.267000198364258,-1.1380000114440918,-9.276000022888184,-0.4799999892711639
1622105385478,2.240000009536743,58.79899978637695,9.586000442504885,-1.1380000114440918,-9.26900005340576,-0.5189999938011169
1622105385488,3.0799999237060547,59.45100021362305,8.706000328063965,-1.1380000114440918,-9.262000083923342,-0.5580000281333923
1622105385498,4.269999980926514,60.00299835205078,7.594999790191651,-1.2940000295639038,-9.26900005340576,-0.5189999938011169
1622105385508,5.389999866485596,61.11000061035156,6.15500020980835,-1.4119999408721924,-9.276000022888184,-0.4799999892711639
1622105385518,5.704999923706055,62.15599822998047,5.664000034332275,-1.569000005722046,-9.352999687194824,-0.4939999878406524
1622105385528,6.019999980926514,63.20199966430664,5.172999858856201,-1.8040000200271609,-9.366999626159668,-0.4169999957084655
1622105385538,6.929999828338623,66.83499908447266,4.321000099182129,-1.9220000505447388,-9.411999702453612,-0.3849999904632568
1622105385548,8.119999885559082,71.62000274658203,3.388000011444092,-1.9609999656677248,-9.46399974822998,-0.3149999976158142
1622105385558,10.149999618530272,76.7779998779297,3.1600000858306885,-2.0399999618530273,-9.586999893188477,-0.2960000038146972
1622105385568,11.899999618530272,81.87100219726562,3.7030000686645503,-2.0399999618530273,-9.793999671936035,-0.2529999911785125
1622105385578,12.600000381469728,87.15499877929688,4.7769999504089355,-2.0399999618530273,-9.954999923706056,-0.2419999986886978
1622105385588,12.739999771118164,91.66400146484376,5.002999782562256,-1.9609999656677248,-10.00100040435791,-0.209999993443489
1622105385598,12.670000076293944,95.69400024414062,3.509999990463257,-1.9220000505447388,-10.04599952697754,-0.1780000030994415
1622105385608,13.090000152587892,98.3740005493164,1.2109999656677246,-1.7649999856948853,-10.123000144958496,-0.19200000166893
1622105385618,13.369999885559082,100.47799682617188,-1.0479999780654907,-1.687000036239624,-10.168999671936035,-0.1599999964237213
1622105385628,13.510000228881836,102.15299987792967,-1.6770000457763672,-1.6080000400543213,-10.30500030517578,-0.0640000030398368
1622105385638,13.93000030517578,102.92299652099608,-4.0289998054504395,-1.5299999713897705,-10.37600040435791,-0.1169999986886978
1622105385648,13.649999618530272,103.25499725341795,-6.315999984741211,-1.4509999752044678,-10.460000038146973,-0.0920000001788139
1622105385658,12.670000076293944,102.43199920654295,-9.303999900817873,-1.3730000257492063,-10.529999732971191,-0.1439999938011169
1622105385668,11.550000190734863,101.08499908447266,-11.744999885559082,-1.215999960899353,-10.529999732971191,-0.1439999938011169
1622105385678,10.220000267028809,99.36100006103516,-14.465999603271484,-1.1380000114440918,-10.446000099182127,-0.1689999997615814
1622105385688,9.59000015258789,98.14450073242188,-15.427000045776367,-0.981000006198883,-10.369000434875488,-0.1550000011920929
1622105385698,8.960000038146973,96.9280014038086,-16.38800048828125,-0.8629999756813049,-10.284999847412108,-0.1800000071525573
1622105385708,7.420000076293945,94.9980010986328,-17.93600082397461,-0.7850000262260437,-10.201000213623049,-0.2049999982118606
1622105385718,6.650000095367432,93.21299743652344,-19.104000091552734,-0.6669999957084655,-10.154999732971191,-0.2370000034570694
1622105385728,5.809999942779541,90.52899932861328,-20.003999710083008,-0.5879999995231628,-10.102999687194824,-0.3079999983310699
1622105385738,5.110000133514404,88.48899841308594,-20.93199920654297,-0.4309999942779541,-10.057000160217283,-0.3389999866485595
1622105385748,4.409999847412109,85.64700317382812,-20.93600082397461,-0.3140000104904174,-10.019000053405762,-0.3330000042915344
1622105385758,3.990000009536743,82.33799743652344,-21.518999099731445,-0.1959999948740005,-9.895999908447264,-0.3510000109672546
1622105385768,3.0799999237060547,79.2760009765625,-21.489999771118164,-0.0780000016093254,-9.812000274658203,-0.3759999871253967
1622105385778,2.0999999046325684,76.3239974975586,-20.874000549316406,0.0390000008046627,-9.70300006866455,-0.31700000166893
1622105385788,1.0499999523162842,73.3280029296875,-19.197999954223633,0.1180000007152557,-9.675999641418455,-0.4709999859333038
1622105385798,-0.3499999940395355,70.2300033569336,-16.54599952697754,0.1570000052452087,-9.623000144958496,-0.5419999957084655
1622105385808,-1.6100000143051147,67.06800079345703,-14.33199977874756,0.1570000052452087,-9.647999763488768,-0.6259999871253967
1622105385818,-2.7300000190734863,64.01899719238281,-11.954999923706056,0.1180000007152557,-9.68000030517578,-0.6710000038146972
1622105385828,-3.9200000762939458,60.99800109863281,-10.142000198364258,0.1570000052452087,-9.621000289916992,-0.7799999713897705
1622105385838,-4.690000057220459,57.94499969482422,-8.54800033569336,0.1570000052452087,-9.61400032043457,-0.8190000057220459
1622105385848,-4.96999979019165,54.98500061035156,-7.079999923706055,0.1180000007152557,-9.61400032043457,-0.8190000057220459
1622105385858,-5.460000038146973,52.145999908447266,-6.301000118255615,0.1570000052452087,-9.607999801635742,-0.8579999804496765
1622105385868,-5.739999771118164,50.82849884033203,-6.2845001220703125,0.1180000007152557,-9.607999801635742,-0.8579999804496765
1622105385878,-6.019999980926514,49.51100158691406,-6.26800012588501,0.1180000007152557,-9.60099983215332,-0.8960000276565551
1622105385888,-6.369999885559082,46.25899887084961,-5.561999797821045,0.1570000052452087,-9.633000373840332,-0.9419999718666076
1622105385898,-6.369999885559082,43.577999114990234,-4.4710001945495605,0.0390000008046627,-9.663999557495115,-0.9869999885559082
1622105385908,-6.159999847412109,40.229000091552734,-3.2130000591278076,0.0390000008046627,-9.717000007629396,-0.9169999957084656
1622105385918,-6.300000190734863,37.277000427246094,-2.5959999561309814,-0.0390000008046627,-9.748000144958496,-0.962000012397766
1622105385928,-6.230000019073486,34.38600158691406,-2.3239998817443848,-0.1180000007152557,-9.786999702453612,-0.968999981880188
1622105385938,-7.0,31.07699966430664,-1.6990000009536743,-0.2349999994039535,-9.786999702453612,-0.968999981880188
1622105385948,-7.559999942779541,28.474000930786133,-1.4479999542236328,-0.3529999852180481,-9.779999732971191,-1.0080000162124634
1622105385958,-7.699999809265136,26.16699981689453,-2.068000078201294,-0.3919999897480011,-9.779999732971191,-1.0080000162124634
1622105385968,-7.769999980926514,24.55299949645996,-2.9920001029968266,-0.4709999859333038,-9.779999732971191,-1.0080000162124634
1622105385978,-7.769999980926514,23.113000869750977,-2.890000104904175,-0.5490000247955322,-9.748000144958496,-0.962000012397766
1622105385988,-7.489999771118165,22.013999938964844,-3.510999917984009,-0.5879999995231628,-9.710000038146973,-0.9549999833106994
1622105385998,-7.420000076293945,20.481000900268555,-3.2829999923706055,-0.5879999995231628,-9.633000373840332,-0.9419999718666076
1622105386008,-6.579999923706055,19.187999725341797,-2.8010001182556152,-0.6280000209808348,-9.62600040435791,-0.9800000190734864
1622105386018,-6.300000190734863,17.934999465942383,-1.7419999837875366,-0.6669999957084655,-9.579999923706056,-1.0119999647140503
1622105386028,-6.300000190734863,16.77899932861328,-1.2350000143051147,-0.7059999704360961,-9.579999923706056,-1.0119999647140503
1622105386038,-5.880000114440918,15.428999900817873,-0.8330000042915344,-0.7850000262260437,-9.619000434875488,-1.0190000534057615
1622105386048,-5.389999866485596,14.114999771118164,-0.6389999985694885,-0.8240000009536743,-9.651000022888184,-1.0640000104904177
1622105386058,-5.110000133514404,12.866000175476074,-0.006000000052154,-0.9020000100135804,-9.612000465393066,-1.0579999685287476
1622105386068,-5.074999809265137,12.485000610351564,0.1400000005960464,-0.9409999847412108,-9.579999923706056,-1.0119999647140503
1622105386078,-5.039999961853027,12.104000091552734,0.2860000133514404,-0.9020000100135804,-9.54800033569336,-0.9670000076293944
1622105386088,-4.690000057220459,11.442999839782717,-0.3989999890327453,-0.981000006198883,-9.470999717712402,-0.953000009059906
1622105386098,-4.550000190734863,10.519000053405762,0.0070000002160668,-0.981000006198883,-9.43299961090088,-0.9459999799728392
1622105386108,-4.130000114440918,9.878000259399414,0.8180000185966491,-0.981000006198883,-9.425999641418455,-0.9850000143051147
1622105386118,-3.7799999713897705,8.743000030517578,1.6130000352859497,-1.0980000495910645,-9.53499984741211,-1.0440000295639038
1622105386128,-3.7799999713897705,7.6479997634887695,1.774999976158142,-1.1770000457763672,-9.572999954223633,-1.0509999990463257
1622105386138,-3.849999904632568,7.275000095367432,2.2780001163482666,-1.2940000295639038,-9.527999877929688,-1.0829999446868896
1622105386148,-4.059999942779541,7.27899980545044,3.061000108718872,-1.3339999914169312,-9.604999542236328,-1.0959999561309814
1622105386158,-4.199999809265137,7.177999973297119,2.8289999961853027,-1.4509999752044678,-9.56700038909912,-1.0889999866485596
1622105386168,-3.990000009536743,7.960000038146973,2.825000047683716,-1.4119999408721924,-9.53499984741211,-1.0440000295639038
1622105386178,-3.849999904632568,8.366000175476074,3.75,-1.3730000257492063,-9.520999908447264,-1.1210000514984133
1622105386188,-3.6400001049041744,8.357999801635742,4.60099983215332,-1.4119999408721924,-9.53499984741211,-1.0440000295639038
1622105386198,-3.569999933242798,8.418999671936035,5.465000152587891,-1.4509999752044678,-9.541999816894531,-1.0049999952316284
1622105386208,-3.0799999237060547,8.119000434875488,6.763000011444092,-1.491000056266785,-9.510000228881836,-0.9599999785423278
1622105386218,-2.0299999713897705,8.27299976348877,7.500999927520752,-1.569000005722046,-9.46399974822998,-0.9919999837875366
1622105386228,-1.399999976158142,8.196000099182129,7.131999969482422,-1.5299999713897705,-9.541999816894531,-1.0049999952316284
1622105386238,-0.8399999737739563,8.699000358581543,6.296000003814697,-1.569000005722046,-9.651000022888184,-1.0640000104904177
1622105386248,-0.5600000023841857,8.772000312805176,5.882999897003174,-1.6480000019073486,-9.689000129699709,-1.0709999799728394
1622105386258,-0.1400000005960464,8.159000396728516,4.921999931335449,-1.687000036239624,-9.734999656677246,-1.0390000343322754
1622105386268,-0.2800000011920929,8.178999900817871,2.7929999828338623,-1.72599995136261,-9.741999626159668,-1.0010000467300415
1622105386278,0.4900000095367431,7.794000148773193,0.9480000138282776,-1.72599995136261,-9.579999923706056,-1.0119999647140503
1622105386288,0.9800000190734864,7.177000045776367,-0.7960000038146972,-1.7649999856948853,-9.439000129699709,-0.9079999923706054
1622105386298,1.2599999904632568,7.069499969482422,-1.596500039100647,-1.687000036239624,-9.354999542236328,-0.9330000281333924
1622105386308,1.5399999618530271,6.961999893188477,-2.3970000743865967,-1.687000036239624,-9.517000198364256,-0.9210000038146972
1622105386318,2.869999885559082,7.059000015258789,-4.1570000648498535,-1.687000036239624,-9.562000274658203,-0.8889999985694885
1622105386328,3.849999904632568,7.455999851226807,-4.797999858856201,-1.6480000019073486,-9.638999938964846,-0.902999997138977
1622105386338,4.550000190734863,7.663000106811523,-5.96999979019165,-1.6080000400543213,-9.60099983215332,-0.8960000276565551
1622105386348,4.829999923706055,8.161999702453613,-7.5879998207092285,-1.569000005722046,-9.666999816894531,-0.7490000128746032
1622105386358,5.460000038146973,8.817999839782715,-8.894000053405762,-1.5299999713897705,-9.536999702453612,-0.8050000071525573
1622105386368,5.809999942779541,8.802000045776367,-9.607999801635742,-1.4509999752044678,-9.383000373840332,-0.777999997138977
1622105386378,6.71999979019165,9.434000015258787,-10.774999618530272,-1.3339999914169312,-9.383000373840332,-0.777999997138977
1622105386388,7.769999980926514,10.354999542236328,-11.96399974822998,-1.215999960899353,-9.498000144958496,-0.7990000247955322
1622105386398,8.260000228881836,10.565999984741213,-12.352999687194824,-1.0980000495910645,-9.628000259399414,-0.7419999837875366
1622105386408,8.539999961853027,11.194000244140623,-11.88700008392334,-1.0590000152587893,-9.633000373840332,-0.9419999718666076
1622105386418,8.329999923706055,10.866000175476074,-11.234000205993652,-0.9409999847412108,-9.762000083923342,-0.8849999904632568
1622105386428,7.769999980926514,9.625,-11.453000068664553,-0.8240000009536743,-9.776000022888184,-0.8080000281333923
1622105386438,7.280000209808349,8.598999977111816,-11.277999877929688,-0.7450000047683715,-9.852999687194824,-0.8209999799728394
1622105386448,6.090000152587891,7.7150001525878915,-10.296999931335447,-0.7450000047683715,-9.916999816894531,-0.9120000004768372
1622105386458,4.409999847412109,6.303999900817871,-8.342000007629395,-0.7059999704360961,-9.954999923706056,-0.9190000295639038
1622105386468,3.2200000286102295,5.125,-6.488999843597412,-0.7450000047683715,-9.994000434875488,-0.9259999990463256
1622105386478,1.8899999856948853,3.684999942779541,-5.178999900817871,-0.7450000047683715,-9.90999984741211,-0.9509999752044676
1622105386487,0.2800000011920929,2.822000026702881,-3.9089999198913574,-0.7059999704360961,-9.793999671936035,-0.9300000071525572
1622105386497,-1.399999976158142,2.055000066757202,-3.191999912261963,-0.7059999704360961,-9.717000007629396,-0.9169999957084656
1622105386507,-2.940000057220459,1.5529999732971191,-2.3559999465942383,-0.7059999704360961,-9.638999938964846,-0.902999997138977
1622105386517,-4.480000019073486,1.3220000267028809,-1.0460000038146973,-0.7450000047683715,-9.678000450134276,-0.9100000262260436
1622105386527,-6.019999980926514,0.6449999809265136,-0.0280000008642673,-0.7450000047683715,-9.67099952697754,-0.9480000138282776
1622105386537,-7.769999980926514,-0.7300000190734863,1.718999981880188,-0.7450000047683715,-9.54800033569336,-0.9670000076293944
1622105386547,-8.609999656677246,-1.13100004196167,2.18149995803833,-0.7850000262260437,-9.53499984741211,-1.0440000295639038
1622105386557,-9.449999809265137,-1.531999945640564,2.6440000534057617,-0.8629999756813049,-9.520999908447264,-1.1210000514984133
1622105386567,-11.0600004196167,-2.5220000743865967,3.8199999332427974,-0.9409999847412108,-9.444000244140623,-1.1080000400543213
1622105386577,-12.109999656677246,-3.003999948501587,4.942999839782715,-1.0590000152587893,-9.43000030517578,-1.184999942779541
1622105386587,-12.949999809265137,-3.3570001125335693,5.734000205993652,-1.0199999809265137,-9.392000198364256,-1.1779999732971191
1622105386597,-13.369999885559082,-3.5309998989105225,5.916999816894531,-1.0199999809265137,-9.345999717712402,-1.2100000381469729
1622105386607,-13.720000267028809,-3.2799999713897705,6.103000164031982,-1.0199999809265137,-9.30799961090088,-1.2029999494552612
1622105386617,-14.06999969482422,-2.752000093460083,6.3379998207092285,-1.0590000152587893,-9.314000129699709,-1.1640000343322754
1622105386627,-14.350000381469728,-1.7960000038146973,6.1519999504089355,-1.0199999809265137,-9.352999687194824,-1.1710000038146973
1622105386637,-14.0,-0.7940000295639038,6.114999771118164,-0.981000006198883,-9.423999786376951,-1.2230000495910645
1622105386647,-13.649999618530272,-0.2630000114440918,5.923999786376953,-1.0199999809265137,-9.423999786376951,-1.2230000495910645
1622105386657,-13.369999885559082,0.1469999998807907,6.422999858856201,-1.0199999809265137,-9.423999786376951,-1.2230000495910645
1622105386667,-13.090000152587892,0.163000002503395,7.13700008392334,-1.0199999809265137,-9.378000259399414,-1.2549999952316284
1622105386677,-12.18000030517578,0.6980000138282775,6.519999980926514,-0.981000006198883,-9.378000259399414,-1.2549999952316284
1622105386687,-10.850000381469728,0.8690000176429749,5.554999828338623,-1.0199999809265137,-9.345999717712402,-1.2100000381469729
1622105386697,-9.59000015258789,1.5130000114440918,4.317999839782715,-0.981000006198883,-9.33899974822998,-1.2480000257492063
1622105386707,-7.980000019073486,2.2019999027252197,3.2320001125335693,-0.981000006198883,-9.326000213623049,-1.3259999752044678
1622105386717,-5.739999771118164,3.191999912261963,2.055000066757202,-0.981000006198883,-9.378000259399414,-1.2549999952316284
1622105386727,-3.7799999713897705,3.9779999256134033,0.4169999957084655,-1.0590000152587893,-9.43000030517578,-1.184999942779541
1622105386737,-2.0999999046325684,4.671000003814697,-1.0950000286102295,-1.0590000152587893,-9.437000274658203,-1.1460000276565552
1622105386747,-0.7699999809265136,5.385000228881836,-2.319999933242798,-0.9409999847412108,-9.43000030517578,-1.184999942779541
1622105386757,0.209999993443489,5.769999980926514,-2.8919999599456787,-0.8629999756813049,-9.392000198364256,-1.1779999732971191
1622105386767,1.4700000286102295,6.14300012588501,-3.3949999809265137,-0.7850000262260437,-9.392000198364256,-1.1779999732971191
1622105386777,2.7300000190734863,5.940000057220459,-3.85700011253357,-0.7850000262260437,-9.468999862670898,-1.1920000314712524
1622105386787,3.6400001049041744,5.704999923706055,-3.3299999237060547,-0.7850000262260437,-9.54599952697754,-1.2050000429153442
1622105386797,4.304999828338623,5.921999931335449,-3.149499893188477,-0.8240000009536743,-9.62399959564209,-1.218999981880188
1622105386807,4.96999979019165,6.138999938964844,-2.9690001010894775,-0.8629999756813049,-9.694000244140623,-1.2710000276565552
1622105386817,5.739999771118164,6.349999904632568,-3.3580000400543213,-0.8629999756813049,-9.770999908447264,-1.2849999666213987
1622105386827,6.230000019073486,6.835999965667725,-3.6989998817443848,-0.8629999756813049,-9.8100004196167,-1.2920000553131104
1622105386837,6.510000228881836,7.91099977493286,-4.14900016784668,-0.9020000100135804,-9.8100004196167,-1.2920000553131104
1622105386847,6.579999923706055,8.920000076293945,-5.038000106811523,-0.9020000100135804,-9.763999938964846,-1.3229999542236328
1622105386857,6.650000095367432,10.253999710083008,-6.1529998779296875,-0.981000006198883,-9.81700038909912,-1.253000020980835
1622105386867,6.230000019073486,11.291999816894531,-6.395999908447266,-0.981000006198883,-9.8100004196167,-1.2920000553131104
1622105386877,6.159999847412109,12.711000442504885,-6.785999774932861,-0.9409999847412108,-9.835000038146973,-1.3760000467300415
1622105386887,6.300000190734863,13.814000129699709,-6.591000080108643,-0.9409999847412108,-9.918999671936035,-1.35099995136261
1622105386897,5.809999942779541,14.857000350952148,-6.052000045776367,-0.981000006198883,-9.918999671936035,-1.35099995136261
1622105386907,5.670000076293945,15.838000297546388,-5.168000221252441,-0.981000006198883,-9.918999671936035,-1.35099995136261
1622105386917,5.739999771118164,16.80299949645996,-4.998000144958496,-0.9409999847412108,-9.880000114440918,-1.343999981880188
1622105386927,6.369999885559082,17.610000610351562,-5.139999866485596,-0.9409999847412108,-9.8100004196167,-1.2920000553131104
1622105386937,6.650000095367432,18.61599922180176,-5.603000164031982,-0.9409999847412108,-9.732999801635742,-1.2779999971389773
1622105386947,7.139999866485596,19.804000854492188,-5.890999794006348,-1.0199999809265137,-9.694000244140623,-1.2710000276565552
1622105386957,7.699999809265136,20.94700050354004,-6.328999996185303,-1.0590000152587893,-9.654999732971191,-1.2640000581741333
1622105386967,8.470000267028809,22.975000381469727,-6.539999961853027,-1.1380000114440918,-9.57800006866455,-1.2510000467300415
1622105386977,8.75,24.179000854492188,-6.113999843597412,-1.1770000457763672,-9.50100040435791,-1.2369999885559082
1622105386987,8.890000343322754,26.20299911499023,-5.900000095367432,-1.1770000457763672,-9.47599983215332,-1.1529999971389773
1622105386997,9.170000076293944,28.468999862670895,-5.855000019073486,-1.2549999952316284,-9.392000198364256,-1.1779999732971191
1622105387007,9.380000114440918,30.82900047302246,-5.936999797821045,-1.215999960899353,-9.437000274658203,-1.1460000276565552
1622105387017,9.380000114440918,33.56999969482422,-6.164000034332275,-1.215999960899353,-9.423999786376951,-1.2230000495910645
1622105387027,9.65999984741211,36.85499954223633,-6.651000022888184,-1.2940000295639038,-9.378000259399414,-1.2549999952316284
1622105387037,10.220000267028809,40.25699996948242,-7.401999950408936,-1.2940000295639038,-9.416999816894531,-1.2619999647140503
1622105387047,10.710000038146973,44.07699966430664,-7.296999931335449,-1.215999960899353,-9.454999923706056,-1.2690000534057615
1622105387057,10.954999923706056,45.69100189208984,-6.9770002365112305,-1.1380000114440918,-9.50100040435791,-1.2369999885559082
1622105387067,11.199999809265137,47.30500030517578,-6.6570000648498535,-1.0980000495910645,-9.461999893188477,-1.2300000190734863
1622105387077,11.760000228881836,49.91999816894531,-5.769000053405762,-1.0199999809265137,-9.461999893188477,-1.2300000190734863
1622105387087,12.18000030517578,51.733001708984375,-5.164999961853027,-0.9409999847412108,-9.461999893188477,-1.2300000190734863
1622105387097,12.8100004196167,53.82500076293945,-4.938000202178955,-0.8240000009536743,-9.468999862670898,-1.1920000314712524
1622105387107,13.4399995803833,55.33000183105469,-4.6020002365112305,-0.6669999957084655,-9.43000030517578,-1.184999942779541
1622105387117,14.140000343322754,55.4109992980957,-3.450000047683716,-0.5879999995231628,-9.47599983215332,-1.1529999971389773
1622105387127,14.489999771118164,55.26499938964844,-2.622999906539917,-0.5099999904632568,-9.630000114440918,-1.1799999475479126
1622105387137,14.06999969482422,54.26399993896485,-1.378000020980835,-0.4309999942779541,-9.80500030517578,-1.0920000076293943
1622105387147,13.229999542236328,52.53200149536133,0.3779999911785125,-0.3919999897480011,-9.946000099182127,-1.1959999799728394
1622105387157,11.199999809265137,50.5620002746582,1.8789999485015867,-0.3919999897480011,-10.050999641418455,-1.0549999475479126
1622105387167,8.539999961853027,48.23400115966797,2.178999900817871,-0.2750000059604644,-10.02299976348877,-1.2100000381469729
1622105387177,5.809999942779541,45.35100173950195,2.808000087738037,-0.1959999948740005,-9.92099952697754,-1.1119999885559082
1622105387187,3.5,42.82500076293945,3.428999900817871,-0.1959999948740005,-9.767000198364256,-1.0850000381469729
1622105387197,1.8899999856948853,39.63399887084961,3.7899999618530273,-0.1570000052452087,-9.619000434875488,-1.0190000534057615
1622105387207,1.3300000429153442,36.292999267578125,4.196000099182129,-0.1570000052452087,-9.517000198364256,-0.9210000038146972
1622105387217,1.4700000286102295,32.75699996948242,4.495999813079834,-0.1959999948740005,-9.517000198364256,-0.9210000038146972
1622105387227,2.7300000190734863,29.496999740600582,4.8460001945495605,-0.2349999994039535,-9.60099983215332,-0.8960000276565551
1622105387237,3.9200000762939458,26.531999588012695,4.322999954223633,-0.3140000104904174,-9.638999938964846,-0.902999997138977
1622105387247,4.480000019073486,23.714000701904297,2.9730000495910645,-0.3140000104904174,-9.710000038146973,-0.9549999833106994
1622105387257,5.25,21.263999938964844,0.3379999995231628,-0.3919999897480011,-9.755000114440918,-0.9229999780654908
1622105387267,5.809999942779541,19.049999237060547,-2.825000047683716,-0.4709999859333038,-9.755000114440918,-0.9229999780654908
1622105387277,6.019999980926514,17.302000045776367,-5.4079999923706055,-0.4709999859333038,-9.710000038146973,-0.9549999833106994
1622105387287,6.650000095367432,16.05699920654297,-7.618000030517577,-0.4709999859333038,-9.748000144958496,-0.962000012397766
1622105387297,6.789999961853027,15.484999656677246,-9.211000442504885,-0.5490000247955322,-9.70300006866455,-0.9940000176429749
1622105387307,6.720000267028809,15.314499855041504,-10.058500289916992,-0.5490000247955322,-9.70300006866455,-0.9940000176429749
1622105387317,6.650000095367432,15.144000053405762,-10.906000137329102,-0.5490000247955322,-9.748000144958496,-0.962000012397766
1622105387327,6.650000095367432,14.949000358581545,-12.220000267028809,-0.5099999904632568,-9.779999732971191,-1.0080000162124634
1622105387337,6.579999923706055,14.767000198364258,-12.394000053405762,-0.5099999904632568,-9.767000198364256,-1.0850000381469729
1622105387347,6.159999847412109,13.623000144958496,-11.956000328063965,-0.5099999904632568,-9.767000198364256,-1.0850000381469729
1622105387357,5.809999942779541,12.381999969482422,-10.965999603271484,-0.5099999904632568,-9.651000022888184,-1.0640000104904177
1622105387367,5.599999904632568,11.19499969482422,-9.470000267028809,-0.5490000247955322,-9.651000022888184,-1.0640000104904177
1622105387377,5.670000076293945,9.508000373840332,-7.564000129699707,-0.5879999995231628,-9.696000099182127,-1.0329999923706057
1622105387387,6.019999980926514,8.234999656677246,-5.585000038146973,-0.7059999704360961,-9.734999656677246,-1.0390000343322754
1622105387397,5.670000076293945,6.811999797821045,-4.769999980926514,-0.7850000262260437,-9.734999656677246,-1.0390000343322754
1622105387407,5.599999904632568,6.130000114440918,-5.743000030517578,-0.8629999756813049,-9.741999626159668,-1.0010000467300415
1622105387417,5.389999866485596,5.4120001792907715,-7.717000007629395,-1.0199999809265137,-9.741999626159668,-1.0010000467300415
1622105387427,4.96999979019165,5.0229997634887695,-10.345000267028809,-1.1380000114440918,-9.779999732971191,-1.0080000162124634
1622105387437,4.340000152587891,5.565999984741211,-11.812999725341797,-1.215999960899353,-9.85099983215332,-1.059999942779541
1622105387447,3.569999933242798,6.193999767303467,-12.55500030517578,-1.2940000295639038,-9.85099983215332,-1.059999942779541
1622105387457,3.1500000953674316,7.000999927520752,-11.48900032043457,-1.3730000257492063,-9.946000099182127,-1.1959999799728394
1622105387467,2.869999885559082,7.82100009918213,-9.282999992370604,-1.2940000295639038,-10.05500030517578,-1.2549999952316284
1622105387477,2.0999999046325684,8.486000061035156,-6.60699987411499,-1.3339999914169312,-10.062000274658203,-1.2170000076293943
1622105387487,2.1700000762939453,8.758000373840332,-3.7160000801086426,-1.3339999914169312,-9.991999626159668,-1.1640000343322754
1622105387497,3.569999933242798,9.107000350952148,-2.871999979019165,-1.3730000257492063,-9.895999908447264,-1.0279999971389773
1622105387507,5.320000171661377,9.520999908447264,-4.007999897003174,-1.4119999408721924,-9.871000289916992,-0.944000005722046
1622105387517,6.579999923706055,10.368000030517578,-4.7820000648498535,-1.4509999752044678,-9.90999984741211,-0.9509999752044676
1622105387527,7.8400001525878915,11.782999992370604,-4.745999813079834,-1.4509999752044678,-10.026000022888184,-0.9710000157356262
1622105387537,8.364999771118164,11.805500030517578,-4.066999912261963,-1.4119999408721924,-10.109999656677246,-0.9459999799728392
1622105387547,8.890000343322754,11.828000068664553,-3.388000011444092,-1.4509999752044678,-10.071000099182127,-0.9390000104904174
1622105387557,9.729999542236328,11.439000129699709,-2.390000104904175,-1.4119999408721924,-10.04599952697754,-0.8550000190734863
1622105387567,10.079999923706056,10.611000061035156,-3.7439999580383305,-1.4509999752044678,-9.937000274658203,-0.7960000038146972
1622105387577,10.079999923706056,10.598999977111816,-6.0920000076293945,-1.3339999914169312,-9.79599952697754,-0.6919999718666076
1622105387587,10.43000030517578,10.602999687194824,-8.9350004196167,-1.2549999952316284,-9.609999656677246,-0.6190000176429749
1622105387597,10.920000076293944,10.112000465393066,-10.585000038146973,-1.1380000114440918,-9.468999862670898,-0.5149999856948853
1622105387607,11.970000267028809,9.222999572753906,-11.595000267028809,-1.1770000457763672,-9.359999656677246,-0.4550000131130218
1622105387617,12.670000076293944,8.095999717712402,-12.859999656677246,-1.1770000457763672,-9.288999557495115,-0.402999997138977
1622105387627,13.649999618530272,6.895999908447266,-13.711000442504885,-1.1380000114440918,-9.263999938964846,-0.3190000057220459
1622105387637,14.0,5.703000068664551,-14.204999923706056,-1.1770000457763672,-9.277999877929688,-0.2419999986886978
1622105387647,14.06999969482422,5.063000202178955,-14.602999687194824,-1.1770000457763672,-9.208000183105469,-0.1899999976158142
1622105387657,13.93000030517578,4.7789998054504395,-15.008000373840332,-1.1380000114440918,-9.161999702453612,-0.221000000834465
1622105387667,13.300000190734863,3.88700008392334,-15.592000007629396,-1.1380000114440918,-9.208000183105469,-0.1899999976158142
1622105387677,12.18000030517578,3.4609999656677246,-15.595999717712402,-1.0980000495910645,-9.253000259399414,-0.1580000072717666
1622105387687,11.130000114440918,2.937999963760376,-15.04800033569336,-1.1380000114440918,-9.329999923706056,-0.1710000038146972
1622105387697,10.289999961853027,2.7960000038146973,-14.647000312805176,-1.1380000114440918,-9.37600040435791,-0.1400000005960464
1622105387707,9.100000381469728,2.427000045776367,-14.56999969482422,-1.1380000114440918,-9.38199996948242,-0.101000003516674
1622105387717,7.699999809265136,2.986000061035156,-15.324000358581545,-1.1380000114440918,-9.336999893188477,-0.1330000013113021
1622105387727,6.789999961853027,3.0959999561309814,-15.94499969482422,-1.0980000495910645,-9.30500030517578,-0.0869999974966049
1622105387737,6.230000019073486,3.124000072479248,-16.507999420166016,-1.0590000152587893,-9.234999656677246,-0.0350000001490116
1622105387747,5.739999771118164,3.0789999961853027,-16.658000946044922,-1.0199999809265137,-9.227999687194824,-0.0740000009536743
1622105387757,5.774999618530273,2.878499984741211,-16.125,-1.0199999809265137,-9.241999626159668,0.0040000001899898
1622105387767,5.809999942779541,2.677999973297119,-15.592000007629396,-0.981000006198883,-9.272999763488768,-0.0419999994337558
1622105387777,6.230000019073486,2.2690000534057617,-14.881999969482422,-0.9409999847412108,-9.4350004196167,-0.0299999993294477
1622105387787,5.949999809265137,1.218999981880188,-13.361000061035156,-0.9020000100135804,-9.479999542236328,0.0010000000474974
1622105387797,5.880000114440918,0.0469999983906745,-12.359999656677246,-0.8629999756813049,-9.526000022888184,0.032999999821186
1622105387807,5.179999828338623,-1.3070000410079956,-11.531999588012695,-0.8240000009536743,-9.609999656677246,0.0579999983310699
1622105387817,4.340000152587891,-2.739000082015991,-11.074000358581545,-0.8240000009536743,-9.732000350952148,0.0759999975562095
1622105387827,3.849999904632568,-4.604000091552734,-10.97599983215332,-0.7850000262260437,-9.815999984741213,0.101000003516674
1622105387837,2.5899999141693115,-6.752999782562256,-10.076000213623049,-0.7450000047683715,-9.932000160217283,0.0810000002384185
1622105387847,0.7699999809265136,-9.258999824523924,-9.166999816894531,-0.7059999704360961,-10.12600040435791,0.0469999983906745
1622105387857,-1.6100000143051147,-11.720000267028809,-8.107999801635742,-0.5879999995231628,-10.345999717712402,0.1669999957084655
1622105387867,-4.550000190734863,-15.628999710083008,-7.304999828338623,-0.5099999904632568,-10.42300033569336,0.1539999991655349
1622105387877,-8.1899995803833,-20.35300064086914,-6.716000080108643,-0.4709999859333038,-10.378000259399414,0.1220000013709068
1622105387887,-11.340000152587892,-25.020000457763672,-6.046999931335449,-0.5099999904632568,-10.371000289916992,0.0829999968409538
1622105387897,-13.859999656677246,-29.53700065612793,-5.421000003814697,-0.5490000247955322,-10.33199977874756,0.0900000035762786
1622105387907,-16.170000076293945,-33.66899871826172,-4.159999847412109,-0.5490000247955322,-10.26200008392334,0.1420000046491622
1622105387917,-17.709999084472656,-37.428001403808594,-3.4010000228881836,-0.6669999957084655,-10.152999877929688,0.2010000050067901
1622105387927,-18.1299991607666,-40.071998596191406,-3.724999904632568,-0.7850000262260437,-10.069000244140623,0.1759999990463256
1622105387937,-17.850000381469727,-42.05099868774414,-3.7899999618530273,-0.8629999756813049,-10.029999732971191,0.1829999983310699
1622105387947,-17.079999923706055,-43.547000885009766,-3.7690000534057617,-0.981000006198883,-9.95300006866455,0.1969999969005584
1622105387957,-15.81999969482422,-44.87699890136719,-4.288000106811523,-1.0590000152587893,-9.869000434875488,0.1720000058412551
1622105387967,-15.225000381469728,-45.053497314453125,-4.496999740600586,-1.1770000457763672,-9.822999954223633,0.1400000005960464
1622105387977,-14.630000114440918,-45.22999954223633,-4.705999851226807,-1.215999960899353,-9.829999923706056,0.1790000051259994
1622105387987,-13.720000267028809,-45.34000015258789,-5.294000148773193,-1.2940000295639038,-9.836999893188477,0.2169999927282333
1622105387997,-13.300000190734863,-44.88600158691406,-5.853000164031982,-1.4119999408721924,-9.791000366210936,0.1850000023841857
1622105388007,-13.090000152587892,-44.32600021362305,-6.607999801635742,-1.4119999408721924,-9.760000228881836,0.231000006198883
1622105388017,-12.8100004196167,-43.479000091552734,-7.381999969482423,-1.3339999914169312,-9.772999763488768,0.3079999983310699
1622105388027,-13.090000152587892,-42.887001037597656,-7.916999816894531,-1.3730000257492063,-9.79800033569336,0.2240000069141387
1622105388037,-13.579999923706056,-42.25,-7.093999862670898,-1.3730000257492063,-9.843999862670898,0.2560000121593475
1622105388047,-13.859999656677246,-41.87699890136719,-6.388999938964844,-1.4119999408721924,-9.829999923706056,0.1790000051259994
1622105388057,-13.579999923706056,-41.492000579833984,-6.960999965667725,-1.4509999752044678,-9.753000259399414,0.19200000166893
1622105388067,-13.579999923706056,-41.020999908447266,-8.015000343322754,-1.491000056266785,-9.630000114440918,0.1739999949932098
1622105388077,-13.369999885559082,-40.250999450683594,-9.159000396728516,-1.491000056266785,-9.585000038146973,0.1420000046491622
1622105388086,-13.090000152587892,-39.11600112915039,-9.95400047302246,-1.4509999752044678,-9.585000038146973,0.1420000046491622
1622105388096,-13.159999847412108,-38.2760009765625,-9.876999855041506,-1.4509999752044678,-9.654999732971191,0.0900000035762786
1622105388106,-13.090000152587892,-38.16299819946289,-9.71399974822998,-1.4119999408721924,-9.694000244140623,0.0829999968409538
1622105388116,-13.300000190734863,-38.11800003051758,-9.564000129699709,-1.4119999408721924,-9.654999732971191,0.0900000035762786
1622105388126,-13.229999542236328,-38.06100082397461,-9.482999801635742,-1.3730000257492063,-9.642000198364256,0.0130000002682209
1622105388136,-13.229999542236328,-37.98899841308594,-9.897000312805178,-1.3730000257492063,-9.68000030517578,0.006000000052154
1622105388146,-12.670000076293944,-38.19100189208984,-10.359000205993652,-1.4119999408721924,-9.68000030517578,0.006000000052154
1622105388156,-12.31999969482422,-38.402000427246094,-11.178000450134276,-1.3730000257492063,-9.642000198364256,0.0130000002682209
1622105388166,-11.760000228881836,-38.569000244140625,-11.847000122070312,-1.3339999914169312,-9.642000198364256,0.0130000002682209
1622105388176,-11.515000343322754,-38.66400146484375,-12.11299991607666,-1.3730000257492063,-9.564000129699709,0.0260000005364418
1622105388186,-11.270000457763672,-38.75899887084961,-12.378999710083008,-1.4119999408721924,-9.526000022888184,0.032999999821186
1622105388196,-11.270000457763672,-38.86100006103515,-12.609999656677246,-1.4119999408721924,-9.44200038909912,0.0080000003799796
1622105388206,-11.0600004196167,-38.79999923706055,-12.95400047302246,-1.3730000257492063,-9.487000465393066,0.0399999991059303
1622105388216,-10.779999732971191,-38.12300109863281,-12.763999938964844,-1.3730000257492063,-9.487000465393066,0.0399999991059303
1622105388226,-9.869999885559082,-37.685001373291016,-11.619999885559082,-1.3339999914169312,-9.531999588012695,0.0719999969005584
1622105388236,-8.75,-37.5629997253418,-11.10099983215332,-1.3339999914169312,-9.531999588012695,0.0719999969005584
1622105388246,-7.630000114440918,-37.57899856567382,-10.607000350952148,-1.3730000257492063,-9.609999656677246,0.0579999983310699
1622105388256,-6.789999961853027,-37.5989990234375,-10.895000457763672,-1.4509999752044678,-9.609999656677246,0.0579999983310699
1622105388266,-6.860000133514404,-36.6510009765625,-11.437999725341797,-1.4509999752044678,-9.647999763488768,0.0509999990463256
1622105388276,-7.070000171661377,-35.819000244140625,-11.718000411987305,-1.491000056266785,-9.602999687194824,0.0199999995529651
1622105388286,-6.71999979019165,-35.05699920654297,-12.010000228881836,-1.4509999752044678,-9.571000099182127,0.0649999976158142
1622105388296,-6.579999923706055,-33.861000061035156,-11.940999984741213,-1.3730000257492063,-9.647999763488768,0.0509999990463256
1622105388306,-6.650000095367432,-33.71500015258789,-11.5600004196167,-1.3339999914169312,-9.75699996948242,-0.0080000003799796
1622105388316,-5.670000076293945,-33.650001525878906,-11.121999740600586,-1.3339999914169312,-9.835000038146973,-0.0209999997168779
1622105388326,-5.389999866485596,-33.74300003051758,-10.996000289916992,-1.3339999914169312,-9.951000213623049,-0.0419999994337558
1622105388336,-5.320000171661377,-34.108001708984375,-10.13700008392334,-1.3339999914169312,-10.027999877929688,-0.0549999997019767
1622105388346,-5.599999904632568,-33.784000396728516,-10.36400032043457,-1.3339999914169312,-10.065999984741213,-0.061999998986721
1622105388356,-5.809999942779541,-33.03300094604492,-10.586999893188477,-1.3339999914169312,-10.027999877929688,-0.0549999997019767
1622105388366,-6.440000057220459,-32.266998291015625,-11.30500030517578,-1.2940000295639038,-9.98900032043457,-0.0489999987185001
1622105388376,-6.440000057220459,-31.459999084472656,-11.446999549865724,-1.2940000295639038,-9.904999732971191,-0.0740000009536743
1622105388386,-6.545000076293945,-31.072999954223633,-11.6274995803833,-1.2549999952316284,-9.904999732971191,-0.0740000009536743
1622105388396,-6.650000095367432,-30.68600082397461,-11.80799961090088,-1.215999960899353,-9.904999732971191,-0.0740000009536743
1622105388406,-6.789999961853027,-30.10199928283691,-11.491999626159668,-1.1770000457763672,-9.82800006866455,-0.0599999986588954
1622105388416,-5.809999942779541,-30.024999618530273,-11.123000144958496,-1.0980000495910645,-9.697999954223633,-0.1169999986886978
1622105388426,-5.110000133514404,-30.121999740600582,-11.779999732971191,-1.0590000152587893,-9.652999877929688,-0.1490000039339065
1622105388436,-5.039999961853027,-30.086000442504883,-11.986000061035156,-1.0980000495910645,-9.65999984741211,-0.1099999994039535
1622105388446,-4.760000228881836,-29.36000061035156,-12.071999549865724,-1.0199999809265137,-9.65999984741211,-0.1099999994039535
1622105388456,-4.829999923706055,-28.454999923706055,-11.557000160217283,-1.0199999809265137,-9.762000083923342,-0.2080000042915344
1622105388466,-4.96999979019165,-28.159000396728516,-11.220000267028809,-1.0590000152587893,-9.89099979400635,-0.1509999930858612
1622105388476,-5.53000020980835,-27.770000457763672,-11.008999824523926,-1.0590000152587893,-9.89099979400635,-0.1509999930858612
1622105388486,-5.25,-27.41699981689453,-10.592000007629396,-1.0199999809265137,-9.852999687194824,-0.1439999938011169
1622105388496,-5.599999904632568,-27.31999969482422,-9.9350004196167,-1.0199999809265137,-9.852999687194824,-0.1439999938011169
1622105388506,-5.949999809265137,-27.113000869750977,-8.6899995803833,-0.981000006198883,-9.845999717712402,-0.1829999983310699
1622105388516,-6.159999847412109,-26.541000366210938,-8.305000305175781,-1.0199999809265137,-9.83899974822998,-0.221000000834465
1622105388526,-6.440000057220459,-25.933000564575195,-8.126999855041504,-1.0590000152587893,-9.762000083923342,-0.2080000042915344
1622105388536,-6.860000133514404,-25.304000854492188,-7.6599998474121085,-1.0199999809265137,-9.793999671936035,-0.2529999911785125
1622105388546,-7.349999904632568,-24.354999542236328,-6.995999813079834,-1.0199999809265137,-9.717000007629396,-0.2399999946355819
1622105388556,-7.559999942779541,-23.43899917602539,-6.550000190734863,-1.0199999809265137,-9.717000007629396,-0.2399999946355819
1622105388566,-7.9099998474121085,-22.336000442504883,-6.355000019073486,-1.0199999809265137,-9.755000114440918,-0.2460000067949295
1622105388576,-8.260000228881836,-21.28499984741211,-5.459000110626221,-1.0590000152587893,-9.717000007629396,-0.2399999946355819
1622105388586,-8.890000343322754,-20.469999313354492,-5.24399995803833,-1.0590000152587893,-9.67099952697754,-0.2709999978542327
1622105388596,-9.274999618530272,-20.075000762939453,-5.067999839782715,-1.0980000495910645,-9.678000450134276,-0.2329999953508377
1622105388606,-9.65999984741211,-19.68000030517578,-4.892000198364258,-1.0980000495910645,-9.63199996948242,-0.2649999856948852
1622105388616,-10.43000030517578,-19.165000915527344,-4.5879998207092285,-1.0980000495910645,-9.663999557495115,-0.3100000023841857
1622105388626,-11.0600004196167,-18.621000289916992,-3.638999938964844,-1.1380000114440918,-9.651000022888184,-0.3869999945163726
1622105388636,-12.460000038146973,-17.65999984741211,-3.0429999828338623,-1.215999960899353,-9.604999542236328,-0.4189999997615814
1622105388646,-13.510000228881836,-16.922000885009766,-3.197000026702881,-1.2940000295639038,-9.597999572753906,-0.4580000042915344
1622105388656,-14.140000343322754,-15.473999977111816,-2.941999912261963,-1.3339999914169312,-9.592000007629396,-0.4959999918937683
1622105388666,-15.050000190734863,-13.366000175476074,-3.2100000381469727,-1.3339999914169312,-9.54599952697754,-0.527999997138977
1622105388676,-15.399999618530272,-11.812999725341797,-3.1489999294281006,-1.4509999752044678,-9.54599952697754,-0.527999997138977
1622105388686,-15.68000030517578,-9.399999618530272,-2.7239999771118164,-1.491000056266785,-9.57800006866455,-0.5740000009536743
1622105388696,-16.239999771118164,-6.994999885559082,-2.6549999713897705,-1.569000005722046,-9.623000144958496,-0.5419999957084655
1622105388706,-16.65999984741211,-3.8199999332427974,-2.5220000743865967,-1.687000036239624,-9.616999626159668,-0.5799999833106994
1622105388716,-16.59000015258789,-0.0529999993741512,-2.924000024795532,-1.687000036239624,-9.609999656677246,-0.6190000176429749
1622105388726,-16.8700008392334,3.568000078201294,-2.497999906539917,-1.6480000019073486,-9.564000129699709,-0.6510000228881835
1622105388736,-16.729999542236328,6.706999778747559,-2.1579999923706055,-1.569000005722046,-9.479999542236328,-0.6759999990463256
1622105388746,-16.3799991607666,7.842000007629395,-1.7450000047683716,-1.491000056266785,-9.4350004196167,-0.7080000042915344
1622105388756,-15.539999961853027,8.552000045776367,-1.3350000381469729,-1.3730000257492063,-9.428000450134276,-0.7459999918937683
1622105388766,-14.840000152587892,8.782999992370605,-1.437000036239624,-1.3339999914169312,-9.45300006866455,-0.8299999833106994
1622105388776,-14.140000343322754,8.753999710083008,-2.0810000896453857,-1.3339999914169312,-9.446000099182127,-0.8690000176429749
1622105388786,-13.510000228881836,8.807000160217285,-2.7829999923706055,-1.2549999952316284,-9.522999763488768,-0.8830000162124633
1622105388796,-13.159999847412108,8.816999435424805,-3.243000030517578,-1.2549999952316284,-9.562000274658203,-0.8889999985694885
1622105388806,-12.8100004196167,8.82699966430664,-3.7030000686645503,-1.2549999952316284,-9.562000274658203,-0.8889999985694885
1622105388816,-12.390000343322754,8.550999641418457,-4.960000038146973,-1.2549999952316284,-9.517000198364256,-0.9210000038146972
1622105388826,-11.6899995803833,8.607999801635742,-6.0879998207092285,-1.1380000114440918,-9.470999717712402,-0.953000009059906
1622105388836,-10.920000076293944,8.531000137329102,-6.456999778747559,-1.0980000495910645,-9.425999641418455,-0.9850000143051147
1622105388846,-10.079999923706056,7.994999885559082,-7.048999786376953,-1.0590000152587893,-9.39400005340576,-0.9390000104904174
1622105388856,-9.520000457763674,7.447999954223632,-7.572000026702882,-1.0199999809265137,-9.425999641418455,-0.9850000143051147
1622105388866,-8.890000343322754,7.066999912261963,-8.633999824523926,-0.981000006198883,-9.496000289916992,-1.0369999408721924
1622105388876,-8.75,6.2270002365112305,-8.711000442504883,-0.9409999847412108,-9.572999954223633,-1.0509999990463257
1622105388886,-8.609999656677246,5.322999954223633,-8.017000198364258,-0.9409999847412108,-9.56700038909912,-1.0889999866485596
1622105388896,-8.680000305175781,4.484000205993652,-8.093999862670898,-0.8629999756813049,-9.5600004196167,-1.128000020980835
1622105388906,-9.170000076293944,3.38100004196167,-8.288999557495117,-0.8240000009536743,-9.553000450134276,-1.1670000553131104
1622105388916,-10.010000228881836,2.4600000381469727,-8.309000015258789,-0.8240000009536743,-9.54599952697754,-1.2050000429153442
1622105388926,-10.43000030517578,1.8559999465942385,-7.704999923706055,-0.7450000047683715,-9.54599952697754,-1.2050000429153442
1622105388936,-10.920000076293944,0.4690000116825103,-7.0960001945495605,-0.7059999704360961,-9.538999557495115,-1.24399995803833
1622105388946,-11.340000152587892,-0.7710000276565551,-7.315000057220459,-0.6669999957084655,-9.571000099182127,-1.2890000343322754
1622105388956,-11.6899995803833,-1.9639999866485596,-7.809999942779541,-0.6669999957084655,-9.564000129699709,-1.3279999494552612
1622105388966,-12.600000381469728,-3.3910000324249268,-7.776999950408936,-0.5879999995231628,-9.609999656677246,-1.2960000038146973
1622105388976,-13.229999542236328,-4.563000202178955,-7.984000205993653,-0.6280000209808348,-9.609999656677246,-1.2960000038146973
1622105388986,-13.545000076293944,-4.980500221252441,-8.235000610351562,-0.6669999957084655,-9.529999732971191,-1.5210000276565552
1622105388996,-13.859999656677246,-5.3979997634887695,-8.486000061035156,-0.5879999995231628,-9.536999702453612,-1.4830000400543213
1622105389006,-14.279999732971191,-6.73199987411499,-8.579000473022461,-0.5879999995231628,-9.505000114440918,-1.437000036239624
1622105389016,-14.420000076293944,-7.664999961853027,-8.531000137329102,-0.5490000247955322,-9.512000083923342,-1.3980000019073486
1622105389026,-14.350000381469728,-8.942000389099121,-8.543000221252441,-0.5099999904632568,-9.428000450134276,-1.4229999780654907
1622105389036,-13.93000030517578,-10.616999626159668,-7.914000034332275,-0.5099999904632568,-9.383000373840332,-1.4550000429153442
1622105389046,-13.579999923706056,-12.588000297546388,-7.622000217437744,-0.4709999859333038,-9.413999557495115,-1.5010000467300415
1622105389056,-12.880000114440918,-14.906999588012695,-6.964000225067139,-0.4309999942779541,-9.413999557495115,-1.5010000467300415
1622105389066,-11.970000267028809,-17.125,-7.2839999198913565,-0.3919999897480011,-9.446000099182127,-1.5460000038146973
1622105389076,-11.479999542236328,-19.84199905395508,-7.195000171661377,-0.3140000104904174,-9.45300006866455,-1.5080000162124634
1622105389086,-10.710000038146973,-22.753999710083008,-7.210999965667725,-0.3529999852180481,-9.536999702453612,-1.4830000400543213
1622105389096,-10.079999923706056,-25.49099922180176,-7.4089999198913565,-0.3529999852180481,-9.61400032043457,-1.4960000514984133
1622105389106,-9.449999809265137,-28.604999542236328,-6.678999900817871,-0.3919999897480011,-9.69200038909912,-1.5099999904632568
1622105389116,-8.890000343322754,-31.55299949645996,-6.48799991607666,-0.3919999897480011,-9.6850004196167,-1.5479999780654907
1622105389126,-8.819999694824219,-34.27799987792969,-6.755000114440918,-0.5879999995231628,-9.793999671936035,-1.6069999933242798
1622105389136,-9.239999771118164,-36.2400016784668,-7.314000129699707,-0.6280000209808348,-9.916999816894531,-1.5889999866485596
1622105389146,-9.65999984741211,-37.51800155639648,-7.326000213623046,-0.7450000047683715,-9.987000465393066,-1.6419999599456787
1622105389156,-10.010000228881836,-37.631000518798835,-7.487999916076661,-0.8629999756813049,-9.961999893188477,-1.5570000410079956
1622105389166,-9.800000190734863,-37.472999572753906,-8.385000228881836,-0.9409999847412108,-9.93000030517578,-1.5119999647140503
1622105389176,-9.729999542236328,-37.432498931884766,-8.413000106811523,-0.981000006198883,-9.892000198364256,-1.5049999952316284
1622105389186,-9.65999984741211,-37.391998291015625,-8.440999984741211,-1.0199999809265137,-9.788999557495115,-1.406999945640564
1622105389196,-9.65999984741211,-36.42300033569336,-7.488999843597413,-1.0980000495910645,-9.711999893188477,-1.3940000534057615
1622105389206,-9.239999771118164,-35.957000732421875,-6.908999919891357,-1.1380000114440918,-9.711999893188477,-1.3940000534057615
1622105389216,-8.399999618530273,-35.25899887084961,-6.429999828338623,-1.1770000457763672,-9.711999893188477,-1.3940000534057615
1622105389226,-7.210000038146973,-34.00600051879883,-6.281000137329102,-1.1770000457763672,-9.642000198364256,-1.3420000076293943
1622105389236,-6.440000057220459,-32.46099853515625,-6.577000141143799,-1.1770000457763672,-9.595999717712402,-1.3730000257492063
1622105389246,-5.670000076293945,-30.660999298095703,-7.111999988555908,-1.1770000457763672,-9.628000259399414,-1.4190000295639038
1622105389256,-5.179999828338623,-28.608999252319336,-7.460999965667725,-1.1380000114440918,-9.621000289916992,-1.4570000171661377
1622105389266,-4.829999923706055,-27.145000457763672,-7.701000213623046,-1.1380000114440918,-9.58899974822998,-1.4119999408721924
1622105389276,-4.199999809265137,-25.628999710083008,-7.433000087738037,-1.0980000495910645,-9.58899974822998,-1.4119999408721924
1622105389286,-3.7100000381469727,-24.695999145507812,-7.48199987411499,-1.0590000152587893,-9.595999717712402,-1.3730000257492063
1622105389296,-3.359999895095825,-24.143999099731445,-7.385000228881835,-1.0590000152587893,-9.512000083923342,-1.3980000019073486
1622105389306,-3.359999895095825,-23.11000061035156,-7.203000068664551,-1.0980000495910645,-9.512000083923342,-1.3980000019073486
1622105389316,-3.2200000286102295,-22.104999542236328,-7.664999961853027,-1.0980000495910645,-9.479999542236328,-1.3530000448226929
1622105389326,-3.1500000953674316,-21.524999618530273,-8.130999565124512,-1.0590000152587893,-9.388999938964846,-1.4170000553131104
1622105389336,-3.2899999618530273,-20.57200050354004,-9.10099983215332,-1.0590000152587893,-9.395999908447264,-1.378000020980835
1622105389346,-3.009999990463257,-19.45299911499023,-10.609000205993652,-1.0590000152587893,-9.4350004196167,-1.3849999904632568
1622105389356,-2.869999885559082,-18.8125,-11.420000076293944,-1.0590000152587893,-9.550999641418455,-1.4049999713897705
1622105389366,-2.7300000190734863,-18.17200088500977,-12.230999946594238,-1.0980000495910645,-9.55799961090088,-1.3669999837875366
1622105389376,-2.5199999809265137,-17.13800048828125,-13.256999969482422,-1.0980000495910645,-9.550999641418455,-1.4049999713897705
1622105389386,-2.5199999809265137,-16.117000579833984,-14.215000152587892,-1.0980000495910645,-9.583000183105469,-1.4509999752044678
1622105389396,-1.8899999856948853,-15.126999855041504,-15.390999794006348,-1.0590000152587893,-9.635000228881836,-1.3799999952316284
1622105389406,-1.3300000429153442,-14.118000030517578,-16.27899932861328,-1.0199999809265137,-9.642000198364256,-1.3420000076293943
1622105389416,-1.4700000286102295,-13.12399959564209,-16.672000885009766,-1.0199999809265137,-9.673999786376951,-1.3869999647140503
1622105389426,-1.4700000286102295,-11.76200008392334,-17.14299964904785,-1.0199999809265137,-9.788999557495115,-1.406999945640564
1622105389436,-1.399999976158142,-10.666999816894531,-17.30500030517578,-0.981000006198883,-9.937000274658203,-1.4730000495910645
1622105389446,-1.6100000143051147,-9.652999877929688,-17.410999298095703,-0.981000006198883,-10.123000144958496,-1.5460000038146973
1622105389456,-2.0299999713897705,-8.789999961853027,-17.472000122070312,-0.981000006198883,-10.092000007629396,-1.5010000467300415
1622105389466,-2.1700000762939453,-7.788000106811523,-17.507999420166016,-0.9409999847412108,-9.944000244140623,-1.434999942779541
1622105389476,-2.5899999141693115,-7.191999912261963,-18.468999862670895,-0.9020000100135804,-9.704999923706056,-1.4320000410079956
1622105389486,-2.940000057220459,-6.019999980926514,-19.47100067138672,-0.8629999756813049,-9.4350004196167,-1.3849999904632568
1622105389496,-3.2899999618530273,-4.289000034332275,-20.018999099731445,-0.8240000009536743,-9.234999656677246,-1.3890000581741333
1622105389506,-3.0799999237060547,-2.614000082015991,-19.43899917602539,-0.7850000262260437,-9.241999626159668,-1.35099995136261
1622105389516,-2.450000047683716,-1.0279999971389773,-17.951000213623047,-0.7850000262260437,-9.279999732971191,-1.3580000400543213
1622105389526,-1.9600000381469729,-0.1729999929666519,-15.95199966430664,-0.7850000262260437,-9.35099983215332,-1.4099999666213987
1622105389536,-0.8399999737739563,0.3910000026226043,-14.715999603271484,-0.8240000009536743,-9.4350004196167,-1.3849999904632568
1622105389546,-0.6649999618530273,0.7095000147819519,-14.304499626159668,-0.8240000009536743,-9.473999977111816,-1.3919999599456787
1622105389556,-0.4900000095367431,1.0279999971389773,-13.892999649047852,-0.8240000009536743,-9.51900005340576,-1.3600000143051147
1622105389566,0.0,1.6690000295639038,-13.494999885559082,-0.8240000009536743,-9.51900005340576,-1.3600000143051147
1622105389576,0.4900000095367431,2.447000026702881,-13.074000358581545,-0.8629999756813049,-9.51900005340576,-1.3600000143051147
1622105389586,0.9100000262260436,3.2260000705718994,-12.652000427246094,-0.8629999756813049,-9.55799961090088,-1.3669999837875366
1622105389596,1.1200000047683716,4.341000080108643,-12.526000022888184,-0.8629999756813049,-9.595999717712402,-1.3730000257492063
1622105389606,1.190000057220459,5.244999885559082,-12.01200008392334,-0.8240000009536743,-9.595999717712402,-1.3730000257492063
1622105389616,1.6799999475479126,5.801000118255615,-11.131999969482422,-0.8240000009536743,-9.602999687194824,-1.3350000381469729
1622105389626,1.8899999856948853,5.98799991607666,-10.175000190734863,-0.7850000262260437,-9.642000198364256,-1.3420000076293943
1622105389636,2.380000114440918,6.276000022888184,-10.19499969482422,-0.7850000262260437,-9.64900016784668,-1.3029999732971191
1622105389646,3.2200000286102295,6.263999938964844,-10.12600040435791,-0.7850000262260437,-9.64900016784668,-1.3029999732971191
1622105389656,3.5,6.331999778747559,-10.11400032043457,-0.7450000047683715,-9.571000099182127,-1.2890000343322754
1622105389666,3.9200000762939458,6.543000221252441,-10.503000259399414,-0.8240000009536743,-9.57800006866455,-1.2510000467300415
1622105389676,4.690000057220459,6.072999954223633,-10.656999588012695,-0.8240000009536743,-9.526000022888184,-1.3209999799728394
1622105389686,5.179999828338623,5.756999969482422,-11.281999588012695,-0.8240000009536743,-9.454999923706056,-1.2690000534057615
1622105389696,5.53000020980835,5.931000232696533,-11.46399974822998,-0.8240000009536743,-9.416999816894531,-1.2619999647140503
1622105389706,6.369999885559082,6.291999816894531,-11.89799976348877,-0.8240000009536743,-9.392000198364256,-1.1779999732971191
1622105389716,7.070000171661377,6.5879998207092285,-11.562000274658203,-0.9020000100135804,-9.352999687194824,-1.1710000038146973
1622105389725,7.489999771118165,7.046000003814697,-11.33899974822998,-0.9020000100135804,-9.314000129699709,-1.1640000343322754
1622105389735,7.9099998474121085,7.9099998474121085,-11.399999618530272,-0.9409999847412108,-9.276000022888184,-1.1579999923706057
1622105389745,7.9099998474121085,8.227999687194824,-10.988499641418455,-0.9409999847412108,-9.314000129699709,-1.1640000343322754
1622105389755,7.9099998474121085,8.545999526977539,-10.57699966430664,-0.9409999847412108,-9.321000099182127,-1.1260000467300415
1622105389765,7.210000038146973,9.84000015258789,-9.85099983215332,-0.9409999847412108,-9.321000099182127,-1.1260000467300415
1622105389775,6.510000228881836,10.777000427246094,-9.116999626159668,-0.8629999756813049,-9.352999687194824,-1.1710000038146973
1622105389785,5.949999809265137,11.612000465393066,-8.61400032043457,-0.8629999756813049,-9.47599983215332,-1.1529999971389773
1622105389795,5.320000171661377,11.998000144958496,-7.978000164031982,-0.9020000100135804,-9.62399959564209,-1.218999981880188
1622105389805,4.550000190734863,12.767999649047852,-7.913000106811523,-0.9020000100135804,-9.8100004196167,-1.2920000553131104
1622105389815,3.359999895095825,12.732000350952148,-7.705999851226807,-0.9409999847412108,-10.034999847412108,-1.3710000514984133
1622105389825,1.8899999856948853,13.262999534606934,-7.896999835968018,-0.9409999847412108,-10.29800033569336,-1.4570000171661377
1622105389835,0.0700000002980232,13.826000213623049,-7.868999958038329,-0.9409999847412108,-10.491999626159668,-1.491000056266785
1622105389845,-1.6799999475479126,14.706000328063965,-7.2160000801086435,-0.981000006198883,-10.607000350952148,-1.5119999647140503
1622105389855,-3.990000009536743,14.80799961090088,-6.985000133514404,-0.9020000100135804,-10.569000244140623,-1.5049999952316284
1622105389865,-5.53000020980835,14.496000289916992,-6.827000141143799,-0.8629999756813049,-10.453000068664553,-1.4850000143051147
1622105389875,-7.139999866485596,14.38599967956543,-7.414999961853027,-0.8629999756813049,-10.260000228881836,-1.4509999752044678
1622105389885,-8.399999618530273,14.090000152587892,-7.750999927520752,-0.8240000009536743,-10.020999908447266,-1.4479999542236328
1622105389895,-8.819999694824219,13.88700008392334,-8.213000297546387,-0.7850000262260437,-9.82800006866455,-1.4140000343322754
1622105389905,-8.890000343322754,13.77400016784668,-8.375,-0.7059999704360961,-9.602999687194824,-1.3350000381469729
1622105389915,-8.260000228881836,13.440999984741213,-8.505000114440918,-0.6669999957084655,-9.378000259399414,-1.2549999952316284
1622105389925,-7.280000209808349,13.027000427246094,-8.57800006866455,-0.5879999995231628,-9.223999977111816,-1.2280000448226929
1622105389935,-5.389999866485596,12.548999786376951,-7.881000041961671,-0.5879999995231628,-9.069000244140623,-1.2009999752044678
1622105389945,-3.009999990463257,11.390000343322754,-6.947999954223633,-0.6280000209808348,-8.977999687194824,-1.2640000581741333
1622105389955,-1.7150000333786013,10.60300064086914,-6.517999649047852,-0.5879999995231628,-8.95300006866455,-1.1799999475479126
1622105389965,-0.4199999868869781,9.815999984741213,-6.0879998207092285,-0.5879999995231628,-8.928000450134277,-1.0959999561309814
1622105389975,2.1700000762939453,8.267000198364258,-5.366000175476074,-0.5879999995231628,-8.967000007629395,-1.1030000448226929
1622105389985,3.990000009536743,6.580999851226807,-4.668000221252441,-0.5490000247955322,-9.005000114440918,-1.1100000143051147
1622105389995,5.949999809265137,4.796999931335449,-3.4189999103546143,-0.5879999995231628,-9.166999816894531,-1.0989999771118164
1622105390005,7.210000038146973,3.2839999198913574,-2.9040000438690186,-0.6669999957084655,-9.244000434875488,-1.1119999885559082
1622105390015,8.1899995803833,1.8079999685287476,-2.5950000286102295,-0.7059999704360961,-9.359999656677246,-1.1330000162124634
1622105390025,8.539999961853027,0.4939999878406524,-2.4010000228881836,-0.7450000047683715,-9.47599983215332,-1.1529999971389773
1622105390035,8.260000228881836,-1.0420000553131104,-1.7480000257492063,-0.8240000009536743,-9.5600004196167,-1.128000020980835
1622105390045,8.1899995803833,-2.424999952316284,-1.565000057220459,-0.9020000100135804,-9.675999641418455,-1.1480000019073486
1622105390055,7.980000019073486,-3.763000011444092,-1.2319999933242798,-0.9020000100135804,-9.753000259399414,-1.1619999408721924
1622105390065,7.139999866485596,-4.866000175476074,-1.4270000457763672,-0.981000006198883,-9.869000434875488,-1.1829999685287476
1622105390075,6.300000190734863,-5.7870001792907715,-1.4470000267028809,-1.0199999809265137,-9.960000038146973,-1.11899995803833
1622105390085,5.25,-6.715000152587891,-1.8240000009536743,-1.0590000152587893,-9.991999626159668,-1.1640000343322754
1622105390095,4.480000019073486,-7.019999980926514,-2.5169999599456787,-1.0980000495910645,-9.960000038146973,-1.11899995803833
1622105390105,3.7100000381469727,-6.994999885559082,-2.6549999713897705,-1.1380000114440918,-9.87600040435791,-1.1440000534057615
1622105390115,2.869999885559082,-7.320000171661377,-2.427999973297119,-1.1380000114440918,-9.772999763488768,-1.0460000038146973
1622105390125,2.6600000858306885,-7.563000202178955,-2.2579998970031734,-1.1770000457763672,-9.651000022888184,-1.0640000104904177
1622105390135,3.009999990463257,-8.381999969482422,-2.046999931335449,-1.1770000457763672,-9.619000434875488,-1.0190000534057615
1622105390145,3.2200000286102295,-8.317000389099121,-1.6089999675750732,-1.2549999952316284,-9.586999893188477,-0.9729999899864196
1622105390155,4.059999942779541,-8.467000007629395,-1.5640000104904177,-1.2549999952316284,-9.477999687194824,-0.9139999747276306
1622105390165,4.269999980926514,-8.609000205993652,-1.7669999599456787,-1.215999960899353,-9.477999687194824,-0.9139999747276306
1622105390175,4.480000019073486,-8.75100040435791,-1.9700000286102295,-1.1770000457763672,-9.477999687194824,-0.9139999747276306
1622105390185,5.25,-9.380000114440918,-2.436000108718872,-1.0590000152587893,-9.55500030517578,-0.9279999732971193
1622105390195,5.809999942779541,-9.741000175476074,-3.2100000381469727,-0.9409999847412108,-9.717000007629396,-0.9169999957084656
1622105390205,5.179999828338623,-11.390999794006348,-3.927999973297119,-0.6280000209808348,-9.833000183105469,-0.9369999766349792
1622105390215,3.9200000762939458,-13.484000205993652,-5.36299991607666,-0.2750000059604644,-9.987000465393066,-0.9639999866485596
1622105390225,1.1200000047683716,-17.871000289916992,-7.486999988555909,0.1570000052452087,-10.078000068664553,-0.9010000228881836
1622105390235,-2.5899999141693115,-25.179000854492188,-9.984000205993652,0.3919999897480011,-10.097999572753906,-0.7850000262260437
1622105390245,-6.789999961853027,-36.5369987487793,-12.484000205993652,0.5879999995231628,-10.119000434875488,-0.6690000295639038
1622105390255,-10.989999771118164,-49.92300033569336,-14.77299976348877,0.6280000209808348,-10.086999893188477,-0.6230000257492065
1622105390265,-14.5600004196167,-63.2599983215332,-17.33799934387207,0.4709999859333038,-10.112000465393066,-0.7080000042915344
1622105390275,-18.270000457763672,-75.08100128173828,-19.63599967956543,0.1959999948740005,-10.12600040435791,-0.6299999952316284
1622105390285,-21.420000076293945,-83.72599792480469,-21.799999237060547,-0.0780000016093254,-10.093999862670898,-0.5849999785423278
1622105390295,-23.520000457763672,-89.7770004272461,-23.364999771118164,-0.3140000104904174,-10.017000198364258,-0.5709999799728394
1622105390305,-25.1299991607666,-93.79100036621092,-23.575000762939453,-0.5879999995231628,-9.977999687194824,-0.5640000104904174
1622105390315,-26.459999084472656,-95.50599670410156,-22.312999725341797,-0.7850000262260437,-9.901000022888184,-0.5509999990463256
1622105390325,-27.649999618530273,-95.5790023803711,-20.69099998474121,-0.981000006198883,-9.854999542236328,-0.5830000042915344
1622105390335,-28.280000686645508,-94.50399780273438,-18.725000381469727,-1.0980000495910645,-9.732000350952148,-0.6010000109672546
1622105390345,-28.6299991607666,-93.05599975585936,-17.26099967956543,-1.2549999952316284,-9.647999763488768,-0.6259999871253967
1622105390355,-28.0,-91.47899627685548,-16.1299991607666,-1.4119999408721924,-9.602999687194824,-0.6579999923706054
1622105390365,-27.3700008392334,-89.1709976196289,-15.510000228881836,-1.6080000400543213,-9.454999923706056,-0.5920000076293945
1622105390375,-26.11000061035156,-85.93900299072266,-14.086999893188477,-1.72599995136261,-9.40999984741211,-0.6240000128746032
1622105390385,-24.219999313354492,-81.73799896240233,-12.920000076293944,-1.9609999656677248,-9.300999641418455,-0.5649999976158142
1622105390395,-22.81999969482422,-79.27650451660156,-12.770500183105469,-1.9609999656677248,-9.286999702453612,-0.6420000195503234
1622105390405,-21.420000076293945,-76.81500244140625,-12.621000289916992,-2.000999927520752,-9.210000038146973,-0.6280000209808348
1622105390415,-18.760000228881836,-71.26799774169922,-12.637999534606934,-2.0399999618530273,-9.27400016784668,-0.7189999818801879
1622105390425,-15.960000038146973,-65.46600341796875,-12.894000053405762,-2.0399999618530273,-9.27400016784668,-0.7189999818801879
1622105390435,-13.229999542236328,-60.37699890136719,-13.133999824523926,-1.9609999656677248,-9.35099983215332,-0.7329999804496765
1622105390445,-10.920000076293944,-55.41299819946289,-13.467000007629396,-1.9220000505447388,-9.298999786376951,-0.8029999732971191
1622105390455,-8.819999694824219,-51.17599868774414,-13.715000152587892,-1.8830000162124632,-9.336999893188477,-0.8100000023841857
1622105390465,-6.789999961853027,-47.303001403808594,-14.312000274658203,-1.843999981880188,-9.362000465393066,-0.8939999938011169
1622105390475,-5.039999961853027,-43.39400100708008,-13.906999588012695,-1.8040000200271609,-9.401000022888184,-0.9010000228881836
1622105390485,-3.6400001049041744,-39.926998138427734,-13.01099967956543,-1.7649999856948853,-9.517000198364256,-0.9210000038146972
1622105390495,-2.5899999141693115,-36.702999114990234,-11.94499969482422,-1.8040000200271609,-9.55500030517578,-0.9279999732971193
1622105390505,-1.5399999618530271,-33.750999450683594,-11.352999687194824,-1.72599995136261,-9.54800033569336,-0.9670000076293944
1622105390515,-1.1200000047683716,-30.4950008392334,-11.277000427246094,-1.6480000019073486,-9.54800033569336,-0.9670000076293944
1622105390525,-0.2800000011920929,-27.729000091552734,-10.434000015258787,-1.6080000400543213,-9.503000259399414,-0.9990000128746032
1622105390535,0.6299999952316284,-25.20299911499023,-9.845999717712402,-1.6080000400543213,-9.503000259399414,-0.9990000128746032
1622105390545,1.2599999904632568,-22.69300079345703,-8.763999938964844,-1.6080000400543213,-9.586999893188477,-0.9729999899864196
1622105390555,2.0299999713897705,-20.35300064086914,-7.925000190734864,-1.569000005722046,-9.633000373840332,-0.9419999718666076
1622105390565,1.75,-18.288999557495117,-7.133999824523926,-1.5299999713897705,-9.70300006866455,-0.9940000176429749
1622105390575,1.399999976158142,-15.913000106811523,-6.501999855041504,-1.5299999713897705,-9.663999557495115,-0.9869999885559082
1622105390585,1.190000057220459,-13.62600040435791,-6.170000076293945,-1.491000056266785,-9.638999938964846,-0.902999997138977
1622105390595,0.9800000190734864,-11.994999885559082,-5.739999771118164,-1.4509999752044678,-9.645999908447264,-0.8640000224113464
1622105390605,0.8399999737739563,-10.251999855041504,-5.1479997634887695,-1.4119999408721924,-9.638999938964846,-0.902999997138977
1622105390615,0.5600000023841857,-9.092000007629396,-3.6640000343322754,-1.3730000257492063,-9.6850004196167,-0.8709999918937683
1622105390625,0.2800000011920929,-8.029000282287598,-2.836999893188477,-1.3730000257492063,-9.678000450134276,-0.9100000262260436
1622105390635,-0.4900000095367431,-7.014999866485596,-1.7350000143051147,-1.3730000257492063,-9.710000038146973,-0.9549999833106994
1622105390645,-0.840000033378601,-6.680500030517578,-1.2139999866485596,-1.3730000257492063,-9.717000007629396,-0.9169999957084656
1622105390655,-1.190000057220459,-6.3460001945495605,-0.6930000185966491,-1.3730000257492063,-9.717000007629396,-0.9169999957084656
1622105390665,-1.6100000143051147,-5.827000141143799,-0.8140000104904174,-1.3339999914169312,-9.638999938964846,-0.902999997138977
1622105390675,-2.0999999046325684,-5.283999919891357,-1.0740000009536743,-1.3339999914169312,-9.638999938964846,-0.902999997138977
1622105390685,-2.309999942779541,-5.26800012588501,-1.569000005722046,-1.3339999914169312,-9.55500030517578,-0.9279999732971193
1622105390695,-2.1700000762939453,-5.945000171661377,-1.758999943733215,-1.3730000257492063,-9.60099983215332,-0.8960000276565551
1622105390705,-1.9600000381469729,-6.440000057220459,-1.774999976158142,-1.4509999752044678,-9.593999862670898,-0.9350000023841856
1622105390715,-1.6100000143051147,-6.427000045776367,-1.843999981880188,-1.4119999408721924,-9.55500030517578,-0.9279999732971193
1622105390725,-1.4700000286102295,-5.75,-2.861999988555908,-1.4509999752044678,-9.510000228881836,-0.9599999785423278
1622105390735,-0.9800000190734864,-4.955999851226807,-4.144000053405762,-1.491000056266785,-9.517000198364256,-0.9210000038146972
1622105390745,-0.699999988079071,-4.315000057220459,-4.954999923706055,-1.491000056266785,-9.54800033569336,-0.9670000076293944
1622105390755,-0.4900000095367431,-3.634000062942505,-5.190000057220459,-1.491000056266785,-9.510000228881836,-0.9599999785423278
1622105390765,-0.3499999940395355,-3.069999933242798,-5.1620001792907715,-1.491000056266785,-9.503000259399414,-0.9990000128746032
1622105390775,-0.209999993443489,-2.328000068664551,-5.742000102996826,-1.4509999752044678,-9.517000198364256,-0.9210000038146972
1622105390785,0.6299999952316284,-2.9000000953674316,-6.126999855041504,-1.4119999408721924,-9.510000228881836,-0.9599999785423278
1622105390795,1.190000057220459,-2.7780001163482666,-5.607999801635742,-1.4119999408721924,-9.503000259399414,-0.9990000128746032
1622105390805,1.1200000047683716,-2.7739999294281006,-6.0329999923706055,-1.4119999408721924,-9.579999923706056,-1.0119999647140503
1622105390815,0.9800000190734864,-3.053999900817871,-6.864999771118164,-1.3339999914169312,-9.62600040435791,-0.9800000190734864
1622105390825,0.3499999940395355,-3.066999912261963,-8.003999710083008,-1.3339999914169312,-9.710000038146973,-0.9549999833106994
1622105390835,-0.4199999868869781,-2.953000068664551,-9.050000190734863,-1.3339999914169312,-9.67099952697754,-0.9480000138282776
1622105390845,-1.0499999523162842,-3.2660000324249268,-10.10099983215332,-1.3339999914169312,-9.710000038146973,-0.9549999833106994
1622105390855,-1.8899999856948853,-3.849999904632568,-10.416999816894531,-1.2940000295639038,-9.710000038146973,-0.9549999833106994
1622105390865,-2.380000114440918,-4.453999996185303,-11.020999908447266,-1.2940000295639038,-9.663999557495115,-0.9869999885559082
1622105390875,-2.5199999809265137,-5.361999988555908,-11.109999656677246,-1.2940000295639038,-9.663999557495115,-0.9869999885559082
1622105390885,-2.869999885559082,-6.307000160217285,-10.991999626159668,-1.2940000295639038,-9.696000099182127,-1.0329999923706057
1622105390895,-2.9749999046325684,-6.4045000076293945,-11.045000076293944,-1.3339999914169312,-9.696000099182127,-1.0329999923706057
1622105390905,-3.0799999237060547,-6.501999855041504,-11.097999572753906,-1.3730000257492063,-9.619000434875488,-1.0190000534057615
1622105390915,-3.430000066757202,-6.4120001792907715,-10.79800033569336,-1.3730000257492063,-9.579999923706056,-1.0119999647140503
1622105390925,-3.2200000286102295,-6.533999919891357,-11.31700038909912,-1.2940000295639038,-9.579999923706056,-1.0119999647140503
1622105390935,-2.940000057220459,-6.340000152587891,-11.211000442504885,-1.3339999914169312,-9.586999893188477,-0.9729999899864196
1622105390945,-2.869999885559082,-6.436999797821045,-10.659999847412108,-1.3339999914169312,-9.56700038909912,-1.0889999866485596
1622105390955,-2.6600000858306885,-6.295000076293945,-9.852999687194824,-1.3730000257492063,-9.5600004196167,-1.128000020980835
1622105390965,-2.240000009536743,-5.908999919891357,-9.215999603271484,-1.4119999408721924,-9.5600004196167,-1.128000020980835
1622105390975,-1.4700000286102295,-4.830999851226807,-8.883999824523926,-1.4119999408721924,-9.482999801635742,-1.1139999628067017
1622105390985,-0.9800000190734864,-3.901999950408935,-8.506999969482422,-1.4119999408721924,-9.437000274658203,-1.1460000276565552
1622105390995,-0.1400000005960464,-3.4030001163482666,-8.916000366210938,-1.4119999408721924,-9.359999656677246,-1.1330000162124634
1622105391005,0.699999988079071,-2.4830000400543213,-8.895999908447266,-1.4119999408721924,-9.359999656677246,-1.1330000162124634
1622105391015,2.1700000762939453,-1.5829999446868896,-9.163999557495115,-1.3730000257492063,-9.321000099182127,-1.1260000467300415
1622105391025,3.2899999618530273,-1.4450000524520874,-9.140000343322754,-1.3339999914169312,-9.37399959564209,-1.0549999475479126
1622105391035,4.900000095367432,-1.3639999628067017,-10.404999732971191,-1.2940000295639038,-9.348999977111816,-0.9710000157356262
1622105391045,6.019999980926514,-0.9950000047683716,-11.6899995803833,-1.2549999952316284,-9.39400005340576,-0.9390000104904174
1622105391055,7.210000038146973,-1.1820000410079956,-12.647000312805176,-1.215999960899353,-9.401000022888184,-0.9010000228881836
1622105391065,7.489999771118165,-1.4210000038146973,-12.902999877929688,-1.1770000457763672,-9.484999656677246,-0.8759999871253967
1622105391075,7.699999809265136,-2.0329999923706055,-12.654999732971191,-1.0980000495910645,-9.517000198364256,-0.9210000038146972
1622105391085,7.769999980926514,-2.4019999504089355,-12.578000068664553,-1.1380000114440918,-9.569000244140623,-0.8510000109672546
1622105391095,7.9099998474121085,-2.7960000038146973,-12.36299991607666,-1.1770000457763672,-9.621000289916992,-0.7799999713897705
1622105391105,7.9099998474121085,-3.440000057220459,-12.335000038146973,-1.0980000495910645,-9.58899974822998,-0.7350000143051147
1622105391115,8.260000228881836,-3.878000020980835,-12.270000457763672,-1.0590000152587893,-9.55799961090088,-0.6890000104904174
1622105391125,8.399999618530273,-3.92300009727478,-12.420000076293944,-1.0199999809265137,-9.609999656677246,-0.6190000176429749
1622105391135,8.609999656677246,-3.9070000648498535,-12.914999961853027,-1.0199999809265137,-9.609999656677246,-0.6190000176429749
1622105391145,8.75,-3.7020001411437984,-13.26949977874756,-1.0590000152587893,-9.616999626159668,-0.5799999833106994
1622105391155,8.890000343322754,-3.496999979019165,-13.62399959564209,-1.0590000152587893,-9.654999732971191,-0.5870000123977661
1622105391165,9.380000114440918,-3.006999969482422,-13.182000160217283,-1.0980000495910645,-9.701000213623049,-0.5550000071525573
1622105391175,9.449999809265137,-2.51200008392334,-13.166000366210938,-1.1380000114440918,-9.73900032043457,-0.5619999766349792
1622105391185,9.520000457763674,-1.5099999904632568,-13.203000068664553,-1.0980000495910645,-9.746000289916992,-0.5239999890327453
1622105391195,9.449999809265137,-0.7929999828338623,-13.645000457763672,-1.0590000152587893,-9.829999923706056,-0.4990000128746032
1622105391205,8.680000305175781,-0.3100000023841857,-13.5600004196167,-1.0590000152587893,-9.829999923706056,-0.4990000128746032
1622105391215,7.980000019073486,0.550000011920929,-13.19499969482422,-1.0590000152587893,-9.862000465393066,-0.5440000295639038
1622105391225,7.070000171661377,1.38100004196167,-13.475000381469728,-1.0199999809265137,-9.862000465393066,-0.5440000295639038
1622105391235,6.019999980926514,2.0820000171661377,-13.421999931335447,-0.9409999847412108,-9.862000465393066,-0.5440000295639038
1622105391245,4.829999923706055,2.240999937057495,-13.109999656677246,-0.9020000100135804,-9.854999542236328,-0.5830000042915344
1622105391255,3.2899999618530273,2.122999906539917,-12.847000122070312,-0.8629999756813049,-9.869000434875488,-0.5049999952316284
1622105391265,1.9600000381469729,2.0260000228881836,-12.295000076293944,-0.8629999756813049,-9.88199996948242,-0.4280000030994415
1622105391275,1.0499999523162842,1.6890000104904177,-11.99899959564209,-0.8240000009536743,-9.92099952697754,-0.4350000023841857
1622105391285,0.0,1.555999994277954,-11.241000175476074,-0.7850000262260437,-9.92099952697754,-0.4350000023841857
1622105391295,-1.0499999523162842,1.5269999504089355,-10.677000045776367,-0.7850000262260437,-9.88199996948242,-0.4280000030994415
1622105391305,-1.9600000381469729,1.2150000333786013,-10.519000053405762,-0.8240000009536743,-9.87600040435791,-0.4670000076293945
1622105391315,-2.7300000190734863,0.915000021457672,-10.43000030517578,-0.7850000262260437,-9.836999893188477,-0.4600000083446502
1622105391324,-3.2899999618530273,0.8579999804496765,-10.51099967956543,-0.8240000009536743,-9.791999816894531,-0.492000013589859
1622105391334,-3.990000009536743,0.7570000290870667,-10.741999626159668,-0.8629999756813049,-9.78499984741211,-0.5299999713897705
1622105391344,-4.340000152587891,1.1100000143051147,-10.324000358581545,-0.9020000100135804,-9.746000289916992,-0.5239999890327453
1622105391354,-4.059999942779541,2.0179998874664307,-10.234999656677246,-0.981000006198883,-9.701000213623049,-0.5550000071525573
1622105391364,-3.7100000381469727,2.5450000762939453,-10.0,-1.0590000152587893,-9.647999763488768,-0.6259999871253967
1622105391374,-3.53499984741211,3.009500026702881,-9.811500549316406,-1.0199999809265137,-9.654999732971191,-0.5870000123977661
1622105391384,-3.359999895095825,3.4739999771118164,-9.623000144958496,-0.981000006198883,-9.57800006866455,-0.5740000009536743
1622105391394,-2.5199999809265137,4.3460001945495605,-9.32699966430664,-0.9020000100135804,-9.585000038146973,-0.5350000262260437
1622105391404,-1.6799999475479126,4.589000225067139,-9.496999740600586,-0.9020000100135804,-9.571000099182127,-0.6119999885559082
1622105391414,-1.190000057220459,5.23799991607666,-9.95199966430664,-0.9020000100135804,-9.647999763488768,-0.6259999871253967
1622105391424,-1.3300000429153442,5.764999866485596,-9.717000007629396,-0.9020000100135804,-9.687000274658203,-0.6330000162124633
1622105391434,-1.190000057220459,5.834000110626221,-9.70400047302246,-0.8240000009536743,-9.68000030517578,-0.6710000038146972
1622105391444,-1.6799999475479126,6.215000152587891,-9.850000381469728,-0.7850000262260437,-9.68000030517578,-0.6710000038146972
1622105391454,-2.380000114440918,5.756999969482422,-10.072999954223633,-0.7450000047683715,-9.687000274658203,-0.6330000162124633
1622105391464,-2.7300000190734863,5.144000053405762,-9.826000213623049,-0.7450000047683715,-9.732000350952148,-0.6010000109672546
1622105391474,-3.0799999237060547,4.309000015258789,-9.119999885559082,-0.7059999704360961,-9.847999572753906,-0.6209999918937683
1622105391484,-3.990000009536743,3.4579999446868896,-9.128000259399414,-0.7450000047683715,-9.8100004196167,-0.6140000224113464
1622105391494,-4.829999923706055,2.8489999771118164,-9.307000160217283,-0.7850000262260437,-9.862000465393066,-0.5440000295639038
1622105391504,-5.320000171661377,2.3340001106262207,-10.819000244140623,-0.7850000262260437,-9.81700038909912,-0.5759999752044677
1622105391514,-6.440000057220459,1.718000054359436,-11.354000091552734,-0.8240000009536743,-9.829999923706056,-0.4990000128746032
1622105391524,-6.929999828338623,1.1829999685287476,-10.73799991607666,-0.8629999756813049,-9.836999893188477,-0.4600000083446502
1622105391534,-7.070000171661377,1.3159999847412107,-10.288000106811523,-0.9020000100135804,-9.836999893188477,-0.4600000083446502
1622105391544,-7.0,1.5839999914169312,-9.387999534606934,-0.9409999847412108,-9.79800033569336,-0.453000009059906
1622105391554,-6.789999961853027,1.8799999952316284,-9.050999641418455,-0.981000006198883,-9.767000198364256,-0.4079999923706054
1622105391564,-7.559999942779541,2.1480000019073486,-8.151000022888184,-0.981000006198883,-9.843999862670898,-0.4210000038146972
1622105391574,-8.050000190734863,2.627000093460083,-7.639999866485595,-1.0199999809265137,-9.88199996948242,-0.4280000030994415
1622105391584,-9.59000015258789,3.299999952316284,-7.02400016784668,-1.0590000152587893,-9.960000038146973,-0.44200000166893
1622105391594,-10.43000030517578,3.810999870300293,-6.8979997634887695,-1.0980000495910645,-9.991999626159668,-0.4869999885559082
1622105391604,-11.270000457763672,4.322000026702881,-6.771999835968018,-1.1380000114440918,-9.991999626159668,-0.4869999885559082
1622105391614,-13.369999885559082,5.14900016784668,-6.626999855041504,-1.1770000457763672,-9.95300006866455,-0.4799999892711639
1622105391624,-14.840000152587892,6.0329999923706055,-6.400000095367432,-1.1380000114440918,-9.913999557495115,-0.4740000069141387
1622105391634,-15.960000038146973,6.925000190734863,-5.815999984741211,-1.0980000495910645,-9.89400005340576,-0.5889999866485595
1622105391644,-17.149999618530273,7.297999858856201,-5.110000133514404,-1.0590000152587893,-9.8100004196167,-0.6140000224113464
1622105391654,-17.56999969482422,7.809000015258789,-4.380000114440918,-1.0199999809265137,-9.732000350952148,-0.6010000109672546
1622105391664,-17.920000076293945,7.931000232696533,-3.861000061035156,-1.0199999809265137,-9.68000030517578,-0.6710000038146972
1622105391674,-17.920000076293945,7.919000148773193,-2.5840001106262207,-0.9409999847412108,-9.67300033569336,-0.7099999785423278
1622105391684,-17.780000686645508,7.656000137329101,-1.493000030517578,-0.981000006198883,-9.628000259399414,-0.7419999837875366
1622105391694,-17.219999313354492,7.5339999198913565,-0.8040000200271606,-0.981000006198883,-9.569000244140623,-0.8510000109672546
1622105391704,-16.940000534057617,7.265999794006347,-0.4959999918937683,-0.981000006198883,-9.607999801635742,-0.8579999804496765
1622105391714,-16.59000015258789,7.25,-0.0010000000474974,-1.0590000152587893,-9.562000274658203,-0.8889999985694885
1622105391724,-16.309999465942383,7.480999946594238,-0.1019999980926513,-1.0980000495910645,-9.517000198364256,-0.9210000038146972
1622105391734,-15.68000030517578,7.849999904632568,-0.1800000071525573,-1.0980000495910645,-9.510000228881836,-0.9599999785423278
1622105391744,-15.260000228881836,8.008999824523926,0.1330000013113021,-1.0980000495910645,-9.496000289916992,-1.0369999408721924
1622105391754,-14.630000114440918,7.834000110626221,0.3149999976158142,-1.1380000114440918,-9.451000213623049,-1.069000005722046
1622105391764,-14.06999969482422,7.360000133514405,0.5870000123977661,-1.0980000495910645,-9.404999732971191,-1.10099995136261
1622105391774,-12.880000114440918,6.934000015258789,0.5830000042915344,-1.1380000114440918,-9.385000228881836,-1.2170000076293943
1622105391784,-12.31999969482422,6.580999851226807,0.1650000065565109,-1.1380000114440918,-9.385000228881836,-1.2170000076293943
1622105391794,-11.479999542236328,6.357999801635742,-0.5849999785423278,-1.1770000457763672,-9.371000289916992,-1.2940000295639038
1622105391804,-10.989999771118164,6.104499816894531,-1.162500023841858,-1.1770000457763672,-9.371000289916992,-1.2940000295639038
1622105391814,-10.5,5.85099983215332,-1.7400000095367432,-1.1770000457763672,-9.371000289916992,-1.2940000295639038
1622105391824,-9.65999984741211,5.955999851226807,-3.1429998874664307,-1.1380000114440918,-9.371000289916992,-1.2940000295639038
1622105391834,-8.680000305175781,5.882999897003174,-3.937999963760376,-1.1770000457763672,-9.449000358581545,-1.3079999685287476
1622105391844,-7.8400001525878915,5.875,-4.295000076293945,-1.1770000457763672,-9.473999977111816,-1.3919999599456787
1622105391854,-6.860000133514404,5.806000232696533,-4.307000160217285,-1.1770000457763672,-9.479999542236328,-1.3530000448226929
1622105391864,-6.090000152587891,5.814000129699707,-5.158999919891357,-1.1380000114440918,-9.51900005340576,-1.3600000143051147
1622105391874,-5.460000038146973,5.86299991607666,-5.434999942779541,-1.1380000114440918,-9.526000022888184,-1.3209999799728394
1622105391884,-5.53000020980835,5.867000102996826,-5.860000133514404,-1.0980000495910645,-9.51900005340576,-1.3600000143051147
1622105391894,-5.670000076293945,6.138000011444092,-6.593999862670898,-1.0980000495910645,-9.550999641418455,-1.4049999713897705
1622105391904,-5.599999904632568,5.4770002365112305,-7.27899980545044,-1.0590000152587893,-9.58899974822998,-1.4119999408721924
1622105391914,-5.949999809265137,4.539999961853027,-8.012999534606934,-1.0199999809265137,-9.65999984741211,-1.4639999866485596
1622105391924,-5.460000038146973,4.053999900817871,-8.880999565124512,-1.0590000152587893,-9.65999984741211,-1.4639999866485596
1622105391934,-5.320000171661377,3.38100004196167,-9.496999740600586,-1.0199999809265137,-9.583000183105469,-1.4509999752044678
1622105391944,-4.900000095367432,2.6470000743865967,-9.76900005340576,-0.9409999847412108,-9.550999641418455,-1.4049999713897705
1622105391954,-4.480000019073486,2.1600000858306885,-9.428000450134276,-0.9409999847412108,-9.550999641418455,-1.4049999713897705
1622105391964,-3.7799999713897705,1.868000030517578,-10.1899995803833,-1.0199999809265137,-9.543999671936035,-1.444000005722046
1622105391974,-3.359999895095825,1.2999999523162842,-11.00100040435791,-1.0590000152587893,-9.505000114440918,-1.437000036239624
1622105391984,-2.940000057220459,1.1660000085830688,-11.451000213623049,-1.0590000152587893,-9.505000114440918,-1.437000036239624
1622105391994,-2.6600000858306885,0.902999997138977,-11.569000244140623,-1.0590000152587893,-9.49899959564209,-1.47599995136261
1622105392004,-2.7300000190734863,0.7080000042915344,-11.673999786376951,-1.0590000152587893,-9.467000007629396,-1.4299999475479126
1622105392014,-2.3450000286102295,0.6044999957084655,-11.692500114440918,-1.0590000152587893,-9.505000114440918,-1.437000036239624
1622105392024,-1.9600000381469729,0.5009999871253967,-11.711000442504885,-1.0590000152587893,-9.512000083923342,-1.3980000019073486
1622105392034,-1.6100000143051147,0.3030000030994415,-11.390999794006348,-1.0590000152587893,-9.583000183105469,-1.4509999752044678
1622105392044,-1.399999976158142,0.4729999899864196,-11.147000312805176,-1.0590000152587893,-9.536999702453612,-1.4830000400543213
1622105392054,-1.6799999475479126,0.123999997973442,-10.781999588012695,-1.0980000495910645,-9.569000244140623,-1.5279999971389773
1622105392064,-1.6100000143051147,0.6389999985694885,-10.477999687194824,-1.0980000495910645,-9.543999671936035,-1.444000005722046
1622105392074,-1.9600000381469729,1.4099999666213987,-10.413000106811523,-1.0199999809265137,-9.536999702453612,-1.4830000400543213
1622105392084,-2.0299999713897705,1.9730000495910645,-10.385000228881836,-0.981000006198883,-9.49899959564209,-1.47599995136261
1622105392094,-1.8899999856948853,2.375,-10.243000030517578,-1.0199999809265137,-9.583000183105469,-1.4509999752044678
1622105392104,-1.8899999856948853,2.934000015258789,-9.788999557495115,-1.0199999809265137,-9.583000183105469,-1.4509999752044678
1622105392114,-1.75,3.615999937057495,-8.815999984741211,-0.981000006198883,-9.576000213623049,-1.4889999628067017
1622105392124,-1.6799999475479126,3.9040000438690186,-7.627999782562256,-0.981000006198883,-9.543999671936035,-1.444000005722046
1622105392134,-1.5399999618530271,4.5970001220703125,-6.723999977111816,-0.981000006198883,-9.467000007629396,-1.4299999475479126
1622105392144,-1.190000057220459,4.618000030517578,-6.435999870300293,-0.9409999847412108,-9.543999671936035,-1.444000005722046
1622105392154,-1.1200000047683716,4.354000091552734,-6.552999973297119,-0.9409999847412108,-9.61400032043457,-1.4960000514984133
1622105392164,-1.2599999904632568,4.442999839782715,-6.252999782562256,-0.9020000100135804,-9.652999877929688,-1.503000020980835
1622105392174,-1.8200000524520872,4.302000045776367,-5.8520002365112305,-0.9020000100135804,-9.69200038909912,-1.5099999904632568
1622105392184,-2.240000009536743,4.447999954223633,-5.4710001945495605,-0.8629999756813049,-9.645999908447264,-1.5420000553131104
1622105392194,-2.0299999713897705,4.058000087738037,-5.682000160217285,-0.9020000100135804,-9.61400032043457,-1.4960000514984133
1622105392204,-2.1700000762939453,3.7829999923706055,-5.730000019073486,-0.8629999756813049,-9.61400032043457,-1.4960000514984133
1622105392214,-2.240000009536743,3.6205000877380367,-5.616499900817871,-0.8629999756813049,-9.583000183105469,-1.4509999752044678
1622105392224,-2.309999942779541,3.4579999446868896,-5.502999782562256,-0.8629999756813049,-9.49899959564209,-1.47599995136261
1622105392234,-2.450000047683716,2.489000082015991,-5.248000144958496,-0.9409999847412108,-9.536999702453612,-1.4830000400543213
1622105392244,-2.309999942779541,1.8849999904632568,-5.8520002365112305,-0.9409999847412108,-9.512000083923342,-1.3980000019073486
1622105392254,-2.0299999713897705,1.0369999408721924,-6.284999847412109,-1.0199999809265137,-9.550999641418455,-1.4049999713897705
1622105392264,-1.8200000524520872,0.7289999723434448,-6.552999973297119,-0.981000006198883,-9.49899959564209,-1.47599995136261
1622105392274,-1.6100000143051147,-0.1550000011920929,-6.78000020980835,-0.9409999847412108,-9.576000213623049,-1.4889999628067017
1622105392284,-1.8899999856948853,-0.3939999938011169,-7.034999847412109,-0.981000006198883,-9.60099983215332,-1.5729999542236328
1622105392294,-2.450000047683716,-0.597000002861023,-7.498000144958496,-0.981000006198883,-9.645999908447264,-1.5420000553131104
1622105392304,-2.6600000858306885,-0.9259999990463256,-8.053000450134277,-1.0199999809265137,-9.60099983215332,-1.5729999542236328
1622105392314,-3.0799999237060547,-1.2660000324249268,-8.539999961853027,-1.0199999809265137,-9.61400032043457,-1.4960000514984133
1622105392324,-3.430000066757202,-1.4609999656677246,-8.645000457763672,-1.0199999809265137,-9.607999801635742,-1.5349999666213987
1622105392334,-3.7100000381469727,-1.712000012397766,-8.831999778747559,-1.0590000152587893,-9.569000244140623,-1.5279999971389773
1622105392344,-3.7100000381469727,-1.493000030517578,-8.86400032043457,-1.0590000152587893,-9.569000244140623,-1.5279999971389773
1622105392354,-3.9200000762939458,-1.3309999704360962,-8.977999687194824,-1.0199999809265137,-9.569000244140623,-1.5279999971389773
1622105392364,-3.6400001049041744,-1.1449999809265137,-9.229000091552734,-1.0199999809265137,-9.593999862670898,-1.6119999885559082
1622105392374,-3.6400001049041744,-0.8809999823570251,-9.111000061035156,-1.0590000152587893,-9.55500030517578,-1.6050000190734863
1622105392384,-3.359999895095825,-0.7110000252723693,-8.868000030517578,-1.0590000152587893,-9.562000274658203,-1.5670000314712524
1622105392394,-3.009999990463257,-0.2160000056028366,-8.85200023651123,-1.0199999809265137,-9.52400016784668,-1.559999942779541
1622105392404,-2.5199999809265137,-0.0900000035762786,-8.758999824523926,-1.0199999809265137,-9.517000198364256,-1.5980000495910645
1622105392414,-2.1700000762939453,0.2660000026226043,-8.767000198364258,-1.0590000152587893,-9.503000259399414,-1.6759999990463257
1622105392424,-2.134999990463257,0.6495000123977661,-8.521499633789062,-1.0590000152587893,-9.510000228881836,-1.6369999647140503
1622105392434,-2.0999999046325684,1.0329999923706057,-8.276000022888184,-1.0199999809265137,-9.517000198364256,-1.5980000495910645
1622105392444,-2.0999999046325684,1.2719999551773071,-8.020999908447266,-1.0590000152587893,-9.484999656677246,-1.5529999732971191
1622105392454,-1.5399999618530271,1.159000039100647,-8.182999610900879,-1.0199999809265137,-9.491999626159668,-1.5140000581741333
1622105392464,-1.1200000047683716,1.5720000267028809,-8.109999656677246,-1.0199999809265137,-9.49899959564209,-1.47599995136261
1622105392474,-0.699999988079071,1.5110000371932983,-7.765999794006347,-1.0199999809265137,-9.491999626159668,-1.5140000581741333
1622105392484,-0.1400000005960464,1.6610000133514404,-7.809999942779541,-1.0199999809265137,-9.491999626159668,-1.5140000581741333
1622105392494,0.3499999940395355,1.7910000085830688,-8.142999649047852,-1.0980000495910645,-9.49899959564209,-1.47599995136261
1622105392504,0.9800000190734864,2.1640000343322754,-8.645999908447266,-1.0199999809265137,-9.529999732971191,-1.5210000276565552
1622105392514,1.2599999904632568,2.6510000228881836,-8.986000061035156,-1.0199999809265137,-9.536999702453612,-1.4830000400543213
1622105392524,1.1200000047683716,3.308000087738037,-9.083999633789062,-1.0590000152587893,-9.536999702453612,-1.4830000400543213
1622105392534,1.190000057220459,4.228000164031982,-9.062999725341797,-1.0590000152587893,-9.536999702453612,-1.4830000400543213
1622105392544,1.5399999618530271,4.702000141143799,-9.335000038146973,-1.0590000152587893,-9.621000289916992,-1.4570000171661377
1622105392554,1.4700000286102295,5.230000019073486,-9.100000381469728,-0.981000006198883,-9.583000183105469,-1.4509999752044678
1622105392564,1.6100000143051147,5.488999843597412,-8.557000160217285,-0.9020000100135804,-9.61400032043457,-1.4960000514984133
1622105392574,1.75,5.375999927520752,-8.718999862670898,-0.9409999847412108,-9.621000289916992,-1.4570000171661377
1622105392584,1.6100000143051147,5.445000171661377,-8.706999778747559,-0.8629999756813049,-9.628000259399414,-1.4190000295639038
1622105392594,1.6799999475479126,5.307000160217285,-8.730999946594238,-0.8629999756813049,-9.635000228881836,-1.3799999952316284
1622105392604,1.5399999618530271,5.27400016784668,-8.949999809265137,-0.8629999756813049,-9.628000259399414,-1.4190000295639038
1622105392614,1.4700000286102295,4.913000106811523,-8.515999794006348,-0.8629999756813049,-9.58899974822998,-1.4119999408721924
1622105392624,1.5750000476837158,5.104000091552734,-8.58899974822998,-0.8629999756813049,-9.635000228881836,-1.3799999952316284
1622105392634,1.6799999475479126,5.295000076293945,-8.661999702453613,-0.8240000009536743,-9.635000228881836,-1.3799999952316284
1622105392644,1.0499999523162842,4.991000175476074,-8.147000312805176,-0.8240000009536743,-9.704999923706056,-1.4320000410079956
1622105392654,0.4900000095367431,4.901000022888184,-8.446999549865723,-0.8240000009536743,-9.704999923706056,-1.4320000410079956
1622105392664,0.209999993443489,4.953999996185303,-7.940000057220459,-0.8240000009536743,-9.699000358581545,-1.4709999561309814
1622105392674,-0.3499999940395355,5.635000228881836,-6.9670000076293945,-0.8629999756813049,-9.628000259399414,-1.4190000295639038
1622105392684,-0.5600000023841857,5.538000106811523,-6.415999889373779,-0.8240000009536743,-9.635000228881836,-1.3799999952316284
1622105392694,-0.4199999868869781,5.639999866485596,-6.184999942779541,-0.7850000262260437,-9.635000228881836,-1.3799999952316284
1622105392704,-0.4199999868869781,5.554999828338623,-5.702000141143799,-0.7850000262260437,-9.635000228881836,-1.3799999952316284
1622105392714,-0.7699999809265136,5.440999984741211,-5.863999843597412,-0.7850000262260437,-9.58899974822998,-1.4119999408721924
1622105392724,-0.6299999952316284,5.0269999504089355,-5.936999797821045,-0.8240000009536743,-9.550999641418455,-1.4049999713897705
1622105392734,-0.3499999940395355,4.979000091552734,-5.660999774932861,-0.8240000009536743,-9.543999671936035,-1.444000005722046
1622105392744,-0.3499999940395355,4.715000152587891,-5.7789998054504395,-0.8240000009536743,-9.583000183105469,-1.4509999752044678
1622105392754,-0.0700000002980232,4.519999980926514,-5.883999824523926,-0.8629999756813049,-9.58899974822998,-1.4119999408721924
1622105392764,0.0,4.439000129699707,-5.828000068664551,-0.8629999756813049,-9.595999717712402,-1.3730000257492063
1622105392774,0.2800000011920929,4.484000205993652,-5.677999973297119,-0.8240000009536743,-9.543999671936035,-1.444000005722046
1622105392784,0.699999988079071,3.6489999294281006,-4.9720001220703125,-0.8629999756813049,-9.505000114440918,-1.437000036239624
1622105392794,0.8399999737739563,3.4539999961853027,-5.077000141143799,-0.8240000009536743,-9.543999671936035,-1.444000005722046
1622105392804,0.8399999737739563,2.753000020980835,-5.130000114440918,-0.8240000009536743,-9.58899974822998,-1.4119999408721924
1622105392814,0.524999976158142,2.6030001640319824,-5.0854997634887695,-0.8240000009536743,-9.621000289916992,-1.4570000171661377
1622105392824,0.209999993443489,2.453000068664551,-5.040999889373779,-0.7850000262260437,-9.58899974822998,-1.4119999408721924
1622105392834,0.3499999940395355,2.2339999675750732,-5.007999897003174,-0.8240000009536743,-9.635000228881836,-1.3799999952316284
1622105392844,0.6299999952316284,1.6289999485015867,-5.611999988555908,-0.9020000100135804,-9.642000198364256,-1.3420000076293943
1622105392854,1.0499999523162842,0.9070000052452089,-5.953000068664551,-0.9020000100135804,-9.55799961090088,-1.3669999837875366
1622105392864,1.1200000047683716,0.5099999904632568,-6.519999980926514,-0.9409999847412108,-9.602999687194824,-1.3350000381469729
1622105392874,0.9100000262260436,0.3519999980926513,-6.833000183105469,-0.981000006198883,-9.642000198364256,-1.3420000076293943
1622105392884,0.209999993443489,0.3440000116825103,-7.190000057220459,-1.0590000152587893,-9.68000030517578,-1.3480000495910645
1622105392894,-0.9100000262260436,0.5870000123977661,-7.360000133514405,-1.0980000495910645,-9.718999862670898,-1.3550000190734863
1622105392904,-1.8200000524520872,1.118000030517578,-7.551000118255616,-1.1770000457763672,-9.711999893188477,-1.3940000534057615
1622105392914,-2.309999942779541,1.743000030517578,-7.867000102996825,-1.1380000114440918,-9.718999862670898,-1.3550000190734863
1622105392924,-2.450000047683716,2.638999938964844,-7.709000110626221,-1.215999960899353,-9.61400032043457,-1.4960000514984133
1622105392934,-2.869999885559082,3.677000045776367,-6.74399995803833,-1.1380000114440918,-9.666999816894531,-1.4259999990463257
1622105392943,-3.569999933242798,3.7829999923706055,-5.730000019073486,-1.1380000114440918,-9.704999923706056,-1.4320000410079956
1622105392953,-4.130000114440918,3.802999973297119,-5.441999912261963,-1.1770000457763672,-9.69200038909912,-1.5099999904632568
1622105392963,-4.340000152587891,3.911999940872192,-6.063000202178955,-1.0980000495910645,-9.704999923706056,-1.4320000410079956
1622105392973,-4.760000228881836,3.572000026702881,-6.548999786376953,-1.0590000152587893,-9.666999816894531,-1.4259999990463257
1622105392983,-4.795000076293945,3.624500036239624,-6.6464996337890625,-1.0199999809265137,-9.666999816894531,-1.4259999990463257
1622105392993,-4.829999923706055,3.677000045776367,-6.74399995803833,-0.981000006198883,-9.635000228881836,-1.3799999952316284
1622105393003,-4.900000095367432,3.446000099182129,-6.64300012588501,-0.981000006198883,-9.543999671936035,-1.444000005722046
1622105393013,-4.619999885559082,3.0,-6.934000015258789,-0.981000006198883,-9.576000213623049,-1.4889999628067017
1622105393023,-4.340000152587891,2.8499999046325684,-6.889999866485596,-0.981000006198883,-9.58899974822998,-1.4119999408721924
1622105393033,-3.7799999713897705,2.752000093460083,-7.546999931335449,-0.981000006198883,-9.505000114440918,-1.437000036239624
1622105393043,-3.569999933242798,2.436000108718872,-8.170999526977539,-0.9409999847412108,-9.395999908447264,-1.378000020980835
1622105393053,-2.450000047683716,2.3949999809265137,-8.746999740600586,-0.9409999847412108,-9.298999786376951,-1.4800000190734863
1622105393063,-0.4900000095367431,2.3469998836517334,-8.470999717712402,-0.9409999847412108,-9.30500030517578,-1.4420000314712524
1622105393073,1.75,2.5169999599456787,-8.227999687194824,-1.0590000152587893,-9.279999732971191,-1.3580000400543213
1622105393083,3.009999990463257,2.3550000190734863,-8.11400032043457,-1.0590000152587893,-9.279999732971191,-1.3580000400543213
1622105393093,4.829999923706055,2.4159998893737793,-8.458999633789062,-1.0199999809265137,-9.24899959564209,-1.312000036239624
1622105393103,5.389999866485596,2.5250000953674316,-7.870999813079834,-1.0590000152587893,-9.35099983215332,-1.4099999666213987
1622105393113,5.179999828338623,2.736000061035156,-7.052000045776367,-1.0590000152587893,-9.569000244140623,-1.5279999971389773
1622105393123,3.6400001049041744,3.072999954223633,-6.139999866485596,-1.0590000152587893,-9.833000183105469,-1.6139999628067017
1622105393133,1.75,3.3970000743865967,-5.1579999923706055,-1.0980000495910645,-9.954999923706056,-1.5959999561309814
1622105393143,-0.6299999952316284,4.184000015258789,-4.380000114440918,-1.0590000152587893,-9.93000030517578,-1.5119999647140503
1622105393153,-1.434999942779541,4.658499717712402,-4.047500133514404,-1.0199999809265137,-9.904999732971191,-1.4279999732971191
1622105393163,-2.240000009536743,5.132999897003174,-3.714999914169311,-0.9409999847412108,-9.873000144958496,-1.381999969482422
1622105393173,-3.6400001049041744,5.5269999504089355,-2.7219998836517334,-0.9409999847412108,-9.75100040435791,-1.4010000228881836
1622105393183,-4.96999979019165,4.991000175476074,-2.1050000190734863,-0.9020000100135804,-9.718999862670898,-1.3550000190734863
1622105393193,-5.599999904632568,3.9409999847412114,-1.7929999828338623,-0.9020000100135804,-9.687000274658203,-1.309999942779541
1622105393203,-6.369999885559082,2.7209999561309814,-1.7239999771118164,-0.9020000100135804,-9.609999656677246,-1.2960000038146973
1622105393213,-6.159999847412109,2.072000026702881,-2.4779999256134033,-0.9020000100135804,-9.51900005340576,-1.3600000143051147
1622105393223,-5.110000133514404,2.197000026702881,-3.5929999351501465,-0.9409999847412108,-9.454999923706056,-1.2690000534057615
1622105393233,-3.0799999237060547,1.430999994277954,-4.084000110626221,-0.9409999847412108,-9.312000274658203,-1.4029999971389773
1622105393243,-1.0499999523162842,0.2469999939203262,-4.2210001945495605,-0.981000006198883,-9.234999656677246,-1.3890000581741333
1622105393253,1.3300000429153442,-0.2319999933242797,-4.73199987411499,-1.0590000152587893,-9.196000099182127,-1.3830000162124634
1622105393263,3.7799999713897705,0.152999997138977,-5.303999900817871,-1.1380000114440918,-9.234999656677246,-1.3890000581741333
1622105393273,5.809999942779541,0.777999997138977,-5.619999885559082,-1.1380000114440918,-9.312000274658203,-1.4029999971389773
1622105393283,6.71999979019165,1.491000056266785,-5.63700008392334,-1.1770000457763672,-9.388999938964846,-1.4170000553131104
1622105393293,7.349999904632568,1.812000036239624,-5.438000202178955,-1.1770000457763672,-9.467000007629396,-1.4299999475479126
1622105393303,7.139999866485596,2.23799991607666,-5.434000015258789,-1.1380000114440918,-9.58899974822998,-1.4119999408721924
1622105393313,6.404999732971191,2.316999912261963,-5.2779998779296875,-1.1380000114440918,-9.744000434875488,-1.4390000104904177
1622105393323,5.670000076293945,2.3959999084472656,-5.122000217437744,-1.0980000495910645,-9.859999656677246,-1.4600000381469729
1622105393333,3.2200000286102295,2.4649999141693115,-5.110000133514404,-1.0590000152587893,-9.904999732971191,-1.4279999732971191
1622105393343,0.9800000190734864,2.0999999046325684,-5.458000183105469,-1.0199999809265137,-9.873000144958496,-1.381999969482422
1622105393353,-1.190000057220459,1.5440000295639038,-6.3379998207092285,-1.0199999809265137,-9.835000038146973,-1.3760000467300415
1622105393363,-2.799999952316284,0.6880000233650208,-7.129000186920166,-0.981000006198883,-9.79599952697754,-1.36899995803833
1622105393373,-4.059999942779541,-0.4189999997615814,-8.105999946594238,-0.981000006198883,-9.788999557495115,-1.406999945640564
1622105393383,-5.460000038146973,-1.274999976158142,-8.895999908447266,-0.9409999847412108,-9.704999923706056,-1.4320000410079956
1622105393393,-7.0,-2.6449999809265137,-9.991000175476074,-0.981000006198883,-9.72599983215332,-1.3170000314712524
1622105393403,-7.139999866485596,-3.111999988555908,-10.571000099182127,-1.0590000152587893,-9.609999656677246,-1.2960000038146973
