timestamp,gyro_x,gyro_y,gyro_z,acc_x,acc_y,acc_z
1621584731019,0.0,0.0,0.0,0.0,0.0,0.0
1621584731028,-0.1400000005960464,6.514999866485596,-6.315000057220459,-0.1959999948740005,-9.593999862670898,-1.6119999885559082
1621584731038,-0.2800000011920929,6.304999828338623,-5.925000190734863,-0.2349999994039535,-9.562000274658203,-1.5670000314712524
1621584731048,-0.4900000095367431,6.052999973297119,-6.111999988555908,-0.1959999948740005,-9.638999938964846,-1.5800000429153442
1621584731058,-0.3499999940395355,5.732999801635742,-6.309999942779541,-0.1959999948740005,-9.60099983215332,-1.5729999542236328
1621584731068,-0.699999988079071,5.526000022888184,-6.3470001220703125,-0.1959999948740005,-9.633000373840332,-1.61899995803833
1621584731078,-1.190000057220459,4.914000034332275,-6.098999977111816,-0.2349999994039535,-9.633000373840332,-1.61899995803833
1621584731088,-1.3300000429153442,4.334000110626221,-5.632999897003174,-0.2349999994039535,-9.638999938964846,-1.5800000429153442
1621584731098,-1.4700000286102295,3.9449999332427974,-5.843999862670898,-0.2750000059604644,-9.593999862670898,-1.6119999885559082
1621584731108,-1.399999976158142,3.377000093460083,-5.446000099182129,-0.2349999994039535,-9.633000373840332,-1.61899995803833
1621584731118,-1.4700000286102295,3.4260001182556152,-5.7220001220703125,-0.2750000059604644,-9.60099983215332,-1.5729999542236328
1621584731128,-1.5399999618530271,3.384999990463257,-6.297999858856201,-0.2349999994039535,-9.60099983215332,-1.5729999542236328
1621584731138,-1.2599999904632568,3.061000108718872,-6.071000099182129,-0.2750000059604644,-9.61400032043457,-1.4960000514984133
1621584731148,-1.4700000286102295,2.947000026702881,-6.232999801635742,-0.3529999852180481,-9.562000274658203,-1.5670000314712524
1621584731158,-1.6799999475479126,2.934999942779541,-6.164000034332275,-0.3529999852180481,-9.562000274658203,-1.5670000314712524
1621584731168,-1.6100000143051147,3.1050000190734863,-5.921000003814697,-0.3140000104904174,-9.593999862670898,-1.6119999885559082
1621584731178,-1.190000057220459,2.9800000190734863,-6.013999938964844,-0.3529999852180481,-9.638999938964846,-1.5800000429153442
1621584731188,-1.5399999618530271,3.01200008392334,-5.795000076293945,-0.3529999852180481,-9.593999862670898,-1.6119999885559082
1621584731198,-1.6799999475479126,2.8980000019073486,-5.956999778747559,-0.3529999852180481,-9.593999862670898,-1.6119999885559082
1621584731208,-1.399999976158142,3.510999917984009,-6.204999923706055,-0.3919999897480011,-9.593999862670898,-1.6119999885559082
1621584731218,-1.434999942779541,3.7074999809265137,-6.3125,-0.3919999897480011,-9.593999862670898,-1.6119999885559082
1621584731228,-1.4700000286102295,3.9040000438690186,-6.420000076293945,-0.3919999897480011,-9.579999923706056,-1.6890000104904177
1621584731238,-1.6799999475479126,4.098999977111816,-6.314000129699707,-0.3919999897480011,-9.579999923706056,-1.6890000104904177
1621584731248,-1.4700000286102295,4.455999851226807,-6.322000026702881,-0.3919999897480011,-9.62600040435791,-1.656999945640564
1621584731258,-1.399999976158142,4.760000228881836,-6.836999893188477,-0.3529999852180481,-9.586999893188477,-1.6510000228881836
1621584731268,-1.2599999904632568,4.864999771118164,-7.0320000648498535,-0.3140000104904174,-9.586999893188477,-1.6510000228881836
1621584731278,-0.8399999737739563,4.994999885559082,-7.364999771118165,-0.3140000104904174,-9.60099983215332,-1.5729999542236328
1621584731288,-0.7699999809265136,5.006999969482422,-7.433000087738037,-0.3919999897480011,-9.586999893188477,-1.6510000228881836
1621584731298,-0.699999988079071,4.864999771118164,-7.0320000648498535,-0.3919999897480011,-9.619000434875488,-1.6959999799728394
1621584731308,-0.8399999737739563,5.254000186920166,-6.821000099182129,-0.3529999852180481,-9.62600040435791,-1.656999945640564
1621584731318,-0.9100000262260436,5.460999965667725,-6.784999847412109,-0.3529999852180481,-9.62600040435791,-1.656999945640564
1621584731328,-0.9800000190734864,5.4770002365112305,-7.27899980545044,-0.3140000104904174,-9.586999893188477,-1.6510000228881836
1621584731338,-0.9100000262260436,5.671999931335449,-7.173999786376953,-0.2750000059604644,-9.548999786376951,-1.6440000534057615
1621584731348,-0.8399999737739563,5.383999824523926,-7.1539998054504395,-0.2750000059604644,-9.510000228881836,-1.6369999647140503
1621584731358,-0.5600000023841857,5.164999961853027,-7.120999813079834,-0.2750000059604644,-9.517000198364256,-1.5980000495910645
1621584731368,-0.1400000005960464,4.706999778747559,-7.343999862670899,-0.2349999994039535,-9.548999786376951,-1.6440000534057615
1621584731378,0.4900000095367431,4.11899995803833,-7.235000133514405,-0.2750000059604644,-9.60099983215332,-1.5729999542236328
1621584731388,0.7699999809265136,4.041999816894531,-7.604000091552734,-0.2750000059604644,-9.638999938964846,-1.5800000429153442
1621584731398,0.4900000095367431,3.940000057220459,-7.835000038146973,-0.2750000059604644,-9.67099952697754,-1.6260000467300415
1621584731408,0.4200000166893005,3.9219999313354497,-7.731499671936035,-0.2349999994039535,-9.657999992370604,-1.7029999494552612
1621584731418,0.3499999940395355,3.9040000438690186,-7.627999782562256,-0.2750000059604644,-9.657999992370604,-1.7029999494552612
1621584731428,-0.3499999940395355,4.3379998207092285,-7.267000198364258,-0.3140000104904174,-9.612000465393066,-1.7350000143051147
1621584731438,-0.5600000023841857,4.519999980926514,-7.0929999351501465,-0.2750000059604644,-9.619000434875488,-1.6959999799728394
1621584731448,-0.5600000023841857,4.557000160217285,-7.300000190734864,-0.2750000059604644,-9.62600040435791,-1.656999945640564
1621584731458,-0.6299999952316284,4.625999927520752,-6.078999996185303,-0.2349999994039535,-9.586999893188477,-1.6510000228881836
1621584731468,-0.2800000011920929,4.203999996185303,-5.300000190734863,-0.2349999994039535,-9.55500030517578,-1.6050000190734863
1621584731478,0.3499999940395355,3.775000095367432,-4.879000186920166,-0.2750000059604644,-9.510000228881836,-1.6369999647140503
1621584731488,0.9800000190734864,3.5920000076293945,-5.052999973297119,-0.2750000059604644,-9.517000198364256,-1.5980000495910645
1621584731498,1.3300000429153442,3.372999906539917,-6.229000091552734,-0.2750000059604644,-9.510000228881836,-1.6369999647140503
1621584731508,1.4700000286102295,3.0280001163482666,-7.498000144958496,-0.2750000059604644,-9.548999786376951,-1.6440000534057615
1621584731518,1.190000057220459,2.938999891281128,-7.797999858856201,-0.2750000059604644,-9.62600040435791,-1.656999945640564
1621584731528,0.3499999940395355,3.0769999027252197,-7.77400016784668,-0.2349999994039535,-9.619000434875488,-1.6959999799728394
1621584731538,0.1400000005960464,2.821000099182129,-7.5349998474121085,-0.2750000059604644,-9.633000373840332,-1.61899995803833
1621584731548,0.209999993443489,3.194000005722046,-8.036999702453613,-0.3140000104904174,-9.652999877929688,-1.503000020980835
1621584731558,0.5600000023841857,3.255000114440918,-8.381999969482422,-0.3529999852180481,-9.607999801635742,-1.5349999666213987
1621584731568,0.7699999809265136,3.7170000076293945,-8.585000038146973,-0.2750000059604644,-9.645999908447264,-1.5420000553131104
1621584731578,0.6299999952316284,4.322000026702881,-7.980999946594238,-0.2750000059604644,-9.645999908447264,-1.5420000553131104
1621584731588,1.0499999523162842,5.034999847412109,-7.997000217437744,-0.3140000104904174,-9.607999801635742,-1.5349999666213987
1621584731598,1.3300000429153442,5.538000106811523,-7.624000072479248,-0.2750000059604644,-9.607999801635742,-1.5349999666213987
1621584731608,1.434999942779541,5.882500171661377,-7.563499927520752,-0.3140000104904174,-9.638999938964846,-1.5800000429153442
1621584731618,1.5399999618530271,6.2270002365112305,-7.502999782562256,-0.2750000059604644,-9.638999938964846,-1.5800000429153442
1621584731628,1.6100000143051147,6.409999847412109,-7.328000068664551,-0.2349999994039535,-9.633000373840332,-1.61899995803833
1621584731638,1.6100000143051147,6.880000114440918,-7.173999786376953,-0.1959999948740005,-9.638999938964846,-1.5800000429153442
1621584731648,1.0499999523162842,6.5879998207092285,-6.728000164031982,-0.2349999994039535,-9.645999908447264,-1.5420000553131104
1621584731658,0.9100000262260436,6.820000171661377,-6.829999923706055,-0.2349999994039535,-9.638999938964846,-1.5800000429153442
1621584731668,0.5600000023841857,6.441999912261963,-7.109000205993652,-0.1959999948740005,-9.638999938964846,-1.5800000429153442
1621584731678,0.209999993443489,6.23199987411499,-6.71999979019165,-0.1959999948740005,-9.633000373840332,-1.61899995803833
1621584731688,-0.209999993443489,5.8379998207092285,-6.505000114440918,-0.1959999948740005,-9.638999938964846,-1.5800000429153442
1621584731698,-0.4199999868869781,5.3520002365112305,-6.164000034332275,-0.1570000052452087,-9.60099983215332,-1.5729999542236328
1621584731708,-0.699999988079071,4.776000022888184,-6.124000072479248,-0.1959999948740005,-9.60099983215332,-1.5729999542236328
1621584731718,-0.6299999952316284,4.244999885559082,-5.933000087738037,-0.1570000052452087,-9.633000373840332,-1.61899995803833
1621584731728,-0.8399999737739563,3.871999979019165,-5.429999828338623,-0.1570000052452087,-9.638999938964846,-1.5800000429153442
1621584731738,-1.1200000047683716,3.615999937057495,-5.190999984741211,-0.1959999948740005,-9.60099983215332,-1.5729999542236328
1621584731748,-1.5399999618530271,3.4660000801086426,-5.145999908447266,-0.2349999994039535,-9.638999938964846,-1.5800000429153442
1621584731758,-1.5399999618530271,3.4100000858306885,-5.2270002365112305,-0.2349999994039535,-9.638999938964846,-1.5800000429153442
1621584731768,-1.6100000143051147,3.5230000019073486,-5.065000057220459,-0.2349999994039535,-9.6850004196167,-1.5479999780654907
1621584731778,-1.75,3.4660000801086426,-5.145999908447266,-0.2750000059604644,-9.678000450134276,-1.587000012397766
1621584731788,-2.1700000762939453,3.421999931335449,-5.296000003814697,-0.2750000059604644,-9.638999938964846,-1.5800000429153442
1621584731798,-2.1700000762939453,3.2960000038146973,-5.389999866485596,-0.3140000104904174,-9.633000373840332,-1.61899995803833
1621584731808,-2.2750000953674316,3.393499851226806,-5.336999893188477,-0.3529999852180481,-9.593999862670898,-1.6119999885559082
1621584731818,-2.380000114440918,3.490999937057495,-5.283999919891357,-0.3529999852180481,-9.638999938964846,-1.5800000429153442
1621584731828,-2.240000009536743,3.66100001335144,-5.040999889373779,-0.3919999897480011,-9.633000373840332,-1.61899995803833
1621584731838,-2.0299999713897705,3.802999973297119,-5.441999912261963,-0.3919999897480011,-9.593999862670898,-1.6119999885559082
1621584731848,-2.450000047683716,4.196000099182129,-5.6570000648498535,-0.3529999852180481,-9.633000373840332,-1.61899995803833
1621584731858,-2.450000047683716,4.5329999923706055,-5.953000068664551,-0.3529999852180481,-9.60099983215332,-1.5729999542236328
1621584731868,-2.5899999141693115,4.580999851226807,-6.229000091552734,-0.3529999852180481,-9.60099983215332,-1.5729999542236328
1621584731878,-2.5899999141693115,4.873000144958496,-6.675000190734863,-0.3140000104904174,-9.60099983215332,-1.5729999542236328
1621584731888,-2.7300000190734863,5.125,-6.488999843597412,-0.3140000104904174,-9.60099983215332,-1.5729999542236328
1621584731898,-2.380000114440918,5.22599983215332,-6.257999897003174,-0.3140000104904174,-9.55500030517578,-1.6050000190734863
1621584731908,-2.240000009536743,5.22599983215332,-6.257999897003174,-0.3140000104904174,-9.593999862670898,-1.6119999885559082
1621584731918,-1.8200000524520872,5.193999767303467,-6.4770002365112305,-0.3140000104904174,-9.55500030517578,-1.6050000190734863
1621584731928,-1.75,5.318999767303467,-6.382999897003174,-0.2750000059604644,-9.548999786376951,-1.6440000534057615
1621584731938,-1.399999976158142,5.144999980926514,-6.201000213623047,-0.2349999994039535,-9.548999786376951,-1.6440000534057615
1621584731948,-1.0499999523162842,4.958000183105469,-5.948999881744385,-0.2750000059604644,-9.586999893188477,-1.6510000228881836
1621584731958,-0.7699999809265136,4.76800012588501,-6.480999946594238,-0.2750000059604644,-9.510000228881836,-1.6369999647140503
1621584731968,-0.7699999809265136,4.577000141143799,-7.01200008392334,-0.2750000059604644,-9.586999893188477,-1.6510000228881836
1621584731978,-0.4900000095367431,4.4029998779296875,-6.828999996185303,-0.3140000104904174,-9.62600040435791,-1.656999945640564
1621584731988,-0.3499999940395355,4.519999980926514,-7.0929999351501465,-0.3140000104904174,-9.633000373840332,-1.61899995803833
1621584731998,-0.4900000095367431,4.09499979019165,-7.0970001220703125,-0.2750000059604644,-9.638999938964846,-1.5800000429153442
1621584732008,-0.9800000190734864,4.464000225067139,-7.173999786376953,-0.2750000059604644,-9.663999557495115,-1.6640000343322754
1621584732018,-1.190000057220459,4.605500221252441,-6.970999717712402,-0.3140000104904174,-9.633000373840332,-1.61899995803833
1621584732028,-1.399999976158142,4.747000217437744,-6.76800012588501,-0.3529999852180481,-9.633000373840332,-1.61899995803833
1621584732038,-1.4700000286102295,4.953999996185303,-6.73199987411499,-0.3140000104904174,-9.62600040435791,-1.656999945640564
1621584732048,-1.2599999904632568,4.864999771118164,-7.0320000648498535,-0.2750000059604644,-9.633000373840332,-1.61899995803833
1621584732058,-0.7699999809265136,4.718999862670898,-6.204999923706055,-0.2349999994039535,-9.60099983215332,-1.5729999542236328
1621584732068,-0.6299999952316284,4.38700008392334,-5.125999927520752,-0.2349999994039535,-9.55500030517578,-1.6050000190734863
1621584732078,-0.209999993443489,3.864000082015991,-4.578999996185303,-0.2349999994039535,-9.586999893188477,-1.6510000228881836
1621584732088,0.209999993443489,3.361000061035156,-4.952000141143799,-0.2349999994039535,-9.619000434875488,-1.6959999799728394
1621584732098,0.2800000011920929,3.2309999465942383,-5.827000141143799,-0.3140000104904174,-9.619000434875488,-1.6959999799728394
1621584732108,0.0,3.0929999351501465,-7.059999942779541,-0.3140000104904174,-9.612000465393066,-1.7350000143051147
1621584732118,-0.5600000023841857,2.874000072479248,-8.236000061035156,-0.2750000059604644,-9.651000022888184,-1.7419999837875366
1621584732128,-1.1200000047683716,2.678999900817871,-8.340999603271484,-0.2349999994039535,-9.619000434875488,-1.6959999799728394
1621584732138,-1.4700000286102295,1.9980000257492063,-8.105999946594238,-0.1959999948740005,-9.651000022888184,-1.7419999837875366
1621584732148,-1.0499999523162842,1.6169999837875366,-7.960000038146973,-0.1570000052452087,-9.663999557495115,-1.6640000343322754
1621584732158,-1.190000057220459,1.0740000009536743,-7.701000213623046,-0.0780000016093254,-9.651000022888184,-1.7419999837875366
1621584732168,-1.0499999523162842,0.1169999986886978,-7.513999938964843,-0.0780000016093254,-9.62600040435791,-1.656999945640564
1621584732178,-0.9800000190734864,-1.0880000591278076,-6.730999946594238,0.0780000016093254,-9.586999893188477,-1.6510000228881836
1621584732188,-0.8399999737739563,-3.7439999580383305,-5.7779998779296875,0.1959999948740005,-9.62600040435791,-1.656999945640564
1621584732198,-0.9100000262260436,-7.9650001525878915,-4.815999984741211,0.3529999852180481,-9.67099952697754,-1.6260000467300415
1621584732208,-1.9600000381469729,-13.475000381469728,-3.79800009727478,0.5099999904632568,-9.77400016784668,-1.7230000495910645
1621584732218,-3.9200000762939458,-19.447999954223633,-2.575999975204468,0.5490000247955322,-9.85099983215332,-1.7369999885559082
1621584732228,-5.25,-22.34149932861328,-2.6954998970031734,0.5879999995231628,-9.869000434875488,-1.8600000143051147
1621584732238,-6.579999923706055,-25.23500061035156,-2.815000057220459,0.5099999904632568,-9.901000022888184,-1.9049999713897705
1621584732248,-8.890000343322754,-30.834999084472656,-4.513000011444092,0.4709999859333038,-9.869000434875488,-1.8600000143051147
1621584732258,-11.0600004196167,-35.50199890136719,-6.260000228881836,0.3529999852180481,-9.87600040435791,-1.8209999799728391
1621584732268,-12.8100004196167,-39.3380012512207,-7.078999996185303,0.2750000059604644,-9.767000198364256,-1.7619999647140503
1621584732278,-14.210000038146973,-42.64300155639648,-8.088000297546387,0.1570000052452087,-9.604999542236328,-1.7730000019073486
1621584732288,-14.0,-45.46599960327149,-9.012000083923342,0.0390000008046627,-9.458000183105469,-1.7070000171661377
1621584732298,-13.579999923706056,-47.926998138427734,-9.161999702453612,-0.1180000007152557,-9.46500015258789,-1.6690000295639038
1621584732308,-13.159999847412108,-49.54499816894531,-8.45199966430664,-0.2349999994039535,-9.380000114440918,-1.694000005722046
1621584732318,-12.460000038146973,-50.529998779296875,-7.702000141143799,-0.3529999852180481,-9.37399959564209,-1.7319999933242798
1621584732328,-11.199999809265137,-50.63600158691406,-7.506999969482423,-0.4309999942779541,-9.404999732971191,-1.7779999971389773
1621584732338,-9.9399995803833,-50.099998474121094,-6.914999961853027,-0.5490000247955322,-9.411999702453612,-1.7389999628067017
1621584732348,-9.029999732971191,-48.79100036621094,-6.684000015258789,-0.6280000209808348,-9.404999732971191,-1.7779999971389773
1621584732358,-7.9099998474121085,-47.124000549316406,-6.460999965667725,-0.7059999704360961,-9.404999732971191,-1.7779999971389773
1621584732368,-6.579999923706055,-44.72700119018555,-6.749000072479248,-0.7450000047683715,-9.366999626159668,-1.7710000276565552
1621584732378,-5.25,-42.71599960327149,-6.466000080108643,-0.8240000009536743,-9.392000198364256,-1.8550000190734863
1621584732388,-4.340000152587891,-40.61600112915039,-5.881999969482422,-0.9020000100135804,-9.39900016784668,-1.8170000314712524
1621584732398,-3.2200000286102295,-38.012001037597656,-4.926000118255615,-0.9409999847412108,-9.352999687194824,-1.8480000495910645
1621584732408,-2.380000114440918,-35.5989990234375,-4.5,-1.0199999809265137,-9.3149995803833,-1.8420000076293943
1621584732418,-1.6799999475479126,-32.882999420166016,-4.590000152587891,-1.0980000495910645,-9.3149995803833,-1.8420000076293943
1621584732428,-0.7699999809265136,-30.23900032043457,-4.265999794006348,-1.0590000152587893,-9.3149995803833,-1.8420000076293943
1621584732438,-0.3849999904632568,-28.973499298095703,-4.184999942779541,-1.0980000495910645,-9.282999992370604,-1.7960000038146973
1621584732448,0.0,-27.70800018310547,-4.104000091552734,-1.1380000114440918,-9.37399959564209,-1.7319999933242798
1621584732458,1.399999976158142,-24.893999099731445,-3.5369999408721924,-1.1380000114440918,-9.335000038146973,-1.72599995136261
1621584732468,2.5899999141693115,-23.155000686645508,-3.7269999980926514,-1.1380000114440918,-9.366999626159668,-1.7710000276565552
1621584732478,3.990000009536743,-21.118999481201172,-3.5820000171661377,-1.0590000152587893,-9.46500015258789,-1.6690000295639038
1621584732488,4.760000228881836,-18.559999465942383,-3.9830000400543217,-1.0590000152587893,-9.579999923706056,-1.6890000104904177
1621584732498,4.760000228881836,-16.111000061035156,-4.9730000495910645,-1.0590000152587893,-9.482999801635742,-1.7920000553131104
1621584732507,4.690000057220459,-14.241999626159668,-6.704999923706055,-1.0199999809265137,-9.56700038909912,-1.7669999599456787
1621584732517,5.110000133514404,-12.33199977874756,-7.861000061035157,-0.981000006198883,-9.612000465393066,-1.7350000143051147
1621584732527,4.829999923706055,-11.208999633789064,-8.586999893188477,-0.9409999847412108,-9.696000099182127,-1.7100000381469729
1621584732538,4.760000228881836,-10.312999725341797,-9.637000083923342,-0.8240000009536743,-9.663999557495115,-1.6640000343322754
1621584732547,4.96999979019165,-9.875,-10.91100025177002,-0.7450000047683715,-9.607999801635742,-1.5349999666213987
1621584732557,5.389999866485596,-9.78999996185303,-11.392999649047852,-0.7450000047683715,-9.583000183105469,-1.4509999752044678
1621584732567,5.949999809265137,-9.142000198364256,-11.847000122070312,-0.7450000047683715,-9.621000289916992,-1.4570000171661377
1621584732577,6.090000152587891,-8.663000106811523,-12.545000076293944,-0.7450000047683715,-9.583000183105469,-1.4509999752044678
1621584732587,6.71999979019165,-8.331000328063965,-13.62399959564209,-0.7059999704360961,-9.576000213623049,-1.4889999628067017
1621584732597,6.510000228881836,-8.01099967956543,-14.633000373840332,-0.6669999957084655,-9.633000373840332,-1.61899995803833
1621584732607,5.53000020980835,-7.504000186920166,-14.685999870300291,-0.6280000209808348,-9.70300006866455,-1.6710000038146973
1621584732617,4.900000095367432,-6.867000102996826,-13.86299991607666,-0.6280000209808348,-9.710000038146973,-1.631999969482422
1621584732627,4.409999847412109,-6.619999885559082,-13.25100040435791,-0.6280000209808348,-9.729999542236328,-1.5169999599456787
1621584732637,3.849999904632568,-6.380000114440918,-12.994999885559082,-0.5879999995231628,-9.673999786376951,-1.3869999647140503
1621584732647,3.6050000190734863,-6.223999977111816,-12.469999313354492,-0.5490000247955322,-9.635000228881836,-1.3799999952316284
1621584732657,3.359999895095825,-6.067999839782715,-11.94499969482422,-0.5099999904632568,-9.666999816894531,-1.4259999990463257
1621584732667,3.1500000953674316,-6.2220001220703125,-10.265999794006348,-0.5879999995231628,-9.652999877929688,-1.503000020980835
1621584732677,2.799999952316284,-6.671999931335449,-8.923999786376953,-0.5879999995231628,-9.704999923706056,-1.4320000410079956
1621584732687,2.450000047683716,-6.861999988555908,-8.246999740600586,-0.6280000209808348,-9.762000083923342,-1.562000036239624
1621584732697,1.8899999856948853,-7.0929999351501465,-8.145000457763672,-0.6280000209808348,-9.852999687194824,-1.4980000257492063
1621584732707,0.6299999952316284,-7.173999786376953,-8.08899974822998,-0.5879999995231628,-9.852999687194824,-1.4980000257492063
1621584732717,-0.6299999952316284,-7.692999839782715,-7.967000007629395,-0.5490000247955322,-9.814000129699709,-1.4919999837875366
1621584732727,-1.8200000524520872,-8.204000473022461,-8.696999549865723,-0.4709999859333038,-9.814000129699709,-1.4919999837875366
1621584732737,-2.7300000190734863,-8.878000259399414,-9.312999725341797,-0.3919999897480011,-9.776000022888184,-1.4850000143051147
1621584732747,-3.6400001049041744,-10.093999862670898,-9.670000076293944,-0.2750000059604644,-9.80799961090088,-1.5299999713897705
1621584732757,-4.760000228881836,-12.376999855041504,-9.218999862670898,-0.1570000052452087,-9.776000022888184,-1.4850000143051147
1621584732767,-5.880000114440918,-15.406000137329102,-8.972000122070312,0.0,-9.69200038909912,-1.5099999904632568
1621584732777,-6.789999961853027,-19.40800094604492,-9.25100040435791,0.1570000052452087,-9.69200038909912,-1.5099999904632568
1621584732787,-7.8400001525878915,-24.36400032043457,-9.76900005340576,0.3140000104904174,-9.652999877929688,-1.503000020980835
1621584732797,-8.890000343322754,-30.10199928283691,-10.282999992370604,0.3919999897480011,-9.666999816894531,-1.4259999990463257
1621584732807,-10.359999656677246,-36.172000885009766,-10.927000045776367,0.3919999897480011,-9.699000358581545,-1.4709999561309814
1621584732817,-11.829999923706056,-42.39699935913086,-12.309000015258787,0.3140000104904174,-9.762000083923342,-1.562000036239624
1621584732827,-13.579999923706056,-47.75400161743164,-14.178000450134276,0.2750000059604644,-9.871000289916992,-1.6210000514984133
1621584732837,-16.030000686645508,-53.1510009765625,-15.413999557495115,0.1959999948740005,-9.954999923706056,-1.5959999561309814
1621584732847,-18.549999237060547,-58.020999908447266,-16.415000915527344,0.1570000052452087,-10.00100040435791,-1.5640000104904177
1621584732857,-19.634998321533203,-60.21099853515625,-16.694499969482422,0.1180000007152557,-10.038999557495115,-1.5709999799728394
1621584732867,-20.719999313354492,-62.4010009765625,-16.974000930786133,0.0390000008046627,-9.97599983215332,-1.4800000190734863
1621584732877,-23.100000381469727,-66.5770034790039,-17.06999969482422,-0.0390000008046627,-9.859999656677246,-1.4600000381469729
1621584732887,-25.40999984741211,-70.64800262451172,-17.36199951171875,-0.1180000007152557,-9.82800006866455,-1.4140000343322754
1621584732897,-26.25,-73.625,-17.815000534057617,-0.2349999994039535,-9.673999786376951,-1.3869999647140503
1621584732907,-27.3700008392334,-75.86699676513672,-17.99799919128418,-0.3529999852180481,-9.58899974822998,-1.4119999408721924
1621584732917,-27.3700008392334,-77.66000366210938,-18.31399917602539,-0.5490000247955322,-9.512000083923342,-1.3980000019073486
1621584732927,-27.020000457763672,-78.46700286865236,-18.17200088500977,-0.6669999957084655,-9.473999977111816,-1.3919999599456787
1621584732937,-26.38999938964844,-77.80999755859375,-18.268999099731445,-0.7850000262260437,-9.49899959564209,-1.47599995136261
1621584732947,-25.270000457763672,-76.69100189208984,-18.569000244140625,-0.8629999756813049,-9.4399995803833,-1.5850000381469729
1621584732957,-24.010000228881836,-75.44999694824219,-18.350000381469727,-0.9409999847412108,-9.43299961090088,-1.6230000257492063
1621584732967,-22.68000030517578,-73.12999725341797,-17.798999786376953,-0.981000006198883,-9.4399995803833,-1.5850000381469729
1621584732977,-21.280000686645508,-70.7699966430664,-17.881000518798828,-1.0590000152587893,-9.37399959564209,-1.7319999933242798
1621584732987,-19.809999465942383,-68.67400360107422,-18.079999923706055,-1.1380000114440918,-9.342000007629396,-1.687000036239624
1621584732997,-17.780000686645508,-66.31400299072266,-18.160999298095703,-1.1770000457763672,-9.211999893188477,-1.74399995803833
1621584733007,-15.119999885559082,-64.05899810791016,-18.04800033569336,-1.215999960899353,-9.095999717712402,-1.7230000495910645
1621584733017,-12.390000343322754,-61.722999572753906,-16.783000946044922,-1.2940000295639038,-9.09000015258789,-1.7619999647140503
1621584733027,-9.449999809265137,-59.15599822998047,-15.619999885559082,-1.3730000257492063,-9.050999641418455,-1.7549999952316284
1621584733037,-5.809999942779541,-56.584999084472656,-14.881999969482422,-1.4509999752044678,-9.012000083923342,-1.7480000257492063
1621584733047,-1.8200000524520872,-53.86000061035156,-14.614999771118164,-1.5299999713897705,-8.973999977111816,-1.7419999837875366
1621584733057,0.0,-52.77750015258789,-14.104000091552734,-1.569000005722046,-8.980999946594238,-1.7029999494552612
1621584733067,1.8200000524520872,-51.69499969482422,-13.593000411987305,-1.6080000400543213,-8.994000434875488,-1.6260000467300415
1621584733077,5.320000171661377,-49.262001037597656,-12.880000114440918,-1.687000036239624,-8.956000328063965,-1.61899995803833
1621584733087,8.609999656677246,-46.21200180053711,-12.840000152587892,-1.72599995136261,-9.008000373840332,-1.5479999780654907
1621584733097,11.340000152587892,-43.358001708984375,-12.904999732971191,-1.687000036239624,-9.0600004196167,-1.4780000448226929
1621584733107,13.649999618530272,-40.422000885009766,-13.027000427246094,-1.72599995136261,-9.112000465393066,-1.4079999923706057
1621584733117,15.050000190734863,-37.5099983215332,-13.01099967956543,-1.7649999856948853,-9.1899995803833,-1.4210000038146973
1621584733127,16.239999771118164,-34.20600128173828,-13.210000038146973,-1.7649999856948853,-9.312000274658203,-1.4029999971389773
1621584733137,16.8700008392334,-31.266000747680664,-12.550000190734863,-1.7649999856948853,-9.428000450134276,-1.4229999780654907
1621584733147,16.729999542236328,-28.082000732421875,-12.0600004196167,-1.7649999856948853,-9.58899974822998,-1.4119999408721924
1621584733157,16.309999465942383,-25.024999618530273,-11.663000106811523,-1.8040000200271609,-9.711999893188477,-1.3940000534057615
1621584733167,14.909999847412108,-21.8700008392334,-10.609000205993652,-1.843999981880188,-9.821000099182127,-1.4529999494552612
1621584733177,12.670000076293944,-18.464000701904297,-9.369000434875488,-1.843999981880188,-9.89900016784668,-1.4670000076293943
1621584733187,9.729999542236328,-14.663999557495115,-8.343000411987305,-1.843999981880188,-9.961999893188477,-1.5570000410079956
1621584733197,6.929999828338623,-10.774999618530272,-7.01800012588501,-1.8830000162124632,-10.00100040435791,-1.5640000104904177
1621584733207,3.9200000762939458,-6.736000061035156,-5.736999988555908,-1.8830000162124632,-10.038999557495115,-1.5709999799728394
1621584733217,1.3300000429153442,-2.069000005722046,-3.990000009536743,-1.8830000162124632,-10.064000129699709,-1.6549999713897705
1621584733227,-1.399999976158142,2.1570000648498535,-1.7519999742507937,-1.8040000200271609,-10.116999626159668,-1.5850000381469729
1621584733237,-4.340000152587891,6.4679999351501465,0.003000000026077,-1.7649999856948853,-10.142000198364258,-1.6690000295639038
1621584733247,-7.280000209808349,10.039999961853027,0.7039999961853027,-1.687000036239624,-10.128000259399414,-1.7460000514984133
1621584733257,-8.40000057220459,11.771499633789064,0.7604999542236328,-1.6080000400543213,-10.107999801635742,-1.861999988555908
1621584733267,-9.520000457763674,13.503000259399414,0.8169999718666076,-1.491000056266785,-10.017000198364258,-1.9259999990463257
1621584733277,-11.6899995803833,16.697999954223633,0.0299999993294477,-1.3730000257492063,-9.925999641418455,-1.9889999628067017
1621584733287,-13.579999923706056,19.378999710083008,-1.0609999895095823,-1.2549999952316284,-9.842000007629396,-2.013999938964844
1621584733297,-14.630000114440918,21.593000411987305,-1.52400004863739,-1.1770000457763672,-9.758000373840332,-2.0390000343322754
1621584733307,-15.050000190734863,22.8700008392334,-1.5119999647140503,-1.0980000495910645,-9.602999687194824,-2.01200008392334
1621584733317,-15.470000267028809,23.785999298095703,-1.0659999847412107,-1.0199999809265137,-9.487000465393066,-1.9919999837875368
1621584733327,-15.960000038146973,24.55699920654297,-1.0010000467300415,-0.981000006198883,-9.44200038909912,-2.0230000019073486
1621584733337,-15.81999969482422,25.06800079345703,-1.4800000190734863,-0.9020000100135804,-9.44200038909912,-2.0230000019073486
1621584733347,-15.960000038146973,25.506000518798828,-0.335999995470047,-0.8629999756813049,-9.479999542236328,-2.0299999713897705
1621584733357,-15.960000038146973,25.30699920654297,1.1929999589920044,-0.8629999756813049,-9.512000083923342,-2.075999975204468
1621584733367,-16.3799991607666,24.844999313354492,2.6040000915527344,-0.9020000100135804,-9.614999771118164,-2.1730000972747803
1621584733377,-16.729999542236328,23.86000061035156,4.563000202178955,-0.8240000009536743,-9.621000289916992,-2.134999990463257
1621584733387,-17.219999313354492,22.902999877929688,5.958000183105469,-0.7850000262260437,-9.576000213623049,-2.1659998893737793
1621584733397,-17.5,21.572999954223633,6.646999835968018,-0.7450000047683715,-9.49899959564209,-2.1530001163482666
1621584733407,-16.59000015258789,20.23900032043457,6.553999900817871,-0.6669999957084655,-9.49899959564209,-2.1530001163482666
1621584733417,-15.470000267028809,18.336999893188477,5.650000095367432,-0.6669999957084655,-9.42099952697754,-2.138999938964844
1621584733427,-14.489999771118164,16.030000686645508,5.03000020980835,-0.6669999957084655,-9.35099983215332,-2.086999893188477
1621584733437,-13.510000228881836,13.986000061035156,3.319000005722046,-0.6669999957084655,-9.281000137329102,-2.0350000858306885
1621584733447,-12.460000038146973,11.70699977874756,2.134999990463257,-0.6669999957084655,-9.16499996185303,-2.013999938964844
1621584733457,-11.690000534057615,10.261499404907228,1.6670000553131104,-0.7059999704360961,-9.20300006866455,-2.0209999084472656
1621584733467,-10.920000076293944,8.815999984741211,1.1990000009536743,-0.7450000047683715,-9.281000137329102,-2.0350000858306885
1621584733477,-10.149999618530272,6.050000190734863,0.356000006198883,-0.7450000047683715,-9.4350004196167,-2.062000036239624
1621584733487,-9.800000190734863,3.775000095367432,-0.0450000017881393,-0.7850000262260437,-9.479999542236328,-2.0299999713897705
1621584733497,-9.239999771118164,1.2769999504089355,-1.1959999799728394,-0.7850000262260437,-9.371000289916992,-1.9709999561309817
1621584733507,-8.539999961853027,-0.3659999966621398,-3.973999977111816,-0.7850000262260437,-9.244000434875488,-1.7890000343322754
1621584733517,-6.860000133514404,-1.3309999704360962,-7.769000053405762,-0.7450000047683715,-9.01900005340576,-1.7100000381469729
1621584733527,-4.480000019073486,-2.443000078201294,-10.737000465393066,-0.7059999704360961,-8.916999816894531,-1.6119999885559082
1621584733537,-1.6100000143051147,-3.8420000076293945,-12.47700023651123,-0.7059999704360961,-8.859999656677246,-1.4830000400543213
1621584733547,2.309999942779541,-6.295000076293945,-14.685999870300291,-0.7059999704360961,-8.866999626159668,-1.444000005722046
1621584733557,7.0,-8.282999992370605,-17.524999618530273,-0.7450000047683715,-8.951000213623047,-1.4190000295639038
1621584733567,11.130000114440918,-9.633000373840332,-19.540000915527344,-0.7450000047683715,-9.027999877929688,-1.4329999685287476
1621584733577,14.0,-10.927000045776367,-21.474000930786133,-0.7450000047683715,-9.220999717712402,-1.4670000076293943
1621584733587,15.960000038146973,-11.616999626159668,-22.804000854492188,-0.7450000047683715,-9.37600040435791,-1.49399995803833
1621584733597,16.520000457763672,-12.744000434875488,-24.069000244140625,-0.7450000047683715,-9.446000099182127,-1.5460000038146973
1621584733607,16.65999984741211,-13.470000267028809,-25.191999435424805,-0.7450000047683715,-9.55500030517578,-1.6050000190734863
1621584733617,15.81999969482422,-14.3100004196167,-25.268999099731445,-0.7450000047683715,-9.645999908447264,-1.5420000553131104
1621584733627,15.050000190734863,-15.107999801635742,-24.770000457763672,-0.7850000262260437,-9.65999984741211,-1.4639999866485596
1621584733637,13.859999656677246,-15.630999565124512,-24.222000122070312,-0.8629999756813049,-9.711999893188477,-1.3940000534057615
1621584733647,13.510000228881836,-15.956000328063965,-23.9950008392334,-0.9409999847412108,-9.628000259399414,-1.4190000295639038
1621584733657,12.18000030517578,-15.857999801635742,-23.33799934387207,-0.981000006198883,-9.58899974822998,-1.4119999408721924
1621584733667,11.760000228881836,-14.99899959564209,-22.972999572753903,-0.9409999847412108,-9.621000289916992,-1.4570000171661377
1621584733677,11.725000381469728,-14.357999801635742,-22.576000213623047,-0.9409999847412108,-9.673999786376951,-1.3869999647140503
1621584733687,11.6899995803833,-13.717000007629396,-22.179000854492188,-0.981000006198883,-9.628000259399414,-1.4190000295639038
1621584733697,10.850000381469728,-12.881999969482422,-21.676000595092773,-0.981000006198883,-9.642000198364256,-1.3420000076293943
1621584733707,10.850000381469728,-11.053000450134276,-22.774999618530273,-0.981000006198883,-9.758000373840332,-1.3619999885559082
1621584733717,10.779999732971191,-9.232000350952148,-23.02300071716309,-0.981000006198883,-9.835000038146973,-1.3760000467300415
1621584733727,9.9399995803833,-7.467999935150147,-22.14299964904785,-0.981000006198883,-9.835000038146973,-1.3760000467300415
1621584733737,9.029999732971191,-5.611000061035156,-21.388999938964844,-0.9409999847412108,-9.873000144958496,-1.381999969482422
1621584733747,7.980000019073486,-4.264999866485596,-20.156999588012695,-0.9020000100135804,-9.835000038146973,-1.3760000467300415
1621584733757,6.159999847412109,-2.690999984741211,-18.600000381469727,-0.8629999756813049,-9.904999732971191,-1.4279999732971191
1621584733767,4.550000190734863,-1.1460000276565552,-16.479000091552734,-0.8629999756813049,-9.904999732971191,-1.4279999732971191
1621584733777,3.430000066757202,0.4199999868869781,-15.279000282287598,-0.8240000009536743,-9.873000144958496,-1.381999969482422
1621584733787,2.5199999809265137,1.3079999685287476,-14.270000457763672,-0.7850000262260437,-9.842000007629396,-1.337000012397766
1621584733797,1.8200000524520872,1.9650000333786013,-13.159000396728516,-0.7059999704360961,-9.75100040435791,-1.4010000228881836
1621584733807,1.190000057220459,2.447999954223633,-11.864999771118164,-0.7059999704360961,-9.718999862670898,-1.3550000190734863
1621584733817,1.1200000047683716,3.1649999618530273,-11.098999977111816,-0.7059999704360961,-9.72599983215332,-1.3170000314712524
1621584733827,0.7699999809265136,3.76200008392334,-10.85200023651123,-0.6280000209808348,-9.68000030517578,-1.3480000495910645
1621584733837,0.7699999809265136,4.427000045776367,-10.592000007629396,-0.5879999995231628,-9.673999786376951,-1.3869999647140503
1621584733847,0.0,4.938000202178955,-9.862000465393066,-0.6280000209808348,-9.704999923706056,-1.4320000410079956
1621584733857,-0.699999988079071,5.2220001220703125,-9.45699977874756,-0.6280000209808348,-9.699000358581545,-1.4709999561309814
1621584733867,-1.399999976158142,5.355000019073486,-9.006999969482422,-0.6280000209808348,-9.744000434875488,-1.4390000104904177
1621584733877,-2.0299999713897705,5.676000118255615,-8.807999610900879,-0.6669999957084655,-9.737000465393066,-1.4780000448226929
1621584733887,-2.7300000190734863,5.696000099182129,-8.520000457763672,-0.6280000209808348,-9.729999542236328,-1.5169999599456787
1621584733897,-3.2899999618530273,6.004000186920166,-8.253000259399414,-0.5879999995231628,-9.69200038909912,-1.5099999904632568
1621584733907,-3.46500015258789,6.0995001792907715,-7.987500190734864,-0.6280000209808348,-9.6850004196167,-1.5479999780654907
1621584733917,-3.6400001049041744,6.195000171661377,-7.722000122070312,-0.6280000209808348,-9.60099983215332,-1.5729999542236328
1621584733927,-3.7799999713897705,6.617000102996826,-7.291999816894531,-0.6280000209808348,-9.55500030517578,-1.6050000190734863
1621584733937,-3.7100000381469727,6.755000114440918,-7.267000198364258,-0.6280000209808348,-9.52400016784668,-1.559999942779541
1621584733947,-3.7799999713897705,6.875999927520752,-6.748000144958496,-0.6669999957084655,-9.517000198364256,-1.5980000495910645
1621584733957,-3.359999895095825,7.625999927520752,-6.9720001220703125,-0.6669999957084655,-9.55500030517578,-1.6050000190734863
1621584733967,-2.940000057220459,8.664999961853027,-7.2150001525878915,-0.6669999957084655,-9.62600040435791,-1.656999945640564
1621584733977,-3.359999895095825,9.84000015258789,-7.434000015258789,-0.7059999704360961,-9.663999557495115,-1.6640000343322754
1621584733987,-3.7799999713897705,10.857999801635742,-7.9660000801086435,-0.6669999957084655,-9.62600040435791,-1.656999945640564
1621584733997,-3.7799999713897705,11.883999824523926,-8.140000343322754,-0.7059999704360961,-9.62600040435791,-1.656999945640564
1621584734007,-3.849999904632568,12.873000144958496,-8.107999801635742,-0.6669999957084655,-9.586999893188477,-1.6510000228881836
1621584734017,-4.130000114440918,14.078000068664553,-7.682000160217285,-0.6280000209808348,-9.541999816894531,-1.6820000410079956
1621584734027,-4.409999847412109,14.406000137329102,-7.126999855041504,-0.5879999995231628,-9.593999862670898,-1.6119999885559082
1621584734037,-4.690000057220459,15.152999877929688,-6.923999786376953,-0.5879999995231628,-9.586999893188477,-1.6510000228881836
1621584734047,-4.199999809265137,15.739999771118164,-7.033999919891357,-0.6280000209808348,-9.548999786376951,-1.6440000534057615
1621584734057,-3.6400001049041744,16.680999755859375,-6.724999904632568,-0.7450000047683715,-9.517000198364256,-1.5980000495910645
1621584734067,-3.2899999618530273,17.483999252319336,-6.441999912261963,-0.7450000047683715,-9.46500015258789,-1.6690000295639038
1621584734077,-2.7300000190734863,18.676000595092773,-5.947000026702881,-0.6669999957084655,-9.536999702453612,-1.4830000400543213
1621584734087,-2.309999942779541,19.722999572753903,-5.834000110626221,-0.7059999704360961,-9.517000198364256,-1.5980000495910645
1621584734097,-1.3300000429153442,21.05299949645996,-5.315000057220459,-0.7850000262260437,-9.548999786376951,-1.6440000534057615
1621584734107,-1.399999976158142,22.520999908447266,-4.771999835968018,-0.8240000009536743,-9.579999923706056,-1.6890000104904177
1621584734117,-1.4700000286102295,23.98500061035156,-3.802999973297119,-0.9409999847412108,-9.612000465393066,-1.7350000143051147
1621584734127,-0.9800000190734864,26.993999481201172,-3.130000114440918,-1.1770000457763672,-9.68299961090088,-1.7869999408721924
1621584734137,-0.9099999666213988,29.347999572753903,-2.572999954223633,-1.491000056266785,-9.64400005340576,-1.7799999713897705
1621584734147,-0.8399999737739563,31.70199966430664,-2.0160000324249268,-1.8040000200271609,-9.612000465393066,-1.7350000143051147
1621584734157,0.2800000011920929,38.57500076293945,-1.0880000591278076,-2.0789999961853027,-9.510000228881836,-1.6369999647140503
1621584734167,1.5399999618530271,47.89799880981445,0.0579999983310699,-2.2750000953674316,-9.484999656677246,-1.5529999732971191
1621584734177,3.0799999237060547,58.97999954223633,1.3020000457763672,-2.3540000915527344,-9.49899959564209,-1.47599995136261
1621584734186,4.480000019073486,70.62200164794922,2.999000072479248,-2.3540000915527344,-9.543999671936035,-1.444000005722046
1621584734196,5.389999866485596,81.4209976196289,5.045000076293945,-2.3540000915527344,-9.621000289916992,-1.4570000171661377
1621584734206,5.949999809265137,91.0189971923828,7.448999881744384,-2.236000061035156,-9.621000289916992,-1.4570000171661377
1621584734216,6.230000019073486,99.59600067138672,9.60099983215332,-2.118000030517578,-9.673999786376951,-1.3869999647140503
1621584734226,5.880000114440918,107.06600189208984,11.984000205993652,-1.8040000200271609,-9.673999786376951,-1.3869999647140503
1621584734236,5.739999771118164,113.93499755859376,14.54599952697754,-1.687000036239624,-9.673999786376951,-1.3869999647140503
1621584734246,5.179999828338623,120.39900207519533,16.183000564575195,-1.6080000400543213,-9.64900016784668,-1.3029999732971191
1621584734256,4.690000057220459,126.44100189208984,17.389999389648438,-1.491000056266785,-9.609999656677246,-1.2960000038146973
1621584734266,4.409999847412109,131.9600067138672,17.937000274658203,-1.3339999914169312,-9.62399959564209,-1.218999981880188
1621584734276,4.409999847412109,136.7530059814453,18.569000244140625,-1.2549999952316284,-9.57800006866455,-1.2510000467300415
1621584734286,3.849999904632568,141.01100158691406,18.608999252319336,-1.0980000495910645,-9.538999557495115,-1.24399995803833
1621584734296,3.9200000762939458,145.3780059814453,18.02899932861328,-0.981000006198883,-9.654999732971191,-1.2640000581741333
1621584734306,4.130000114440918,148.84500122070312,17.715999603271484,-0.7850000262260437,-9.73900032043457,-1.2389999628067017
1621584734316,3.9200000762939458,151.1280059814453,17.264999389648438,-0.6669999957084655,-9.777999877929688,-1.2460000514984133
1621584734326,4.130000114440918,152.73800659179688,16.198999404907227,-0.5099999904632568,-9.753000259399414,-1.1619999408721924
1621584734336,4.900000095367432,153.6300048828125,15.574000358581545,-0.3529999852180481,-9.708000183105469,-1.194000005722046
1621584734346,5.25,153.75100708007812,14.885000228881836,-0.2750000059604644,-9.602999687194824,-1.3350000381469729
1621584734356,5.599999904632568,153.89300537109375,14.48349952697754,-0.1570000052452087,-9.609999656677246,-1.2960000038146973
1621584734366,5.949999809265137,154.03500366210935,14.08199977874756,-0.0780000016093254,-9.538999557495115,-1.24399995803833
1621584734376,6.230000019073486,153.77099609375,12.755999565124512,0.0780000016093254,-9.461999893188477,-1.2300000190734863
1621584734386,7.0,152.3719940185547,12.225000381469728,0.1180000007152557,-9.423999786376951,-1.2230000495910645
1621584734396,7.8400001525878915,150.7899932861328,11.520000457763672,0.2349999994039535,-9.378000259399414,-1.2549999952316284
1621584734406,8.539999961853027,148.26400756835935,10.932000160217283,0.3140000104904174,-9.378000259399414,-1.2549999952316284
1621584734416,9.520000457763674,145.5070037841797,10.446000099182127,0.3919999897480011,-9.371000289916992,-1.2940000295639038
1621584734426,10.359999656677246,142.7169952392578,9.739999771118164,0.4709999859333038,-9.449000358581545,-1.3079999685287476
1621584734436,11.0600004196167,139.48500061035156,9.526000022888184,0.5490000247955322,-9.473999977111816,-1.3919999599456787
1621584734446,11.970000267028809,136.0260009765625,8.987000465393066,0.5879999995231628,-9.467000007629396,-1.4299999475479126
1621584734456,12.390000343322754,132.0030059814453,8.420000076293945,0.5879999995231628,-9.4350004196167,-1.3849999904632568
1621584734466,12.880000114440918,127.69300079345705,7.873000144958496,0.5879999995231628,-9.460000038146973,-1.468999981880188
1621584734476,13.93000030517578,123.34200286865234,6.750999927520752,0.6669999957084655,-9.45300006866455,-1.5080000162124634
1621584734486,14.420000076293944,119.26200103759766,6.1020002365112305,0.7059999704360961,-9.458000183105469,-1.7070000171661377
1621584734496,14.350000381469728,115.03700256347656,6.281000137329102,0.7450000047683715,-9.458000183105469,-1.7070000171661377
1621584734506,15.119999885559082,110.30899810791016,6.086999893188477,0.7850000262260437,-9.510000228881836,-1.6369999647140503
1621584734516,15.119999885559082,105.56800079345705,5.961999893188477,0.7850000262260437,-9.517000198364256,-1.5980000495910645
1621584734526,16.100000381469727,100.9010009765625,5.423999786376953,0.8240000009536743,-9.477999687194824,-1.5920000076293943
1621584734536,17.079999923706055,95.93399810791016,4.973999977111816,0.8240000009536743,-9.517000198364256,-1.5980000495910645
1621584734546,17.43000030517578,90.7760009765625,5.202000141143799,0.8629999756813049,-9.517000198364256,-1.5980000495910645
1621584734556,17.920000076293945,85.47200012207033,5.048999786376953,0.9020000100135804,-9.52400016784668,-1.559999942779541
1621584734566,18.059999465942383,80.64199829101562,4.624000072479248,0.8629999756813049,-9.52400016784668,-1.559999942779541
1621584734576,18.23500061035156,78.04299926757812,4.449999809265137,0.8629999756813049,-9.52400016784668,-1.559999942779541
1621584734586,18.40999984741211,75.44400024414062,4.276000022888184,0.9020000100135804,-9.536999702453612,-1.4830000400543213
1621584734596,18.899999618530273,70.31400299072266,3.940000057220459,0.9020000100135804,-9.583000183105469,-1.4509999752044678
1621584734606,19.040000915527344,64.97799682617188,3.566999912261963,0.9020000100135804,-9.543999671936035,-1.444000005722046
1621584734616,18.899999618530273,59.555999755859375,3.677999973297119,0.8629999756813049,-9.645999908447264,-1.5420000553131104
1621584734626,19.040000915527344,53.939998626708984,3.6830000877380367,0.8240000009536743,-9.65999984741211,-1.4639999866485596
1621584734636,18.760000228881836,48.900001525878906,3.6470000743865967,0.8629999756813049,-9.666999816894531,-1.4259999990463257
1621584734646,17.850000381469727,43.39300155639648,3.0309998989105225,0.8240000009536743,-9.75100040435791,-1.4010000228881836
1621584734656,17.010000228881836,38.5629997253418,2.6059999465942383,0.7450000047683715,-9.79599952697754,-1.36899995803833
1621584734666,15.329999923706056,33.676998138427734,2.0999999046325684,0.7450000047683715,-9.866999626159668,-1.4210000038146973
1621584734676,13.789999961853027,28.996999740600582,1.6299999952316284,0.6669999957084655,-9.835000038146973,-1.3760000467300415
1621584734686,11.970000267028809,24.70299911499023,0.5889999866485595,0.6280000209808348,-9.873000144958496,-1.381999969482422
1621584734696,10.149999618530272,20.28700065612793,0.2360000014305114,0.5490000247955322,-9.835000038146973,-1.3760000467300415
1621584734706,8.399999618530273,16.507999420166016,-0.5009999871253967,0.5099999904632568,-9.82800006866455,-1.4140000343322754
1621584734716,7.280000209808349,12.777000427246094,-1.5140000581741333,0.4709999859333038,-9.82800006866455,-1.4140000343322754
1621584734726,5.739999771118164,8.855999946594238,-1.850000023841858,0.3919999897480011,-9.79599952697754,-1.36899995803833
1621584734736,4.480000019073486,5.684999942779541,-2.4089999198913574,0.3529999852180481,-9.803000450134276,-1.3300000429153442
1621584734746,3.7100000381469727,2.61899995803833,-3.163000106811523,0.3529999852180481,-9.758000373840332,-1.3619999885559082
1621584734756,2.450000047683716,-0.3009999990463256,-3.5360000133514404,0.3140000104904174,-9.758000373840332,-1.3619999885559082
1621584734766,1.5399999618530271,-3.4070000648498535,-3.6570000648498535,0.3529999852180481,-9.79599952697754,-1.36899995803833
1621584734776,0.699999988079071,-5.702000141143799,-4.3460001945495605,0.2349999994039535,-9.79599952697754,-1.36899995803833
1621584734786,0.3149999976158142,-6.70550012588501,-4.701000213623047,0.1570000052452087,-9.803000450134276,-1.3300000429153442
1621584734796,-0.0700000002980232,-7.709000110626221,-5.056000232696533,0.0780000016093254,-9.803000450134276,-1.3300000429153442
1621584734806,-0.8399999737739563,-9.416999816894531,-5.854000091552734,0.0,-9.758000373840332,-1.3619999885559082
1621584734816,-1.6799999475479126,-10.458999633789062,-6.39300012588501,-0.0780000016093254,-9.758000373840332,-1.3619999885559082
1621584734826,-2.240000009536743,-10.567999839782717,-6.980999946594238,-0.1570000052452087,-9.79599952697754,-1.36899995803833
1621584734836,-2.869999885559082,-10.413999557495115,-7.452000141143799,-0.2349999994039535,-9.758000373840332,-1.3619999885559082
1621584734846,-2.940000057220459,-10.090000152587892,-7.67899990081787,-0.2750000059604644,-9.758000373840332,-1.3619999885559082
1621584734856,-3.2200000286102295,-9.522000312805178,-6.868000030517578,-0.2750000059604644,-9.718999862670898,-1.3550000190734863
1621584734866,-3.6400001049041744,-9.253999710083008,-5.9679999351501465,-0.2750000059604644,-9.68000030517578,-1.3480000495910645
1621584734876,-3.7799999713897705,-9.006999969482422,-5.355000019073486,-0.3140000104904174,-9.718999862670898,-1.3550000190734863
1621584734886,-3.2200000286102295,-8.885000228881836,-4.835999965667725,-0.2349999994039535,-9.68000030517578,-1.3480000495910645
1621584734896,-2.869999885559082,-8.848999977111816,-5.043000221252441,-0.2349999994039535,-9.68000030517578,-1.3480000495910645
1621584734906,-2.6600000858306885,-8.901000022888184,-5.550000190734863,-0.2349999994039535,-9.68000030517578,-1.3480000495910645
1621584734916,-2.5899999141693115,-8.836999893188477,-6.321000099182129,-0.3140000104904174,-9.673999786376951,-1.3869999647140503
1621584734926,-2.7300000190734863,-8.39900016784668,-7.593999862670899,-0.3140000104904174,-9.68000030517578,-1.3480000495910645
1621584734936,-2.5899999141693115,-7.218999862670899,-8.23900032043457,-0.3140000104904174,-9.635000228881836,-1.3799999952316284
1621584734946,-2.799999952316284,-5.90500020980835,-8.434000015258789,-0.3529999852180481,-9.673999786376951,-1.3869999647140503
1621584734956,-2.240000009536743,-4.754000186920166,-8.515000343322754,-0.3529999852180481,-9.673999786376951,-1.3869999647140503
1621584734966,-2.1700000762939453,-3.8289999961853023,-8.920000076293945,-0.3529999852180481,-9.68000030517578,-1.3480000495910645
1621584734976,-1.6799999475479126,-2.9170000553131104,-9.25699996948242,-0.2750000059604644,-9.642000198364256,-1.3420000076293943
1621584734986,-1.1200000047683716,-2.9049999713897705,-9.326000213623049,-0.2349999994039535,-9.642000198364256,-1.3420000076293943
1621584734996,-0.875,-2.750499963760376,-9.191999435424805,-0.2349999994039535,-9.64900016784668,-1.3029999732971191
1621584735006,-0.6299999952316284,-2.5959999561309814,-9.05799961090088,-0.1959999948740005,-9.64900016784668,-1.3029999732971191
1621584735016,0.2800000011920929,-2.4709999561309814,-8.96500015258789,-0.2750000059604644,-9.64900016784668,-1.3029999732971191
1621584735026,0.6299999952316284,-1.7769999504089355,-9.26900005340576,-0.2349999994039535,-9.609999656677246,-1.2960000038146973
1621584735036,1.4700000286102295,-1.1890000104904177,-9.378999710083008,-0.1959999948740005,-9.564000129699709,-1.3279999494552612
1621584735046,2.0999999046325684,-0.289000004529953,-9.647000312805178,-0.1959999948740005,-9.564000129699709,-1.3279999494552612
1621584735056,2.799999952316284,0.3919999897480011,-9.88199996948242,-0.1570000052452087,-9.564000129699709,-1.3279999494552612
1621584735066,3.7100000381469727,0.6230000257492065,-9.982999801635742,-0.1180000007152557,-9.571000099182127,-1.2890000343322754
1621584735076,4.409999847412109,0.9760000109672546,-9.565999984741213,-0.0780000016093254,-9.571000099182127,-1.2890000343322754
1621584735086,5.039999961853027,0.684000015258789,-9.119999885559082,-0.0780000016093254,-9.532999992370604,-1.2829999923706057
1621584735096,6.019999980926514,0.3350000083446502,-8.755000114440918,-0.0390000008046627,-9.494000434875488,-1.2760000228881836
1621584735106,6.789999961853027,0.0680000036954879,-8.446999549865723,-0.0390000008046627,-9.494000434875488,-1.2760000228881836
1621584735116,7.630000114440918,-0.731000006198883,-7.947999954223632,0.0,-9.538999557495115,-1.24399995803833
1621584735126,8.539999961853027,-1.2660000324249268,-7.330999851226807,0.0,-9.538999557495115,-1.24399995803833
1621584735136,9.100000381469728,-2.01200008392334,-7.5339999198913565,0.0,-9.50100040435791,-1.2369999885559082
1621584735146,9.800000190734863,-2.875999927520752,-7.473000049591064,0.0,-9.553000450134276,-1.1670000553131104
1621584735156,10.010000228881836,-3.5820000171661377,-7.099999904632568,-0.0390000008046627,-9.526000022888184,-1.3209999799728394
1621584735166,10.56999969482422,-4.920000076293945,-6.767000198364258,-0.0390000008046627,-9.616999626159668,-1.2580000162124634
1621584735176,10.779999732971191,-6.635000228881836,-6.714000225067139,0.0,-9.616999626159668,-1.2580000162124634
1621584735186,10.710000038146973,-7.71400022506714,-7.046999931335449,0.0,-9.701000213623049,-1.2330000400543213
1621584735196,10.710000038146973,-8.378999710083008,-6.701999664306641,0.0,-9.668999671936035,-1.187000036239624
1621584735206,10.710000038146973,-9.043999671936035,-6.35699987411499,0.0,-9.668999671936035,-1.187000036239624
1621584735216,10.079999923706056,-9.859000205993652,-6.572000026702881,0.0,-9.720999717712402,-1.1169999837875366
1621584735226,9.729999542236328,-10.454999923706056,-6.818999767303467,-0.0390000008046627,-9.727999687194824,-1.0779999494552612
1621584735236,9.380000114440918,-11.666999816894531,-6.39300012588501,-0.0390000008046627,-9.767000198364256,-1.0850000381469729
1621584735246,8.819999694824219,-12.300000190734863,-6.434000015258789,-0.0780000016093254,-9.734999656677246,-1.0390000343322754
1621584735256,8.399999618530273,-12.550999641418455,-6.619999885559082,-0.0780000016093254,-9.663999557495115,-0.9869999885559082
1621584735266,8.329999923706055,-12.916000366210936,-6.968999862670898,-0.0780000016093254,-9.663999557495115,-0.9869999885559082
1621584735276,8.260000228881836,-13.536999702453612,-7.078000068664551,-0.1180000007152557,-9.67099952697754,-0.9480000138282776
1621584735286,8.119999885559082,-13.645999908447266,-6.458000183105469,-0.0780000016093254,-9.689000129699709,-1.0709999799728394
1621584735296,8.260000228881836,-14.116000175476074,-6.611999988555908,-0.1180000007152557,-9.734999656677246,-1.0390000343322754
1621584735306,8.260000228881836,-14.44499969482422,-7.166999816894531,-0.1180000007152557,-9.779999732971191,-1.0080000162124634
1621584735316,8.119999885559082,-14.465000152587892,-7.454999923706055,-0.1570000052452087,-9.772999763488768,-1.0460000038146973
1621584735326,7.630000114440918,-14.33899974822998,-7.361999988555909,-0.1570000052452087,-9.772999763488768,-1.0460000038146973
1621584735336,6.929999828338623,-14.640000343322754,-7.2729997634887695,-0.1570000052452087,-9.80500030517578,-1.0920000076293943
1621584735346,6.300000190734863,-14.717000007629396,-7.642000198364258,-0.1570000052452087,-9.812000274658203,-1.0529999732971191
1621584735356,5.739999771118164,-14.619000434875488,-8.192999839782715,-0.1959999948740005,-9.85099983215332,-1.059999942779541
1621584735366,4.96999979019165,-14.473999977111816,-9.020000457763674,-0.1570000052452087,-9.772999763488768,-1.0460000038146973
1621584735376,4.760000228881836,-14.562999725341797,-9.31999969482422,-0.1570000052452087,-9.734999656677246,-1.0390000343322754
1621584735386,4.760000228881836,-14.279000282287598,-8.914999961853027,-0.1570000052452087,-9.696000099182127,-1.0329999923706057
1621584735396,4.829999923706055,-14.317500114440918,-9.099500656127928,-0.1959999948740005,-9.663999557495115,-0.9869999885559082
1621584735406,4.900000095367432,-14.355999946594238,-9.284000396728516,-0.1570000052452087,-9.586999893188477,-0.9729999899864196
1621584735416,5.739999771118164,-14.20199966430664,-9.753999710083008,-0.1180000007152557,-9.55500030517578,-0.9279999732971193
1621584735426,6.090000152587891,-14.116999626159668,-10.237000465393066,-0.1570000052452087,-9.54800033569336,-0.9670000076293944
1621584735436,6.71999979019165,-13.906000137329102,-10.62600040435791,-0.1180000007152557,-9.60099983215332,-0.8960000276565551
1621584735446,7.349999904632568,-13.739999771118164,-11.166000366210938,-0.1570000052452087,-9.60099983215332,-0.8960000276565551
1621584735456,7.699999809265136,-13.939000129699709,-12.053999900817873,-0.1570000052452087,-9.645999908447264,-0.8640000224113464
1621584735466,8.1899995803833,-13.232999801635742,-12.427000045776367,-0.1570000052452087,-9.645999908447264,-0.8640000224113464
1621584735476,8.119999885559082,-12.989999771118164,-12.597000122070312,-0.1570000052452087,-9.722999572753906,-0.8780000209808348
1621584735486,8.399999618530273,-12.564000129699709,-12.593000411987305,-0.1570000052452087,-9.69200038909912,-0.8330000042915344
1621584735496,8.470000267028809,-11.744999885559082,-12.803999900817873,-0.1180000007152557,-9.69200038909912,-0.8330000042915344
1621584735506,8.680000305175781,-11.663999557495115,-12.861000061035156,-0.1180000007152557,-9.65999984741211,-0.787000000476837
1621584735516,8.75,-10.755999565124512,-12.772000312805176,-0.0780000016093254,-9.69200038909912,-0.8330000042915344
1621584735526,9.239999771118164,-10.621999740600586,-12.321999549865724,-0.0780000016093254,-9.65999984741211,-0.787000000476837
1621584735536,9.869999885559082,-10.746999740600586,-12.414999961853027,-0.0390000008046627,-9.67300033569336,-0.7099999785423278
1621584735546,10.289999961853027,-10.484000205993652,-12.296999931335447,-0.0390000008046627,-9.635000228881836,-0.703000009059906
1621584735556,11.199999809265137,-10.545000076293944,-11.953000068664553,-0.0390000008046627,-9.642000198364256,-0.6639999747276306
1621584735566,11.6899995803833,-10.362000465393066,-11.777999877929688,0.0,-9.68000030517578,-0.6710000038146972
1621584735576,12.109999656677246,-10.154999732971191,-11.741999626159668,-0.0390000008046627,-9.666999816894531,-0.7490000128746032
1621584735586,12.039999961853027,-10.090000152587892,-11.303999900817873,0.0,-9.718999862670898,-0.6779999732971191
1621584735596,11.899999618530272,-10.126500129699709,-11.097000122070312,-0.0390000008046627,-9.701000213623049,-0.5550000071525573
1621584735606,11.760000228881836,-10.163000106811523,-10.890000343322754,-0.0390000008046627,-9.81700038909912,-0.5759999752044677
1621584735616,11.0600004196167,-10.178999900817873,-10.395999908447266,-0.0390000008046627,-9.869000434875488,-0.5049999952316284
1621584735626,10.359999656677246,-9.887000083923342,-9.633000373840332,-0.0390000008046627,-9.88199996948242,-0.4280000030994415
1621584735636,9.520000457763674,-9.409000396728516,-9.121999740600586,-0.0390000008046627,-10.019000053405762,-0.3330000042915344
1621584735646,7.9099998474121085,-9.092000007629396,-8.498000144958496,-0.0390000008046627,-10.064000129699709,-0.3009999990463256
1621584735656,6.090000152587891,-8.545000076293945,-7.974999904632568,-0.0780000016093254,-10.078000068664553,-0.2240000069141387
1621584735666,4.340000152587891,-7.7870001792907715,-7.8410000801086435,-0.0780000016093254,-10.130000114440918,-0.152999997138977
1621584735676,2.869999885559082,-6.8460001945495605,-7.532999992370605,-0.1570000052452087,-10.123000144958496,-0.19200000166893
1621584735686,1.190000057220459,-5.491000175476074,-7.1519999504089355,-0.1959999948740005,-10.123000144958496,-0.19200000166893
1621584735696,-0.6299999952316284,-3.561000108718872,-6.811999797821045,-0.2349999994039535,-10.090999603271484,-0.1459999978542327
1621584735706,-2.0299999713897705,-1.4570000171661377,-6.6539998054504395,-0.2750000059604644,-10.085000038146973,-0.1850000023841857
1621584735716,-3.009999990463257,1.0049999952316284,-6.504000186920166,-0.3140000104904174,-9.994000434875488,-0.248999997973442
1621584735726,-4.199999809265137,2.9189999103546143,-5.669000148773193,-0.3140000104904174,-10.00100040435791,-0.209999993443489
1621584735736,-5.039999961853027,4.703000068664551,-5.710000038146973,-0.2750000059604644,-9.92300033569336,-0.1959999948740005
1621584735746,-5.599999904632568,6.4629998207092285,-5.61299991607666,-0.2349999994039535,-9.878000259399414,-0.2280000001192092
1621584735756,-5.809999942779541,7.7849998474121085,-5.451000213623047,-0.2349999994039535,-9.83199977874756,-0.2599999904632568
1621584735766,-6.159999847412109,8.567000389099121,-5.454999923706055,-0.1570000052452087,-9.741999626159668,-0.3240000009536743
1621584735776,-6.090000152587891,8.984999656677246,-5.808000087738037,-0.1180000007152557,-9.663999557495115,-0.3100000023841857
1621584735786,-5.599999904632568,9.746999740600586,-6.099999904632568,-0.1180000007152557,-9.656999588012695,-0.3490000069141387
1621584735796,-5.25,10.116000175476074,-6.177000045776367,-0.0780000016093254,-9.612000465393066,-0.3799999952316284
1621584735806,-4.970000267028809,9.941999435424805,-5.994500160217285,-0.0780000016093254,-9.637000083923342,-0.4639999866485595
1621584735816,-4.690000057220459,9.767999649047852,-5.811999797821045,-0.0390000008046627,-9.597999572753906,-0.4580000042915344
1621584735825,-3.990000009536743,10.253999710083008,-6.1529998779296875,-0.0390000008046627,-9.668999671936035,-0.5099999904632568
1621584735835,-3.430000066757202,10.449000358581545,-6.046999931335449,-0.0780000016093254,-9.668999671936035,-0.5099999904632568
1621584735845,-2.5899999141693115,10.842000007629396,-6.26200008392334,-0.0390000008046627,-9.661999702453612,-0.5490000247955322
1621584735855,-2.0999999046325684,11.10200023651123,-5.718999862670898,-0.0390000008046627,-9.585000038146973,-0.5350000262260437
1621584735865,-1.2599999904632568,11.458999633789064,-5.7270002365112305,-0.0780000016093254,-9.57800006866455,-0.5740000009536743
1621584735875,-0.2800000011920929,11.8149995803833,-5.735000133514404,-0.1180000007152557,-9.585000038146973,-0.5350000262260437
1621584735885,0.209999993443489,12.281999588012695,-5.156000137329102,-0.1180000007152557,-9.623000144958496,-0.5419999957084655
1621584735895,1.2599999904632568,12.56999969482422,-5.176000118255615,-0.1570000052452087,-9.637000083923342,-0.4639999866485595
1621584735905,2.0299999713897705,12.80500030517578,-4.494999885559082,-0.1570000052452087,-9.661999702453612,-0.5490000247955322
1621584735915,2.380000114440918,13.401000022888184,-4.247000217437744,-0.1570000052452087,-9.668999671936035,-0.5099999904632568
1621584735925,2.6600000858306885,13.965000152587892,-3.010999917984009,-0.1959999948740005,-9.70699977874756,-0.5170000195503234
1621584735935,3.0799999237060547,14.699000358581545,-2.739000082015991,-0.1959999948740005,-9.753000259399414,-0.4850000143051147
1621584735945,3.009999990463257,15.35200023651123,-2.4110000133514404,-0.2349999994039535,-9.760000228881836,-0.4460000097751617
1621584735955,2.5899999141693115,16.316999435424805,-2.240999937057495,-0.2349999994039535,-9.80500030517578,-0.414000004529953
1621584735965,2.309999942779541,17.180999755859375,-2.302000045776367,-0.2750000059604644,-9.791999816894531,-0.492000013589859
1621584735975,1.5399999618530271,17.82900047302246,-2.75600004196167,-0.2750000059604644,-9.836999893188477,-0.4600000083446502
1621584735985,1.399999976158142,18.583999633789062,-3.4049999713897705,-0.2349999994039535,-9.843999862670898,-0.4210000038146972
1621584735995,0.9100000262260436,18.916000366210938,-3.2750000953674316,-0.2349999994039535,-9.836999893188477,-0.4600000083446502
1621584736005,0.2800000309944152,19.215999603271484,-3.364500045776367,-0.1959999948740005,-9.836999893188477,-0.4600000083446502
1621584736015,-0.3499999940395355,19.516000747680664,-3.4539999961853027,-0.1959999948740005,-9.836999893188477,-0.4600000083446502
1621584736025,-0.6299999952316284,19.565000534057617,-3.7290000915527344,-0.1959999948740005,-9.79800033569336,-0.453000009059906
1621584736035,-1.2599999904632568,19.593000411987305,-4.293000221252441,-0.1959999948740005,-9.829999923706056,-0.4990000128746032
1621584736045,-1.4700000286102295,19.75900077819824,-4.831999778747559,-0.1959999948740005,-9.836999893188477,-0.4600000083446502
1621584736055,-2.309999942779541,20.003000259399418,-5.002999782562256,-0.1959999948740005,-9.79800033569336,-0.453000009059906
1621584736065,-2.450000047683716,19.743000030517575,-5.546000003814697,-0.1570000052452087,-9.791999816894531,-0.492000013589859
1621584736075,-2.5899999141693115,20.01099967956543,-5.854000091552734,-0.1570000052452087,-9.78499984741211,-0.5299999713897705
1621584736085,-2.940000057220459,19.986000061035156,-5.716000080108643,-0.1180000007152557,-9.753000259399414,-0.4850000143051147
1621584736095,-2.869999885559082,20.124000549316406,-5.691999912261963,-0.1570000052452087,-9.746000289916992,-0.5239999890327453
1621584736105,-2.869999885559082,19.79599952697754,-6.247000217437744,-0.1570000052452087,-9.73900032043457,-0.5619999766349792
1621584736115,-2.799999952316284,19.613000869750977,-6.421999931335449,-0.1180000007152557,-9.73900032043457,-0.5619999766349792
1621584736125,-2.7300000190734863,19.451000213623047,-6.308000087738037,-0.1180000007152557,-9.694000244140623,-0.5939999818801879
1621584736135,-2.450000047683716,18.85099983215332,-6.130000114440918,-0.1180000007152557,-9.701000213623049,-0.5550000071525573
1621584736145,-2.240000009536743,18.166000366210938,-5.468999862670898,-0.0390000008046627,-9.70699977874756,-0.5170000195503234
1621584736155,-2.380000114440918,17.55299949645996,-5.2210001945495605,-0.0780000016093254,-9.70699977874756,-0.5170000195503234
1621584736165,-2.309999942779541,16.961000442504883,-4.685999870300293,-0.0780000016093254,-9.701000213623049,-0.5550000071525573
1621584736175,-2.799999952316284,16.555999755859375,-4.4019999504089355,-0.0390000008046627,-9.701000213623049,-0.5550000071525573
1621584736185,-2.7300000190734863,15.737000465393066,-4.190999984741211,-0.0390000008046627,-9.701000213623049,-0.5550000071525573
1621584736195,-2.799999952316284,14.852999687194824,-4.418000221252441,-0.0780000016093254,-9.701000213623049,-0.5550000071525573
1621584736205,-2.694999933242798,14.57699966430664,-4.466500282287598,-0.0780000016093254,-9.70699977874756,-0.5170000195503234
1621584736215,-2.5899999141693115,14.300999641418455,-4.514999866485596,-0.0390000008046627,-9.70699977874756,-0.5170000195503234
1621584736225,-2.5899999141693115,13.63599967956543,-4.775000095367432,-0.0780000016093254,-9.71399974822998,-0.4779999852180481
1621584736235,-2.5899999141693115,12.996000289916992,-5.171999931335449,-0.1180000007152557,-9.661999702453612,-0.5490000247955322
1621584736245,-2.1700000762939453,12.13599967956543,-5.5370001792907715,-0.1180000007152557,-9.661999702453612,-0.5490000247955322
1621584736255,-1.6799999475479126,11.70199966430664,-5.8979997634887695,-0.1180000007152557,-9.70699977874756,-0.5170000195503234
1621584736265,-1.399999976158142,11.753999710083008,-6.598999977111816,-0.1180000007152557,-9.70699977874756,-0.5170000195503234
1621584736275,-1.2599999904632568,11.276000022888184,-7.110000133514404,-0.0780000016093254,-9.746000289916992,-0.5239999890327453
1621584736285,-1.3300000429153442,10.732999801635742,-6.849999904632568,-0.0780000016093254,-9.661999702453612,-0.5490000247955322
1621584736295,-1.2599999904632568,10.100000381469728,-6.890999794006348,-0.1180000007152557,-9.668999671936035,-0.5099999904632568
1621584736305,-1.0499999523162842,10.019000053405762,-6.834000110626221,-0.1180000007152557,-9.701000213623049,-0.5550000071525573
1621584736315,-0.4900000095367431,9.69499969482422,-6.60699987411499,-0.1570000052452087,-9.701000213623049,-0.5550000071525573
1621584736325,-0.209999993443489,9.345999717712402,-7.449999809265136,-0.1180000007152557,-9.661999702453612,-0.5490000247955322
1621584736335,-0.1400000005960464,8.883000373840332,-7.248000144958496,-0.0780000016093254,-9.623000144958496,-0.5419999957084655
1621584736345,-0.0700000002980232,8.737000465393066,-7.629000186920166,-0.0780000016093254,-9.661999702453612,-0.5490000247955322
1621584736355,0.4900000095367431,8.420999526977539,-8.253000259399414,-0.0390000008046627,-9.661999702453612,-0.5490000247955322
1621584736365,0.699999988079071,8.027999877929688,-8.038000106811523,-0.0780000016093254,-9.732000350952148,-0.6010000109672546
1621584736375,0.4900000095367431,8.20199966430664,-8.220999717712402,-0.1180000007152557,-9.770999908447264,-0.6079999804496765
1621584736385,-0.1400000005960464,8.222000122070312,-7.933000087738037,-0.1180000007152557,-9.8100004196167,-0.6140000224113464
1621584736395,-0.4199999868869781,8.166000366210938,-8.013999938964844,-0.0390000008046627,-9.847999572753906,-0.6209999918937683
1621584736405,-1.3300000429153442,8.230999946594238,-7.576000213623046,-0.0780000016093254,-9.79599952697754,-0.6919999718666076
1621584736415,-1.4700000286102295,8.029999732971191,-7.647000312805176,-0.0780000016093254,-9.711999893188477,-0.7170000076293945
1621584736425,-1.6100000143051147,7.828999996185303,-7.717999935150147,-0.1180000007152557,-9.758000373840332,-0.6850000023841857
1621584736435,-1.6799999475479126,7.869999885559082,-8.350000381469727,-0.0780000016093254,-9.763999938964846,-0.6460000276565551
1621584736445,-1.6100000143051147,7.686999797821045,-8.524999618530273,-0.0390000008046627,-9.763999938964846,-0.6460000276565551
1621584736455,-1.2599999904632568,7.642000198364258,-8.675000190734863,-0.0390000008046627,-9.687000274658203,-0.6330000162124633
1621584736465,-0.8399999737739563,7.314000129699707,-8.022000312805176,-0.0390000008046627,-9.616999626159668,-0.5799999833106994
1621584736475,-0.0700000002980232,6.535999774932861,-7.235000133514405,-0.0390000008046627,-9.585000038146973,-0.5350000262260437
1621584736485,1.2599999904632568,5.638999938964844,-7.39300012588501,-0.0390000008046627,-9.585000038146973,-0.5350000262260437
1621584736495,1.8899999856948853,5.436999797821045,-7.855000019073486,-0.0390000008046627,-9.57800006866455,-0.5740000009536743
1621584736505,2.240000009536743,5.298999786376953,-7.880000114440918,-0.0390000008046627,-9.654999732971191,-0.5870000123977661
1621584736515,2.0299999713897705,5.084000110626221,-8.27299976348877,-0.0390000008046627,-9.732000350952148,-0.6010000109672546
1621584736525,1.5399999618530271,4.5970001220703125,-9.14099979400635,-0.0390000008046627,-9.732000350952148,-0.6010000109672546
1621584736535,1.1200000047683716,4.864999771118164,-9.449000358581545,-0.0780000016093254,-9.777999877929688,-0.5690000057220459
1621584736545,0.6299999952316284,4.949999809265137,-8.722999572753906,-0.0390000008046627,-9.791999816894531,-0.492000013589859
1621584736555,-0.0700000002980232,5.072000026702881,-8.204000473022461,-0.0780000016093254,-9.763999938964846,-0.6460000276565551
1621584736565,-0.3499999940395355,5.501999855041504,-7.416999816894531,-0.0780000016093254,-9.732000350952148,-0.6010000109672546
1621584736575,-0.2800000011920929,5.3520002365112305,-7.373000144958496,-0.0390000008046627,-9.78499984741211,-0.5299999713897705
1621584736585,0.0700000002980232,5.59499979019165,-7.543000221252441,-0.0390000008046627,-9.78499984741211,-0.5299999713897705
1621584736595,0.4199999868869781,5.400000095367432,-7.6479997634887695,-0.0390000008046627,-9.746000289916992,-0.5239999890327453
1621584736605,0.699999988079071,5.4120001792907715,-7.717000007629395,-0.0390000008046627,-9.746000289916992,-0.5239999890327453
1621584736615,0.4900000095367431,5.22599983215332,-7.4660000801086435,-0.0390000008046627,-9.746000289916992,-0.5239999890327453
1621584736625,0.5600000023841857,5.111999988555908,-7.627999782562256,0.0,-9.78499984741211,-0.5299999713897705
1621584736635,0.1400000005960464,5.245999813079834,-7.177999973297119,-0.0390000008046627,-9.829999923706056,-0.4990000128746032
1621584736645,-0.3499999940395355,5.053500175476074,-6.892000198364258,0.0,-9.869000434875488,-0.5049999952316284
1621584736655,-0.8399999737739563,4.861000061035156,-6.605999946594238,0.0,-9.847999572753906,-0.6209999918937683
1621584736665,-1.3300000429153442,4.630000114440918,-6.505000114440918,-0.0390000008046627,-9.854999542236328,-0.5830000042915344
1621584736675,-1.75,4.51200008392334,-6.241000175476074,-0.0390000008046627,-9.869000434875488,-0.5049999952316284
1621584736685,-2.0299999713897705,4.577000141143799,-5.802999973297119,-0.0390000008046627,-9.829999923706056,-0.4990000128746032
1621584736695,-2.309999942779541,4.005000114440918,-6.188000202178955,-0.0390000008046627,-9.791999816894531,-0.492000013589859
1621584736705,-2.5199999809265137,3.8510000705718994,-5.7179999351501465,-0.0390000008046627,-9.753000259399414,-0.4850000143051147
1621584736715,-2.5899999141693115,3.572000026702881,-5.341000080108643,-0.0390000008046627,-9.720999717712402,-0.4390000104904174
1621584736725,-2.5199999809265137,3.181999921798706,-5.552000045776367,-0.0390000008046627,-9.71399974822998,-0.4779999852180481
1621584736735,-2.309999942779541,3.4260001182556152,-5.7220001220703125,0.0,-9.753000259399414,-0.4850000143051147
1621584736745,-2.5899999141693115,3.5510001182556152,-5.629000186920166,-0.0390000008046627,-9.753000259399414,-0.4850000143051147
1621584736755,-2.5899999141693115,3.1170001029968266,-5.989999771118164,-0.0780000016093254,-9.720999717712402,-0.4390000104904174
1621584736765,-2.7300000190734863,2.615000009536743,-6.36299991607666,-0.0780000016093254,-9.753000259399414,-0.4850000143051147
1621584736775,-2.7300000190734863,2.5369999408721924,-6.73199987411499,-0.0390000008046627,-9.791999816894531,-0.492000013589859
1621584736785,-3.1500000953674316,2.5169999599456787,-7.019999980926514,-0.1180000007152557,-9.79800033569336,-0.453000009059906
1621584736795,-3.2200000286102295,2.3550000190734863,-6.906000137329102,-0.1180000007152557,-9.78499984741211,-0.5299999713897705
1621584736805,-3.2200000286102295,2.3589999675750732,-7.331999778747559,-0.1180000007152557,-9.767000198364256,-0.4079999923706054
1621584736815,-3.849999904632568,2.4079999923706055,-7.60699987411499,-0.0780000016093254,-9.753000259399414,-0.4850000143051147
1621584736825,-4.269999980926514,2.578000068664551,-7.363999843597413,-0.0780000016093254,-9.777999877929688,-0.5690000057220459
1621584736835,-4.059999942779541,2.8980000019073486,-7.165999889373779,-0.0780000016093254,-9.770999908447264,-0.6079999804496765
1621584736845,-3.990000009536743,2.930999994277954,-6.947000026702881,-0.0780000016093254,-9.770999908447264,-0.6079999804496765
1621584736855,-3.7799999713897705,2.678999900817871,-7.132999897003174,-0.0780000016093254,-9.770999908447264,-0.6079999804496765
1621584736865,-3.9200000762939458,2.663000106811523,-7.24250030517578,-0.0780000016093254,-9.732000350952148,-0.6010000109672546
1621584736875,-4.059999942779541,2.6470000743865967,-7.3520002365112305,-0.0390000008046627,-9.718999862670898,-0.6779999732971191
1621584736885,-4.130000114440918,2.6670000553131104,-7.064000129699707,-0.0390000008046627,-9.68000030517578,-0.6710000038146972
1621584736895,-3.9200000762939458,2.436000108718872,-6.9629998207092285,-0.0390000008046627,-9.687000274658203,-0.6330000162124633
1621584736905,-3.7100000381469727,2.2980000972747803,-6.986999988555908,-0.0390000008046627,-9.718999862670898,-0.6779999732971191
1621584736915,-3.7100000381469727,2.124000072479248,-6.804999828338623,0.0,-9.758000373840332,-0.6850000023841857
1621584736925,-3.569999933242798,2.2249999046325684,-6.572999954223633,0.0,-9.729999542236328,-0.8389999866485595
1621584736935,-3.6400001049041744,2.180999994277954,-6.7230000495910645,-0.0390000008046627,-9.704999923706056,-0.7549999952316284
1621584736945,-3.990000009536743,1.9290000200271609,-6.909999847412109,0.0,-9.722999572753906,-0.8780000209808348
1621584736955,-3.9200000762939458,2.00600004196167,-6.540999889373779,-0.0390000008046627,-9.737000465393066,-0.8009999990463256
1621584736965,-3.7100000381469727,2.00600004196167,-6.540999889373779,-0.0390000008046627,-9.782999992370604,-0.7689999938011169
1621584736975,-3.9200000762939458,1.6289999485015867,-6.821000099182129,-0.0390000008046627,-9.788999557495115,-0.7300000190734863
1621584736985,-3.7799999713897705,1.5199999809265137,-6.199999809265137,-0.0390000008046627,-9.711999893188477,-0.7170000076293945
1621584736995,-3.6400001049041744,1.0980000495910645,-5.421999931335449,-0.0780000016093254,-9.68000030517578,-0.6710000038146972
1621584737005,-3.0799999237060547,1.1100000143051147,-5.491000175476074,-0.0780000016093254,-9.647999763488768,-0.6259999871253967
1621584737015,-2.5899999141693115,1.0210000276565552,-5.790999889373779,-0.1180000007152557,-9.687000274658203,-0.6330000162124633
1621584737025,-2.0999999046325684,0.944000005722046,-6.159999847412109,-0.0780000016093254,-9.687000274658203,-0.6330000162124633
1621584737035,-1.6799999475479126,0.915000021457672,-6.803999900817871,-0.0780000016093254,-9.68000030517578,-0.6710000038146972
1621584737045,-1.75,0.7730000019073486,-7.611000061035157,-0.0780000016093254,-9.711999893188477,-0.7170000076293945
1621584737055,-1.75,1.0900000333786013,-8.194999694824219,-0.0390000008046627,-9.75100040435791,-0.7239999771118164
1621584737065,-2.1700000762939453,0.902999997138977,-7.943999767303467,0.0,-9.758000373840332,-0.6850000023841857
1621584737075,-2.450000047683716,0.7894999980926513,-8.105999946594238,-0.0390000008046627,-9.788999557495115,-0.7300000190734863
1621584737085,-2.7300000190734863,0.6759999990463256,-8.267999649047852,-0.0780000016093254,-9.788999557495115,-0.7300000190734863
1621584737095,-2.869999885559082,0.7329999804496765,-8.187000274658203,-0.0780000016093254,-9.788999557495115,-0.7300000190734863
1621584737105,-2.869999885559082,0.8830000162124633,-8.232000350952148,-0.0780000016093254,-9.758000373840332,-0.6850000023841857
1621584737115,-2.7300000190734863,1.503000020980835,-8.121999740600586,-0.0780000016093254,-9.744000434875488,-0.762000024318695
1621584737125,-2.7300000190734863,1.8559999465942385,-7.704999923706055,-0.0390000008046627,-9.75100040435791,-0.7239999771118164
1621584737135,-2.240000009536743,2.131999969482422,-7.656000137329101,-0.0390000008046627,-9.704999923706056,-0.7549999952316284
1621584737145,-2.240000009536743,2.427999973297119,-7.320000171661377,-0.0390000008046627,-9.711999893188477,-0.7170000076293945
1621584737155,-2.240000009536743,2.6429998874664307,-6.926000118255615,-0.0390000008046627,-9.704999923706056,-0.7549999952316284
1621584737165,-2.1700000762939453,2.75600004196167,-6.763999938964844,-0.0390000008046627,-9.711999893188477,-0.7170000076293945
1621584737175,-2.309999942779541,2.615000009536743,-6.36299991607666,-0.0390000008046627,-9.704999923706056,-0.7549999952316284
1621584737185,-2.380000114440918,2.5329999923706055,-6.306000232696533,0.0,-9.704999923706056,-0.7549999952316284
1621584737195,-2.1700000762939453,2.0920000076293945,-5.815000057220459,0.0390000008046627,-9.687000274658203,-0.6330000162124633
1621584737205,-2.0299999713897705,1.7960000038146973,-6.1519999504089355,0.0,-9.711999893188477,-0.7170000076293945
1621584737215,-2.240000009536743,1.718000054359436,-6.520999908447266,0.0,-9.711999893188477,-0.7170000076293945
1621584737225,-2.0299999713897705,1.4099999666213987,-6.788000106811523,-0.0390000008046627,-9.704999923706056,-0.7549999952316284
1621584737235,-1.75,1.2719999551773071,-6.813000202178955,0.0,-9.75100040435791,-0.7239999771118164
1621584737245,-2.1700000762939453,1.2280000448226929,-6.9629998207092285,-0.0390000008046627,-9.704999923706056,-0.7549999952316284
1621584737255,-1.9600000381469729,1.4140000343322754,-7.21400022506714,-0.0390000008046627,-9.744000434875488,-0.762000024318695
1621584737265,-2.450000047683716,1.0659999847412107,-6.848999977111816,-0.0390000008046627,-9.704999923706056,-0.7549999952316284
1621584737275,-2.380000114440918,1.0700000524520874,-7.275000095367432,-0.0390000008046627,-9.744000434875488,-0.762000024318695
1621584737285,-2.5899999141693115,1.133999943733215,-6.836999893188477,-0.0390000008046627,-9.729999542236328,-0.8389999866485595
1621584737295,-2.554999828338623,1.2799999713897705,-7.059999942779541,-0.0780000016093254,-9.704999923706056,-0.7549999952316284
1621584737305,-2.5199999809265137,1.4259999990463257,-7.282999992370605,-0.0780000016093254,-9.737000465393066,-0.8009999990463256
1621584737315,-2.380000114440918,1.4019999504089355,-7.144999980926514,-0.0780000016093254,-9.697999954223633,-0.7940000295639038
1621584737325,-1.8899999856948853,1.6449999809265137,-7.315000057220459,-0.0780000016093254,-9.697999954223633,-0.7940000295639038
1621584737335,-1.8200000524520872,1.6449999809265137,-7.315000057220459,-0.0390000008046627,-9.65999984741211,-0.787000000476837
1621584737345,-1.399999976158142,1.909000039100647,-7.197999954223633,-0.0390000008046627,-9.652999877929688,-0.8259999752044677
1621584737355,-1.2599999904632568,2.1600000858306885,-7.011000156402588,-0.0390000008046627,-9.697999954223633,-0.7940000295639038
1621584737365,-0.9100000262260436,2.0309998989105225,-6.678999900817871,-0.0780000016093254,-9.697999954223633,-0.7940000295639038
1621584737375,-0.8399999737739563,2.6059999465942383,-6.718999862670898,-0.0780000016093254,-9.744000434875488,-0.762000024318695
1621584737385,-1.0499999523162842,2.674999952316284,-6.706999778747559,-0.1959999948740005,-9.729999542236328,-0.8389999866485595
1621584737395,-1.0499999523162842,2.9630000591278076,-6.728000164031982,-0.1180000007152557,-9.737000465393066,-0.8009999990463256
1621584737405,-1.2599999904632568,3.1089999675750732,-6.3460001945495605,-0.1180000007152557,-9.744000434875488,-0.762000024318695
1621584737415,-1.2599999904632568,3.490000009536743,-6.493000030517578,-0.0780000016093254,-9.744000434875488,-0.762000024318695
1621584737425,-1.190000057220459,3.562999963760376,-6.906000137329102,-0.0780000016093254,-9.782999992370604,-0.7689999938011169
1621584737435,-0.9800000190734864,3.815000057220459,-6.71999979019165,-0.0780000016093254,-9.776000022888184,-0.8080000281333923
1621584737445,-1.3300000429153442,3.989000082015991,-6.9019999504089355,-0.0780000016093254,-9.814000129699709,-0.8140000104904174
1621584737455,-2.1700000762939453,4.091000080108643,-6.671000003814697,-0.0780000016093254,-9.821000099182127,-0.7760000228881835
1621584737464,-2.450000047683716,4.228000164031982,-6.646999835968018,-0.0390000008046627,-9.776000022888184,-0.8080000281333923
1621584737474,-2.799999952316284,4.442999839782715,-6.252999782562256,0.0,-9.814000129699709,-0.8140000104904174
1621584737484,-2.869999885559082,4.580999851226807,-6.229000091552734,0.0,-9.814000129699709,-0.8140000104904174
1621584737494,-3.009999990463257,4.47599983215332,-6.033999919891357,-0.1180000007152557,-9.82800006866455,-0.7369999885559082
1621584737504,-3.184999942779541,4.246999740600586,-5.541500091552734,-0.0390000008046627,-9.82800006866455,-0.7369999885559082
1621584737514,-3.359999895095825,4.01800012588501,-5.048999786376953,0.0390000008046627,-9.782999992370604,-0.7689999938011169
1621584737524,-2.940000057220459,3.8519999980926514,-4.510000228881836,0.0,-9.666999816894531,-0.7490000128746032
1621584737534,-2.6600000858306885,3.5390000343322754,-4.35099983215332,-0.0390000008046627,-9.58899974822998,-0.7350000143051147
1621584737544,-1.8200000524520872,3.437999963760376,-4.583000183105469,-0.0390000008046627,-9.58899974822998,-0.7350000143051147
1621584737554,-1.5399999618530271,3.01200008392334,-4.586999893188477,-0.0780000016093254,-9.65999984741211,-0.787000000476837
1621584737564,-1.399999976158142,2.7320001125335693,-5.418000221252441,-0.0780000016093254,-9.697999954223633,-0.7940000295639038
1621584737574,-1.4700000286102295,2.9709999561309814,-6.370999813079834,-0.1180000007152557,-9.697999954223633,-0.7940000295639038
1621584737584,-1.5399999618530271,2.6429998874664307,-6.926000118255615,-0.0780000016093254,-9.737000465393066,-0.8009999990463256
1621584737594,-1.6799999475479126,2.7079999446868896,-6.48799991607666,-0.1180000007152557,-9.744000434875488,-0.762000024318695
1621584737604,-1.9600000381469729,2.881999969482422,-6.671000003814697,-0.1180000007152557,-9.737000465393066,-0.8009999990463256
1621584737614,-1.75,2.9670000076293945,-7.1529998779296875,-0.0780000016093254,-9.737000465393066,-0.8009999990463256
1621584737624,-1.75,2.98799991607666,-6.866000175476074,-0.0780000016093254,-9.737000465393066,-0.8009999990463256
1621584737634,-1.8200000524520872,3.1500000953674316,-6.979000091552734,-0.0780000016093254,-9.744000434875488,-0.762000024318695
1621584737644,-1.75,3.3440001010894775,-6.874000072479248,-0.1180000007152557,-9.704999923706056,-0.7549999952316284
1621584737654,-1.3300000429153442,3.700999975204468,-6.881999969482422,-0.0780000016093254,-9.697999954223633,-0.7940000295639038
1621584737664,-0.7699999809265136,3.7090001106262207,-6.525000095367432,-0.0390000008046627,-9.65999984741211,-0.787000000476837
1621584737674,-0.6299999952316284,3.7660000324249263,-6.443999767303467,-0.0390000008046627,-9.697999954223633,-0.7940000295639038
1621584737684,-0.4900000095367431,3.822999954223633,-6.36299991607666,-0.0390000008046627,-9.704999923706056,-0.7549999952316284
1621584737694,-0.2800000011920929,3.559000015258789,-6.480000019073486,0.0,-9.697999954223633,-0.7940000295639038
1621584737704,-0.209999993443489,3.3440001010894775,-6.874000072479248,-0.0390000008046627,-9.737000465393066,-0.8009999990463256
1621584737714,-0.4199999868869781,3.125,-6.841000080108643,0.0,-9.729999542236328,-0.8389999866485595
1621584737724,-0.8399999737739563,2.493000030517578,-6.881999969482422,0.0,-9.76900005340576,-0.8460000157356262
1621584737734,-0.944999933242798,2.136000156402588,-6.873499870300293,-0.0390000008046627,-9.76900005340576,-0.8460000157356262
1621584737744,-1.0499999523162842,1.7790000438690186,-6.864999771118164,-0.0390000008046627,-9.76900005340576,-0.8460000157356262
1621584737754,-1.0499999523162842,1.5850000381469729,-6.9710001945495605,0.0,-9.76900005340576,-0.8460000157356262
1621584737764,-1.3300000429153442,0.6970000267028807,-6.771999835968018,0.0780000016093254,-9.76900005340576,-0.8460000157356262
1621584737774,-1.6799999475479126,0.0520000010728836,-6.743000030517578,0.0390000008046627,-9.69200038909912,-0.8330000042915344
1621584737784,-1.6100000143051147,-0.1879999935626983,-6.999000072479248,0.0,-9.633000373840332,-0.9419999718666076
1621584737794,-1.6799999475479126,-0.8320000171661377,-6.96999979019165,0.0390000008046627,-9.6850004196167,-0.8709999918937683
1621584737804,-1.4700000286102295,-1.468999981880188,-6.585000038146973,0.0,-9.69200038909912,-0.8330000042915344
1621584737814,-1.1200000047683716,-1.906999945640564,-6.519999980926514,0.0,-9.697999954223633,-0.7940000295639038
1621584737824,-0.9800000190734864,-2.3929998874664307,-6.178999900817871,0.0,-9.69200038909912,-0.8330000042915344
1621584737834,-0.9800000190734864,-2.7179999351501465,-5.952000141143799,-0.0390000008046627,-9.652999877929688,-0.8259999752044677
1621584737844,-1.1200000047683716,-2.8919999599456787,-5.769999980926514,-0.0390000008046627,-9.69200038909912,-0.8330000042915344
1621584737854,-0.9100000262260436,-3.5940001010894775,-5.822000026702881,-0.0390000008046627,-9.729999542236328,-0.8389999866485595
1621584737864,-0.9100000262260436,-4.125,-5.631999969482422,-0.0780000016093254,-9.697999954223633,-0.7940000295639038
1621584737874,-0.9100000262260436,-4.310999870300293,-5.380000114440918,-0.0390000008046627,-9.697999954223633,-0.7940000295639038
1621584737884,-1.190000057220459,-4.553999900817871,-5.210000038146973,-0.0780000016093254,-9.697999954223633,-0.7940000295639038
1621584737894,-0.9800000190734864,-4.60699987411499,-5.7170000076293945,-0.1180000007152557,-9.729999542236328,-0.8389999866485595
1621584737904,-1.2599999904632568,-4.53000020980835,-5.3480000495910645,-0.1180000007152557,-9.729999542236328,-0.8389999866485595
1621584737914,-1.4700000286102295,-4.164999961853027,-4.999000072479248,-0.1570000052452087,-9.744000434875488,-0.762000024318695
1621584737924,-1.8200000524520872,-3.974999904632568,-4.4679999351501465,-0.1959999948740005,-9.744000434875488,-0.762000024318695
1621584737934,-2.0299999713897705,-3.240999937057495,-4.196000099182129,-0.2349999994039535,-9.737000465393066,-0.8009999990463256
1621584737944,-1.8200000524520872,-2.562999963760376,-4.00600004196167,-0.2750000059604644,-9.744000434875488,-0.762000024318695
1621584737954,-2.1700000762939453,-1.7849999666213987,-3.5840001106262207,-0.2750000059604644,-9.697999954223633,-0.7940000295639038
1621584737964,-1.9950001239776611,-1.430000066757202,-3.379499912261963,-0.2750000059604644,-9.697999954223633,-0.7940000295639038
1621584737974,-1.8200000524520872,-1.0750000476837158,-3.174999952316284,-0.2750000059604644,-9.737000465393066,-0.8009999990463256
1621584737984,-1.5399999618530271,-0.1180000007152557,-3.361999988555908,-0.2750000059604644,-9.737000465393066,-0.8009999990463256
1621584737994,-1.190000057220459,0.4090000092983245,-3.125999927520752,-0.2349999994039535,-9.697999954223633,-0.7940000295639038
1621584738004,-1.1200000047683716,1.1390000581741333,-3.63700008392334,-0.2349999994039535,-9.6850004196167,-0.8709999918937683
1621584738014,-0.9100000262260436,1.3739999532699585,-4.164999961853027,-0.2349999994039535,-9.722999572753906,-0.8780000209808348
1621584738024,-0.8399999737739563,1.7920000553131104,-4.51800012588501,-0.1959999948740005,-9.737000465393066,-0.8009999990463256
1621584738034,-0.699999988079071,1.7150000333786013,-4.88700008392334,-0.2349999994039535,-9.76900005340576,-0.8460000157356262
1621584738044,-0.4900000095367431,1.718999981880188,-5.311999797821045,-0.1959999948740005,-9.744000434875488,-0.762000024318695
1621584738054,-0.4199999868869781,1.187000036239624,-5.122000217437744,-0.1959999948740005,-9.744000434875488,-0.762000024318695
1621584738064,-0.3499999940395355,1.3250000476837158,-5.0970001220703125,-0.1959999948740005,-9.704999923706056,-0.7549999952316284
1621584738074,-0.209999993443489,1.1059999465942385,-5.065000057220459,-0.2349999994039535,-9.704999923706056,-0.7549999952316284
1621584738084,-0.4199999868869781,0.9599999785423278,-5.446000099182129,-0.1959999948740005,-9.69200038909912,-0.8330000042915344
1621584738094,-0.4900000095367431,1.1390000581741333,-6.053999900817871,-0.1959999948740005,-9.737000465393066,-0.8009999990463256
1621584738104,-0.4199999868869781,1.2519999742507937,-7.099999904632568,-0.1959999948740005,-9.737000465393066,-0.8009999990463256
1621584738114,-0.699999988079071,1.3329999446868896,-7.1570000648498535,-0.1959999948740005,-9.729999542236328,-0.8389999866485595
1621584738124,-0.8399999737739563,1.4299999475479126,-7.709000110626221,-0.2349999994039535,-9.76900005340576,-0.8460000157356262
1621584738134,-1.2599999904632568,1.52400004863739,-7.834000110626221,-0.2349999994039535,-9.737000465393066,-0.8009999990463256
1621584738144,-1.190000057220459,1.743000030517578,-7.867000102996825,-0.2349999994039535,-9.729999542236328,-0.8389999866485595
1621584738154,-0.9100000262260436,2.1480000019073486,-8.151000022888184,-0.2349999994039535,-9.69200038909912,-0.8330000042915344
1621584738164,-0.7699999809265136,2.424000024795532,-8.10200023651123,-0.2349999994039535,-9.69200038909912,-0.8330000042915344
1621584738174,-0.4900000095367431,2.7769999504089355,-7.684999942779541,-0.2349999994039535,-9.6850004196167,-0.8709999918937683
1621584738184,0.0700000002980232,3.1329998970031734,-7.692999839782715,-0.1959999948740005,-9.6850004196167,-0.8709999918937683
1621584738194,0.2800000011920929,3.0399999618530273,-7.566999912261963,-0.1959999948740005,-9.722999572753906,-0.8780000209808348
1621584738204,0.4199999868869781,3.5799999237060547,-7.401000022888184,-0.1570000052452087,-9.69200038909912,-0.8330000042915344
1621584738214,0.6650000214576721,3.7279999256134033,-7.232500076293945,-0.1959999948740005,-9.6850004196167,-0.8709999918937683
1621584738224,0.9100000262260436,3.875999927520752,-7.064000129699707,-0.1570000052452087,-9.737000465393066,-0.8009999990463256
1621584738234,0.699999988079071,4.2729997634887695,-6.497000217437744,-0.1959999948740005,-9.776000022888184,-0.8080000281333923
1621584738244,0.7699999809265136,4.434999942779541,-6.610000133514404,-0.1959999948740005,-9.776000022888184,-0.8080000281333923
1621584738254,0.3499999940395355,4.926000118255615,-6.168000221252441,-0.1959999948740005,-9.76900005340576,-0.8460000157356262
1621584738264,-0.0700000002980232,5.392000198364258,-5.589000225067139,-0.1959999948740005,-9.776000022888184,-0.8080000281333923
1621584738274,-0.2800000011920929,5.915999889373779,-4.927999973297119,-0.1959999948740005,-9.776000022888184,-0.8080000281333923
1621584738284,-0.6299999952316284,6.486999988555908,-4.541999816894531,-0.1959999948740005,-9.782999992370604,-0.7689999938011169
1621584738294,-0.699999988079071,6.901000022888184,-4.46999979019165,-0.1959999948740005,-9.744000434875488,-0.762000024318695
1621584738304,-1.190000057220459,7.184999942779541,-4.064000129699707,-0.2750000059604644,-9.697999954223633,-0.7940000295639038
1621584738314,-0.9100000262260436,7.546000003814697,-4.498000144958496,-0.2349999994039535,-9.697999954223633,-0.7940000295639038
1621584738324,-0.8399999737739563,7.611000061035157,-4.059999942779541,-0.2750000059604644,-9.729999542236328,-0.8389999866485595
1621584738334,-0.6299999952316284,7.947000026702882,-4.355999946594238,-0.2750000059604644,-9.737000465393066,-0.8009999990463256
1621584738344,-0.4900000095367431,8.097000122070312,-4.401000022888184,-0.2750000059604644,-9.697999954223633,-0.7940000295639038
1621584738354,-0.3499999940395355,8.234999656677246,-4.375999927520752,-0.2349999994039535,-9.737000465393066,-0.8009999990463256
1621584738364,-0.6299999952316284,7.834000110626221,-4.51800012588501,-0.2349999994039535,-9.737000465393066,-0.8009999990463256
1621584738374,-0.4199999868869781,8.121999740600586,-4.539000034332275,-0.2349999994039535,-9.737000465393066,-0.8009999990463256
1621584738384,-0.4199999868869781,8.057000160217285,-4.9770002365112305,-0.2349999994039535,-9.737000465393066,-0.8009999990463256
1621584738394,-0.4900000095367431,8.166000366210938,-5.5970001220703125,-0.2349999994039535,-9.737000465393066,-0.8009999990463256
1621584738404,-0.4900000095367431,8.052000045776367,-5.758999824523926,-0.1959999948740005,-9.737000465393066,-0.8009999990463256
1621584738414,-0.699999988079071,7.809000015258789,-5.589000225067139,-0.1959999948740005,-9.729999542236328,-0.8389999866485595
1621584738424,-0.6299999952316284,7.525000095367432,-5.99399995803833,-0.1959999948740005,-9.729999542236328,-0.8389999866485595
1621584738434,-0.5600000023841857,7.52899980545044,-6.420000076293945,-0.1959999948740005,-9.737000465393066,-0.8009999990463256
1621584738444,-0.524999976158142,7.184499740600586,-6.480999946594238,-0.1959999948740005,-9.729999542236328,-0.8389999866485595
1621584738454,-0.4900000095367431,6.840000152587891,-6.541999816894531,-0.2750000059604644,-9.776000022888184,-0.8080000281333923
1621584738464,-0.4199999868869781,7.171999931335449,-6.4120001792907715,-0.2349999994039535,-9.737000465393066,-0.8009999990463256
1621584738474,-0.6299999952316284,6.690000057220459,-6.497000217437744,-0.2349999994039535,-9.737000465393066,-0.8009999990463256
1621584738484,-0.699999988079071,6.63700008392334,-7.004000186920166,-0.1959999948740005,-9.69200038909912,-0.8330000042915344
1621584738494,-0.3499999940395355,6.105999946594238,-6.813000202178955,-0.1959999948740005,-9.65999984741211,-0.787000000476837
1621584738504,-0.1400000005960464,5.894999980926514,-6.423999786376953,-0.1570000052452087,-9.652999877929688,-0.8259999752044677
1621584738514,-0.1400000005960464,5.97599983215332,-6.480999946594238,-0.1959999948740005,-9.645999908447264,-0.8640000224113464
1621584738524,0.1400000005960464,6.0329999923706055,-6.400000095367432,-0.2349999994039535,-9.652999877929688,-0.8259999752044677
1621584738534,0.1400000005960464,5.59499979019165,-6.335000038146973,-0.2349999994039535,-9.69200038909912,-0.8330000042915344
1621584738544,-0.0700000002980232,5.550000190734863,-6.485000133514404,-0.2349999994039535,-9.729999542236328,-0.8389999866485595
1621584738554,-0.4900000095367431,5.521999835968018,-5.921000003814697,-0.1959999948740005,-9.755000114440918,-0.9229999780654908
1621584738564,-0.4900000095367431,5.8460001945495605,-6.1479997634887695,-0.2349999994039535,-9.717000007629396,-0.9169999957084656
1621584738574,-0.699999988079071,5.952000141143799,-6.3429999351501465,-0.2349999994039535,-9.729999542236328,-0.8389999866485595
1621584738584,-0.4199999868869781,5.752999782562256,-6.021999835968018,-0.1959999948740005,-9.704999923706056,-0.7549999952316284
1621584738594,-0.209999993443489,5.867000102996826,-5.860000133514404,-0.1570000052452087,-9.69200038909912,-0.8330000042915344
1621584738604,-0.1400000005960464,5.433000087738037,-5.013000011444092,-0.1570000052452087,-9.666999816894531,-0.7490000128746032
1621584738614,0.4900000095367431,4.633999824523926,-4.513999938964844,-0.1959999948740005,-9.621000289916992,-0.7799999713897705
1621584738624,1.2599999904632568,4.314000129699707,-4.7129998207092285,-0.2349999994039535,-9.61400032043457,-0.8190000057220459
1621584738634,1.399999976158142,3.9409999847412114,-5.418000221252441,-0.2349999994039535,-9.569000244140623,-0.8510000109672546
1621584738644,1.6799999475479126,3.259000062942505,-6.390999794006348,-0.2349999994039535,-9.645999908447264,-0.8640000224113464
1621584738654,1.75,3.246999979019165,-7.531000137329101,-0.2750000059604644,-9.722999572753906,-0.8780000209808348
1621584738664,1.6449999809265137,3.1640000343322754,-7.865499973297118,-0.2349999994039535,-9.76900005340576,-0.8460000157356262
1621584738674,1.5399999618530271,3.0810000896453857,-8.199999809265137,-0.2349999994039535,-9.814000129699709,-0.8140000104904174
1621584738684,0.699999988079071,2.9790000915527344,-8.430999755859375,-0.2750000059604644,-9.866999626159668,-0.7440000176429749
1621584738694,-0.2800000011920929,3.197999954223633,-8.463000297546387,-0.3140000104904174,-9.859999656677246,-0.7829999923706054
1621584738704,-0.8399999737739563,3.559000015258789,-8.897000312805176,-0.3529999852180481,-9.897999763488768,-0.7889999747276306
1621584738714,-1.6799999475479126,3.86299991607666,-9.411999702453612,-0.3529999852180481,-9.95699977874756,-0.6800000071525573
1621584738724,-2.450000047683716,3.8959999084472656,-9.192999839782717,-0.3919999897480011,-10.163999557495115,-0.637000024318695
1621584738734,-3.5,4.158999919891357,-9.076000213623049,-0.4309999942779541,-10.36400032043457,-0.6330000162124633
1621584738744,-5.880000114440918,4.484000205993652,-9.303000450134276,-0.4709999859333038,-10.42300033569336,-0.5230000019073486
1621584738754,-8.890000343322754,4.568999767303467,-9.78499984741211,-0.5879999995231628,-10.468999862670898,-0.492000013589859
1621584738764,-11.899999618530272,5.335000038146973,-10.503000259399414,-0.7450000047683715,-10.54599952697754,-0.5049999952316284
1621584738774,-14.699999809265137,7.771999835968018,-10.215999603271484,-0.981000006198883,-10.506999969482422,-0.4979999959468841
1621584738784,-17.709999084472656,11.86299991607666,-10.845000267028809,-1.1770000457763672,-10.42300033569336,-0.5230000019073486
1621584738794,-20.579999923706055,17.174999237060547,-11.54300022125244,-1.3730000257492063,-10.210000038146973,-0.6050000190734863
1621584738804,-22.329999923706055,24.02400016784668,-11.685999870300291,-1.2940000295639038,-10.156999588012695,-0.6759999990463256
1621584738814,-23.799999237060547,30.135000228881836,-10.465999603271484,-1.2549999952316284,-10.104999542236328,-0.7459999918937683
1621584738824,-25.34000015258789,35.08300018310547,-7.888000011444091,-1.215999960899353,-10.006999969482422,-0.8479999899864196
1621584738834,-26.459999084472656,39.64099884033203,-5.519999980926514,-1.1770000457763672,-9.90999984741211,-0.9509999752044676
1621584738844,-27.93000030517578,44.10599899291992,-4.235000133514404,-1.215999960899353,-9.843999862670898,-1.0980000495910645
1621584738854,-28.770000457763672,48.78499984741211,-3.7660000324249263,-1.1770000457763672,-9.661999702453612,-1.22599995136261
1621584738864,-28.94499969482422,50.779998779296875,-4.196000099182129,-1.0199999809265137,-9.571000099182127,-1.2890000343322754
1621584738874,-29.1200008392334,52.775001525878906,-4.625999927520752,-0.9020000100135804,-9.388999938964846,-1.4170000553131104
1621584738884,-28.770000457763672,56.34299850463867,-5.915999889373779,-0.6669999957084655,-9.161999702453612,-1.5759999752044678
1621584738894,-27.86000061035156,59.2869987487793,-6.889999866485596,-0.5099999904632568,-8.902999877929688,-1.6890000104904177
1621584738904,-26.040000915527344,61.01399993896485,-7.011000156402588,-0.3529999852180481,-8.720999717712402,-1.8170000314712524
1621584738914,-23.799999237060547,62.29600143432618,-6.2170000076293945,-0.1959999948740005,-8.592000007629395,-1.8730000257492063
1621584738924,-20.649999618530273,63.290000915527344,-5.4019999504089355,-0.0780000016093254,-8.532999992370605,-1.9830000400543213
1621584738934,-16.8700008392334,64.00700378417969,-5.843999862670898,0.0,-8.602999687194824,-2.0350000858306885
1621584738944,-12.880000114440918,64.55000305175781,-7.311999797821045,0.0780000016093254,-8.711999893188477,-2.0940001010894775
1621584738954,-9.65999984741211,64.2300033569336,-8.718999862670898,0.1959999948740005,-8.737000465393066,-2.177999973297119
1621584738964,-6.860000133514404,64.0510025024414,-9.319000244140623,0.2750000059604644,-8.847000122070312,-2.236999988555908
1621584738974,-4.340000152587891,63.512001037597656,-9.484999656677246,0.3919999897480011,-8.923999786376953,-2.250999927520752
1621584738984,-1.8200000524520872,62.652000427246094,-8.642000198364258,0.5490000247955322,-9.008000373840332,-2.2260000705718994
1621584738994,1.0499999523162842,61.006000518798835,-7.368000030517577,0.5490000247955322,-9.0600004196167,-2.1549999713897705
1621584739004,3.359999895095825,59.81800079345703,-5.872000217437744,0.4709999859333038,-9.04599952697754,-2.2320001125335693
1621584739014,5.320000171661377,58.902000427246094,-3.901000022888184,0.5099999904632568,-9.04599952697754,-2.2320001125335693
1621584739024,7.980000019073486,57.87699890136719,-2.5179998874664307,0.5490000247955322,-9.098999977111816,-2.1619999408721924
1621584739034,10.149999618530272,56.83100128173828,-1.4229999780654907,0.5099999904632568,-9.14400005340576,-2.130000114440918
1621584739044,11.6899995803833,55.97100067138672,-0.5799999833106994,0.4709999859333038,-9.227999687194824,-2.1050000190734863
1621584739054,12.880000114440918,55.24100112915039,-0.0689999982714653,0.4709999859333038,-9.281000137329102,-2.0350000858306885
1621584739064,13.510000228881836,55.042503356933594,0.2515000104904174,0.3919999897480011,-9.40999984741211,-1.9780000448226929
1621584739074,14.140000343322754,54.84400177001953,0.5720000267028807,0.3919999897480011,-9.454999923706056,-1.9459999799728391
1621584739084,14.909999847412108,54.32899856567382,1.4769999980926514,0.3919999897480011,-9.468999862670898,-1.86899995803833
1621584739094,15.68000030517578,53.1609992980957,2.052999973297119,0.3529999852180481,-9.468999862670898,-1.86899995803833
1621584739103,15.470000267028809,52.01399993896485,2.9159998893737793,0.3919999897480011,-9.508000373840332,-1.8760000467300415
1621584739113,15.539999961853027,51.084999084472656,3.747999906539917,0.3529999852180481,-9.675999641418455,-1.825999975204468
1621584739123,15.609999656677246,49.74300003051758,4.50600004196167,0.3140000104904174,-9.819000244140623,-1.6920000314712524
1621584739133,15.1899995803833,48.0,5.123000144958496,0.3140000104904174,-9.916999816894531,-1.5889999866485596
1621584739143,13.649999618530272,45.90700149536133,6.104000091552734,0.3529999852180481,-9.982999801635742,-1.4420000314712524
1621584739153,11.479999542236328,43.599998474121094,7.901000022888184,0.3140000104904174,-10.034999847412108,-1.3710000514984133
1621584739163,9.239999771118164,40.58000183105469,9.71399974822998,0.2750000059604644,-10.062000274658203,-1.2170000076293943
1621584739173,6.789999961853027,37.944000244140625,10.954999923706056,0.2750000059604644,-10.043999671936035,-1.093999981880188
1621584739183,4.619999885559082,35.6609992980957,11.406000137329102,0.2349999994039535,-9.979999542236328,-1.003000020980835
1621584739193,2.450000047683716,32.61199951171875,11.366000175476074,0.1570000052452087,-9.878000259399414,-0.9049999713897704
1621584739203,0.4900000095367431,29.468999862670895,11.451000213623049,0.0780000016093254,-9.80799961090088,-0.8529999852180481
1621584739213,-1.4700000286102295,26.382999420166016,11.618000030517578,0.0,-9.76900005340576,-0.8460000157356262
1621584739223,-2.450000047683716,23.224000930786133,10.989999771118164,-0.0390000008046627,-9.76900005340576,-0.8460000157356262
1621584739233,-2.5199999809265137,19.878999710083008,10.61299991607666,0.0,-9.76900005340576,-0.8460000157356262
1621584739243,-2.5199999809265137,15.873000144958496,10.760000228881836,0.0,-9.729999542236328,-0.8389999866485595
1621584739253,-2.5199999809265137,13.675000190734863,10.727499961853027,0.0390000008046627,-9.645999908447264,-0.8640000224113464
1621584739263,-2.5199999809265137,11.47700023651123,10.69499969482422,0.1180000007152557,-9.678000450134276,-0.9100000262260436
1621584739273,-2.0299999713897705,6.501999855041504,11.097999572753906,0.1180000007152557,-9.586999893188477,-0.9729999899864196
1621584739283,-1.8899999856948853,1.6239999532699585,10.947999954223633,0.1570000052452087,-9.604999542236328,-1.0959999561309814
1621584739293,-1.5399999618530271,-3.371999979019165,9.854000091552734,0.1180000007152557,-9.513999938964846,-1.1599999666213987
1621584739303,-1.75,-8.404999732971191,7.757999897003175,0.0390000008046627,-9.50100040435791,-1.2369999885559082
1621584739313,-1.6799999475479126,-13.404999732971191,4.672999858856201,0.0,-9.44200038909912,-1.3459999561309814
1621584739323,-1.75,-17.56599998474121,1.6649999618530271,-0.0390000008046627,-9.550999641418455,-1.4049999713897705
1621584739333,-2.1700000762939453,-21.288999557495117,-0.2000000029802322,-0.0780000016093254,-9.505000114440918,-1.437000036239624
1621584739343,-2.6600000858306885,-25.996999740600582,-2.5230000019073486,-0.0780000016093254,-9.484999656677246,-1.5529999732971191
1621584739353,-3.5,-30.304000854492188,-4.703999996185303,-0.0780000016093254,-9.458000183105469,-1.7070000171661377
1621584739363,-3.7799999713897705,-33.99399948120117,-5.140999794006348,-0.1180000007152557,-9.46500015258789,-1.6690000295639038
1621584739373,-4.130000114440918,-37.821998596191406,-5.603000164031982,-0.1180000007152557,-9.43299961090088,-1.6230000257492063
1621584739383,-3.6400001049041744,-41.540000915527344,-7.89300012588501,-0.1180000007152557,-9.291999816894531,-1.5190000534057615
1621584739393,-3.5,-45.069000244140625,-9.652999877929688,0.0,-9.354999542236328,-1.6100000143051147
1621584739403,-3.2899999618530273,-48.368999481201165,-11.088000297546388,0.3529999852180481,-9.779999732971191,-1.684999942779541
1621584739413,-4.760000228881836,-51.73899841308594,-12.534999847412108,0.9020000100135804,-10.232999801635742,-1.6050000190734863
1621584739423,-8.890000343322754,-58.417999267578125,-13.357000350952148,1.491000056266785,-10.536999702453612,-1.4600000381469729
1621584739433,-11.795000076293944,-64.08900451660156,-13.041999816894531,2.0399999618530273,-10.68000030517578,-1.3259999752044678
1621584739443,-14.699999809265137,-69.76000213623047,-12.72700023651123,2.4709999561309814,-10.70699977874756,-1.1710000038146973
1621584739453,-21.280000686645508,-84.81199645996094,-10.404999732971191,2.8239998817443848,-10.765999794006348,-1.062000036239624
1621584739463,-26.38999938964844,-102.9250030517578,-6.8470001220703125,2.9809999465942383,-10.779999732971191,-0.9850000143051147
1621584739473,-31.219999313354492,-122.06800079345705,-3.8959999084472656,3.0199999809265137,-10.76200008392334,-0.8619999885559082
1621584739483,-35.209999084472656,-140.91900634765625,-2.5999999046325684,2.941999912261963,-10.635000228881836,-0.6800000071525573
1621584739493,-38.5,-158.68800354003906,-2.6059999465942383,2.549999952316284,-10.307000160217283,-0.5030000209808348
1621584739503,-42.13999938964844,-176.67599487304688,-2.5789999961853027,2.0789999961853027,-9.895999908447264,-0.3510000109672546
1621584739513,-45.0099983215332,-193.79600524902344,-1.830000042915344,1.4509999752044678,-9.593999862670898,-0.2579999864101409
1621584739523,-45.5,-207.9239959716797,-1.1230000257492063,0.8240000009536743,-9.406999588012695,-0.1850000023841857
1621584739533,-45.08000183105469,-219.06300354003903,-2.447000026702881,0.3140000104904174,-9.18299961090088,-0.1059999987483024
1621584739543,-44.869998931884766,-227.8430023193359,-5.060999870300293,-0.1180000007152557,-8.958000183105469,-0.0260000005364418
1621584739553,-44.099998474121094,-234.64300537109375,-8.819000244140625,-0.5490000247955322,-8.758000373840332,-0.0309999994933605
1621584739563,-42.70000076293945,-239.57899475097656,-13.883000373840332,-0.9409999847412108,-8.526000022888184,0.0099999997764825
1621584739573,-41.22999954223633,-242.25599670410156,-18.052000045776367,-1.3339999914169312,-8.371000289916992,0.0379999987781047
1621584739583,-39.689998626708984,-243.18099975585935,-21.270999908447266,-1.72599995136261,-8.279999732971191,-0.0260000005364418
1621584739593,-38.150001525878906,-241.74200439453125,-23.788999557495117,-2.0399999618530273,-8.291999816894531,-0.1870000064373016
1621584739603,-36.04999923706055,-238.2100067138672,-27.288999557495117,-2.2750000953674316,-8.470999717712402,-0.2989999949932098
1621584739613,-35.03499984741211,-235.8625030517578,-29.114500045776367,-2.4709999561309814,-8.612000465393066,-0.402999997138977
1621584739623,-34.02000045776367,-233.51499938964844,-30.940000534057617,-2.628000020980835,-8.753000259399414,-0.5080000162124633
1621584739633,-31.920000076293945,-227.7689971923828,-33.694000244140625,-2.9030001163482666,-8.848999977111816,-0.6439999938011169
1621584739643,-30.239999771118164,-221.2250061035156,-35.737998962402344,-3.25600004196167,-8.944000244140625,-0.7799999713897705
1621584739653,-28.350000381469727,-213.17599487304688,-37.446998596191406,-3.569999933242798,-8.916999816894531,-0.9350000023841856
1621584739663,-25.549999237060547,-202.8560028076172,-39.5359992980957,-3.8050000667572026,-8.85099983215332,-1.0829999446868896
1621584739673,-22.399999618530273,-190.9429931640625,-42.198001861572266,-3.961999893188477,-8.767000198364258,-1.1080000400543213
1621584739683,-18.549999237060547,-177.01100158691406,-44.21900177001953,-4.000999927520752,-8.668999671936035,-1.2100000381469729
1621584739693,-13.229999542236328,-162.6929931640625,-45.604000091552734,-3.92300009727478,-8.78499984741211,-1.2300000190734863
1621584739703,-7.070000171661377,-147.88400268554688,-46.547000885009766,-3.8440001010894775,-8.932999610900879,-1.2960000038146973
1621584739713,-0.8399999737739563,-132.76699829101562,-47.22200012207031,-3.6480000019073486,-9.234999656677246,-1.3890000581741333
1621584739723,5.110000133514404,-118.36799621582033,-48.66400146484375,-3.372999906539917,-9.576000213623049,-1.4889999628067017
1621584739733,9.239999771118164,-104.79199981689452,-49.46799850463867,-3.138000011444092,-9.937000274658203,-1.4730000495910645
1621584739743,11.479999542236328,-92.40399932861328,-48.777000427246094,-2.864000082015991,-10.13700008392334,-1.468999981880188
1621584739753,12.039999961853027,-81.0009994506836,-47.334999084472656,-2.6670000553131104,-10.35099983215332,-1.3869999647140503
1621584739763,12.18000030517578,-70.66100311279297,-45.51100158691406,-2.431999921798706,-10.395999908447266,-1.3550000190734863
1621584739773,12.31999969482422,-61.39500045776367,-44.445999145507805,-2.236000061035156,-10.447999954223633,-1.2849999666213987
1621584739783,12.25,-52.89899826049805,-43.44599914550781,-2.000999927520752,-10.416999816894531,-1.2389999628067017
1621584739793,11.0600004196167,-44.64699935913086,-42.275001525878906,-1.7649999856948853,-10.416999816894531,-1.2389999628067017
1621584739803,10.604999542236328,-41.00350189208984,-41.170501708984375,-1.5299999713897705,-10.461999893188477,-1.2070000171661377
1621584739813,10.149999618530272,-37.36000061035156,-40.06600189208984,-1.2940000295639038,-10.50100040435791,-1.2139999866485596
1621584739823,8.819999694824219,-31.277000427246097,-37.07400131225586,-1.0590000152587893,-10.531999588012695,-1.2599999904632568
1621584739833,6.789999961853027,-25.437999725341797,-33.9119987487793,-0.8629999756813049,-10.494000434875488,-1.253000020980835
1621584739843,4.269999980926514,-21.33799934387207,-30.55900001525879,-0.6669999957084655,-10.385000228881836,-1.194000005722046
1621584739853,1.8899999856948853,-18.35300064086914,-27.332000732421875,-0.5099999904632568,-10.237000465393066,-1.128000020980835
1621584739863,-0.0700000002980232,-16.304000854492188,-23.6299991607666,-0.3529999852180481,-10.083000183105469,-1.10099995136261
1621584739873,-1.6100000143051147,-15.095000267028809,-20.0049991607666,-0.3140000104904174,-9.883000373840332,-1.1050000190734863
1621584739883,-2.380000114440918,-14.706000328063965,-17.378000259399414,-0.3140000104904174,-9.651000022888184,-1.0640000104904177
1621584739893,-2.7300000190734863,-14.916000366210938,-14.571999549865724,-0.3529999852180481,-9.444000244140623,-1.1080000400543213
1621584739903,-2.6600000858306885,-15.196000099182127,-11.777999877929688,-0.3919999897480011,-9.39900016784668,-1.1390000581741333
1621584739913,-1.75,-15.06999969482422,-9.267999649047852,-0.4709999859333038,-9.468999862670898,-1.1920000314712524
1621584739923,-0.9800000190734864,-14.440999984741213,-7.592999935150147,-0.5879999995231628,-9.637000083923342,-1.1419999599456787
1621584739933,-1.5399999618530271,-13.581000328063965,-6.019999980926514,-0.5879999995231628,-9.62399959564209,-1.218999981880188
1621584739943,-2.0999999046325684,-12.376999855041504,-5.593999862670898,-0.5490000247955322,-9.62399959564209,-1.218999981880188
1621584739953,-2.869999885559082,-11.140000343322754,-6.1579999923706055,-0.5879999995231628,-9.616999626159668,-1.2580000162124634
1621584739963,-3.7100000381469727,-10.39799976348877,-6.73799991607666,-0.6280000209808348,-9.609999656677246,-1.2960000038146973
1621584739973,-3.9200000762939458,-9.17300033569336,-7.232999801635742,-0.6280000209808348,-9.57800006866455,-1.2510000467300415
1621584739983,-3.990000009536743,-8.38700008392334,-7.663000106811523,-0.6669999957084655,-9.57800006866455,-1.2510000467300415
1621584739993,-4.409999847412109,-8.354000091552734,-7.443999767303467,-0.6280000209808348,-9.763999938964846,-1.3229999542236328
1621584740003,-5.144999980926514,-8.096500396728516,-6.6875,-0.6280000209808348,-9.918999671936035,-1.35099995136261
1621584740013,-5.880000114440918,-7.83900022506714,-5.931000232696533,-0.6669999957084655,-10.010000228881836,-1.2869999408721924
1621584740023,-8.470000267028809,-7.385000228881835,-4.073999881744385,-0.7059999704360961,-10.17099952697754,-1.2760000228881836
1621584740033,-10.56999969482422,-6.683000087738037,-2.812999963760376,-0.7059999704360961,-10.248000144958496,-1.2890000343322754
1621584740043,-13.090000152587892,-6.232999801635742,-1.7389999628067017,-0.6669999957084655,-10.217000007629396,-1.24399995803833
1621584740053,-15.399999618530272,-5.206999778747559,-0.7049999833106994,-0.7059999704360961,-10.133000373840332,-1.2690000534057615
1621584740063,-17.5,-3.750999927520752,-0.0930000022053718,-0.7450000047683715,-9.95300006866455,-1.1579999923706057
1621584740073,-18.40999984741211,-2.86299991607666,-0.2919999957084655,-0.6669999957084655,-9.829999923706056,-1.1759999990463257
1621584740083,-18.40999984741211,-2.2219998836517334,-1.1030000448226929,-0.6280000209808348,-9.862000465393066,-1.2209999561309814
1621584740093,-17.56999969482422,-1.3910000324249268,-1.3830000162124634,-0.6669999957084655,-9.836999893188477,-1.1369999647140503
1621584740103,-16.520000457763672,-1.187999963760376,-0.9200000166893004,-0.7059999704360961,-9.791999816894531,-1.1690000295639038
1621584740113,-15.260000228881836,-1.2170000076293943,-0.3569999933242797,-0.7059999704360961,-9.746000289916992,-1.2009999752044678
1621584740123,-14.0,-1.6380000114440918,0.4219999909400939,-0.7059999704360961,-9.73900032043457,-1.2389999628067017
1621584740133,-13.510000228881836,-1.3700000047683716,1.3220000267028809,-0.7059999704360961,-9.803000450134276,-1.3300000429153442
1621584740143,-12.739999771118164,-0.9279999732971193,2.0399999618530273,-0.7059999704360961,-9.880000114440918,-1.343999981880188
1621584740153,-12.390000343322754,-0.6729999780654907,1.8009999990463257,-0.7059999704360961,-9.918999671936035,-1.35099995136261
1621584740163,-12.039999961853027,-0.5759999752044677,1.2489999532699585,-0.7059999704360961,-9.842000007629396,-1.337000012397766
1621584740173,-11.6899995803833,-0.5070000290870667,0.0529999993741512,-0.6669999957084655,-9.763999938964846,-1.3229999542236328
1621584740183,-11.270000457763672,-0.1870000064373016,-0.9570000171661376,-0.7059999704360961,-9.718999862670898,-1.3550000190734863
1621584740193,-10.220000267028809,0.0280000008642673,-1.7719999551773071,-0.7450000047683715,-9.642000198364256,-1.3420000076293943
1621584740203,-9.029999732971191,0.1539999991655349,-2.88700008392334,-0.7850000262260437,-9.526000022888184,-1.3209999799728394
1621584740213,-8.399999618530273,0.2490000128746032,-3.225500106811523,-0.7450000047683715,-9.454999923706056,-1.2690000534057615
1621584740223,-7.769999980926514,0.3440000116825103,-3.563999891281128,-0.7850000262260437,-9.423999786376951,-1.2230000495910645
1621584740233,-6.440000057220459,0.7900000214576721,-3.2720000743865967,-0.8240000009536743,-9.333000183105469,-1.2869999408721924
1621584740243,-4.480000019073486,1.2319999933242798,-3.763000011444092,-0.8240000009536743,-9.300999641418455,-1.2419999837875366
1621584740253,-2.5199999809265137,1.7630000114440918,-5.1620001792907715,-0.8240000009536743,-9.223999977111816,-1.2280000448226929
1621584740263,-1.0499999523162842,2.177000045776367,-6.297999858856201,-0.8240000009536743,-9.145999908447264,-1.2139999866485596
1621584740273,-0.1400000005960464,2.9590001106262207,-7.510000228881835,-0.9020000100135804,-9.114999771118164,-1.1690000295639038
1621584740283,0.209999993443489,3.9809999465942383,-8.467000007629395,-0.9020000100135804,-9.145999908447264,-1.2139999866485596
1621584740293,0.209999993443489,5.383999824523926,-9.571000099182127,-0.9409999847412108,-9.1850004196167,-1.2209999561309814
1621584740303,-0.5600000023841857,6.892000198364258,-9.65999984741211,-0.981000006198883,-9.223999977111816,-1.2280000448226929
1621584740313,-2.380000114440918,8.428999900817871,-9.104999542236328,-0.9409999847412108,-9.300999641418455,-1.2419999837875366
1621584740323,-3.7100000381469727,9.824000358581545,-8.14799976348877,-0.981000006198883,-9.378000259399414,-1.2549999952316284
1621584740333,-5.320000171661377,11.222999572753906,-7.617000102996825,-0.981000006198883,-9.416999816894531,-1.2619999647140503
1621584740343,-6.71999979019165,11.895999908447266,-7.000999927520752,-0.981000006198883,-9.43000030517578,-1.184999942779541
1621584740353,-7.980000019073486,13.043999671936035,-6.656000137329102,-1.0199999809265137,-9.392000198364256,-1.1779999732971191
1621584740363,-8.960000038146973,14.350000381469728,-5.999000072479248,-1.0199999809265137,-9.359999656677246,-1.1330000162124634
