timestamp,gyro_x,gyro_y,gyro_z,acc_x,acc_y,acc_z
1622104627695,0.0,0.0,0.0,0.0,0.0,0.0
1622104627704,-0.1400000005960464,2.938999891281128,-6.590000152587891,-0.6280000209808348,-9.755000114440918,0.4309999942779541
1622104627714,0.1400000005960464,3.5920000076293945,-7.469999790191651,-0.6280000209808348,-9.715999603271484,0.4379999935626983
1622104627724,0.2800000011920929,3.8589999675750737,-7.777999877929688,-0.6669999957084655,-9.715999603271484,0.4379999935626983
1622104627734,0.0700000002980232,4.743000030517578,-7.551000118255616,-0.6280000209808348,-9.755000114440918,0.4309999942779541
1622104627744,0.0,4.901000022888184,-7.238999843597413,-0.5879999995231628,-9.734999656677246,0.3149999976158142
1622104627754,0.209999993443489,5.107999801635742,-7.202000141143799,-0.5879999995231628,-9.741000175476074,0.3540000021457672
1622104627764,-0.1400000005960464,5.388000011444092,-7.579999923706055,-0.5879999995231628,-9.786999702453612,0.3849999904632568
1622104627774,-0.3499999940395355,5.984000205993652,-7.331999778747559,-0.5879999995231628,-9.786999702453612,0.3849999904632568
1622104627784,-0.4900000095367431,5.9679999351501465,-6.8379998207092285,-0.5099999904632568,-9.819000244140623,0.3400000035762786
1622104627794,-0.9800000190734864,6.130000114440918,-6.951000213623047,-0.5490000247955322,-9.786999702453612,0.3849999904632568
1622104627804,-1.3300000429153442,5.88700008392334,-6.781000137329102,-0.5099999904632568,-9.826000213623049,0.3790000081062316
1622104627814,-1.5399999618530271,5.922999858856201,-6.98799991607666,-0.5099999904632568,-9.786999702453612,0.3849999904632568
1622104627824,-1.9600000381469729,5.395999908447266,-7.223000049591064,-0.5099999904632568,-9.786999702453612,0.3849999904632568
1622104627834,-2.1700000762939453,4.946000099182129,-7.089000225067139,-0.5099999904632568,-9.786999702453612,0.3849999904632568
1622104627844,-2.0999999046325684,4.901000022888184,-7.238999843597413,-0.5099999904632568,-9.748000144958496,0.3919999897480011
1622104627854,-1.9600000381469729,4.552999973297119,-6.874000072479248,-0.5099999904632568,-9.70300006866455,0.3600000143051147
1622104627864,-1.5399999618530271,4.633999824523926,-6.931000232696533,-0.5099999904632568,-9.663999557495115,0.367000013589859
1622104627874,-1.6799999475479126,4.515999794006348,-6.666999816894531,-0.5490000247955322,-9.663999557495115,0.367000013589859
1622104627884,-1.3300000429153442,5.140999794006348,-6.982999801635742,-0.5490000247955322,-9.678000450134276,0.4440000057220459
1622104627894,-1.2599999904632568,5.138999938964844,-6.770500183105469,-0.5490000247955322,-9.67099952697754,0.4059999883174896
1622104627904,-1.190000057220459,5.13700008392334,-6.558000087738037,-0.5490000247955322,-9.67099952697754,0.4059999883174896
1622104627914,-0.9100000262260436,5.656000137329102,-6.678999900817871,-0.5490000247955322,-9.663999557495115,0.367000013589859
1622104627924,-0.9100000262260436,5.809999942779541,-5.940999984741211,-0.5099999904632568,-9.663999557495115,0.367000013589859
1622104627934,-0.8399999737739563,5.704999923706055,-5.747000217437744,-0.5490000247955322,-9.663999557495115,0.367000013589859
1622104627944,-0.9100000262260436,5.486000061035156,-5.714000225067139,-0.5490000247955322,-9.741000175476074,0.3540000021457672
1622104627954,-0.699999988079071,5.591000080108643,-5.908999919891357,-0.5879999995231628,-9.70300006866455,0.3600000143051147
1622104627964,-0.9800000190734864,5.2220001220703125,-5.831999778747559,-0.5490000247955322,-9.741000175476074,0.3540000021457672
1622104627974,-1.190000057220459,4.888999938964844,-5.961999893188477,-0.5879999995231628,-9.741000175476074,0.3540000021457672
1622104627984,-1.2599999904632568,4.86899995803833,-6.249000072479248,-0.5490000247955322,-9.741000175476074,0.3540000021457672
1622104627994,-1.190000057220459,4.560999870300293,-6.517000198364258,-0.5490000247955322,-9.741000175476074,0.3540000021457672
1622104628004,-1.1200000047683716,4.434999942779541,-6.610000133514404,-0.5879999995231628,-9.727999687194824,0.2759999930858612
1622104628014,-1.190000057220459,4.452000141143799,-5.896999835968018,-0.5879999995231628,-9.755000114440918,0.4309999942779541
1622104628024,-1.190000057220459,4.168000221252441,-6.302000045776367,-0.5879999995231628,-9.772999763488768,0.3079999983310699
1622104628034,-1.190000057220459,4.244999885559082,-7.140999794006348,-0.5879999995231628,-9.696000099182127,0.3219999969005584
1622104628044,-0.7699999809265136,4.480000019073486,-7.669000148773193,-0.5879999995231628,-9.70300006866455,0.3600000143051147
1622104628054,-0.2800000011920929,4.758999824523926,-8.045999526977539,-0.6669999957084655,-9.663999557495115,0.367000013589859
1622104628064,0.0,5.375999927520752,-7.511000156402587,-0.6669999957084655,-9.696000099182127,0.3219999969005584
1622104628074,0.3499999940395355,5.116000175476074,-6.8460001945495605,-0.5879999995231628,-9.741000175476074,0.3540000021457672
1622104628084,0.0700000002980232,4.788000106811523,-6.192999839782715,-0.5879999995231628,-9.734999656677246,0.3149999976158142
1622104628094,0.1400000005960464,4.709000110626221,-6.348999977111816,-0.5099999904632568,-9.70300006866455,0.3600000143051147
1622104628104,0.209999993443489,4.630000114440918,-6.505000114440918,-0.5099999904632568,-9.710000038146973,0.3989999890327453
1622104628114,0.699999988079071,4.3420000076293945,-6.485000133514404,-0.5099999904632568,-9.710000038146973,0.3989999890327453
1622104628124,0.4900000095367431,4.216000080108643,-6.578000068664551,-0.5099999904632568,-9.710000038146973,0.3989999890327453
1622104628134,0.0,3.815000057220459,-6.71999979019165,-0.4709999859333038,-9.748000144958496,0.3919999897480011
1622104628144,-0.1400000005960464,3.3570001125335693,-6.942999839782715,-0.5099999904632568,-9.76599979400635,0.2689999938011169
1622104628154,-0.6299999952316284,3.0480000972747803,-7.210000038146973,-0.5099999904632568,-9.819000244140623,0.3400000035762786
1622104628164,-1.2599999904632568,2.8540000915527344,-7.315999984741211,-0.5879999995231628,-9.779999732971191,0.3470000028610229
1622104628174,-1.4700000286102295,2.809000015258789,-7.4660000801086435,-0.6280000209808348,-9.786999702453612,0.3849999904632568
1622104628184,-1.2599999904632568,2.9830000400543213,-7.6479997634887695,-0.6280000209808348,-9.748000144958496,0.3919999897480011
1622104628194,-1.5399999618530271,3.571000099182129,-7.757999897003175,-0.6669999957084655,-9.696000099182127,0.3219999969005584
1622104628204,-1.4700000286102295,4.261000156402588,-7.636000156402587,-0.6669999957084655,-9.663999557495115,0.367000013589859
1622104628214,-0.8399999737739563,4.953999996185303,-7.940000057220459,-0.6669999957084655,-9.663999557495115,0.367000013589859
1622104628224,-0.6299999952316284,5.7729997634887695,-8.151000022888184,-0.6280000209808348,-9.663999557495115,0.367000013589859
1622104628234,-0.4199999868869781,6.328999996185303,-8.479999542236328,-0.6280000209808348,-9.62600040435791,0.3740000128746032
1622104628244,0.0700000002980232,6.998000144958496,-7.438000202178955,-0.5490000247955322,-9.62600040435791,0.3740000128746032
1622104628254,0.0,6.7870001792907715,-7.048999786376953,-0.5099999904632568,-9.656999588012695,0.3289999961853027
1622104628264,0.0,6.705999851226807,-6.992000102996826,-0.4709999859333038,-9.741000175476074,0.3540000021457672
1622104628274,-0.209999993443489,6.617000102996826,-7.291999816894531,-0.4709999859333038,-9.772999763488768,0.3079999983310699
1622104628284,-0.4899999797344207,6.635000228881836,-7.395500183105469,-0.3919999897480011,-9.857000350952148,0.3330000042915344
1622104628294,-0.7699999809265136,6.6529998779296875,-7.499000072479248,-0.4309999942779541,-9.826000213623049,0.3790000081062316
1622104628304,-1.0499999523162842,6.251999855041504,-7.639999866485595,-0.4309999942779541,-9.819000244140623,0.3400000035762786
1622104628314,-1.5399999618530271,5.63100004196167,-7.75,-0.4709999859333038,-9.772999763488768,0.3079999983310699
1622104628324,-1.3300000429153442,5.111999988555908,-7.627999782562256,-0.4709999859333038,-9.696000099182127,0.3219999969005584
1622104628334,-1.0499999523162842,4.982999801635742,-7.296000003814697,-0.5099999904632568,-9.715999603271484,0.4379999935626983
1622104628344,-0.9100000262260436,4.796000003814697,-7.044000148773193,-0.5490000247955322,-9.710000038146973,0.3989999890327453
1622104628354,-0.9100000262260436,5.116000175476074,-6.8460001945495605,-0.5490000247955322,-9.741000175476074,0.3540000021457672
1622104628364,-0.9800000190734864,5.416999816894531,-6.934999942779541,-0.5490000247955322,-9.663999557495115,0.367000013589859
1622104628374,-0.7699999809265136,5.784999847412109,-7.01200008392334,-0.5490000247955322,-9.70300006866455,0.3600000143051147
1622104628384,-0.8399999737739563,6.025000095367432,-6.75600004196167,-0.5490000247955322,-9.70300006866455,0.3600000143051147
1622104628394,-0.6299999952316284,5.761000156402588,-6.874000072479248,-0.5099999904632568,-9.70300006866455,0.3600000143051147
1622104628404,-0.8399999737739563,6.048999786376953,-6.894000053405762,-0.5099999904632568,-9.734999656677246,0.3149999976158142
1622104628414,-0.6299999952316284,5.867000102996826,-7.068999767303467,-0.5490000247955322,-9.741000175476074,0.3540000021457672
1622104628424,-0.9800000190734864,6.0370001792907715,-6.824999809265137,-0.5879999995231628,-9.812000274658203,0.3009999990463256
1622104628434,-1.1200000047683716,5.955999851226807,-6.769000053405762,-0.5490000247955322,-9.812000274658203,0.3009999990463256
1622104628444,-1.2599999904632568,5.729000091552734,-7.0929999351501465,-0.5099999904632568,-9.772999763488768,0.3079999983310699
1622104628454,-1.190000057220459,5.879000186920166,-7.138000011444092,-0.5490000247955322,-9.741000175476074,0.3540000021457672
1622104628464,-1.2599999904632568,5.763500213623047,-7.086999893188477,-0.5490000247955322,-9.772999763488768,0.3079999983310699
1622104628474,-1.3300000429153442,5.6479997634887695,-7.035999774932861,-0.5490000247955322,-9.779999732971191,0.3470000028610229
1622104628484,-1.6100000143051147,5.769000053405762,-6.517000198364258,-0.5490000247955322,-9.734999656677246,0.3149999976158142
1622104628494,-2.0299999713897705,5.181000232696533,-6.4079999923706055,-0.5490000247955322,-9.663999557495115,0.367000013589859
1622104628504,-2.1700000762939453,5.189000129699707,-7.258999824523927,-0.5879999995231628,-9.663999557495115,0.367000013589859
1622104628514,-1.4700000286102295,5.591000080108643,-8.326000213623047,-0.6280000209808348,-9.663999557495115,0.367000013589859
1622104628524,-0.699999988079071,6.38100004196167,-9.180999755859377,-0.6280000209808348,-9.656999588012695,0.3289999961853027
1622104628534,-0.1400000005960464,6.486999988555908,-8.168000221252441,-0.6280000209808348,-9.696000099182127,0.3219999969005584
1622104628544,0.0700000002980232,6.925000190734863,-7.02400016784668,-0.5879999995231628,-9.656999588012695,0.3289999961853027
1622104628554,0.2800000011920929,6.96999979019165,-6.874000072479248,-0.5490000247955322,-9.656999588012695,0.3289999961853027
1622104628564,0.209999993443489,6.823999881744385,-7.255000114440918,-0.5490000247955322,-9.663999557495115,0.367000013589859
1622104628574,-0.0700000002980232,7.28599977493286,-7.458000183105469,-0.5879999995231628,-9.727999687194824,0.2759999930858612
1622104628584,-0.7699999809265136,7.578000068664551,-7.90399980545044,-0.5879999995231628,-9.826000213623049,0.3790000081062316
1622104628594,-1.190000057220459,7.801000118255616,-8.362000465393066,-0.5490000247955322,-9.819000244140623,0.3400000035762786
1622104628604,-1.75,7.67899990081787,-8.881999969482422,-0.5490000247955322,-9.819000244140623,0.3400000035762786
1622104628614,-1.6100000143051147,7.322000026702882,-8.873000144958496,-0.5099999904632568,-9.786999702453612,0.3849999904632568
1622104628624,-2.0299999713897705,7.452000141143799,-9.206000328063965,-0.5490000247955322,-9.734999656677246,0.3149999976158142
1622104628634,-1.9600000381469729,7.176000118255615,-9.253999710083008,-0.5490000247955322,-9.70300006866455,0.3600000143051147
1622104628644,-1.8900001049041748,7.441499710083008,-9.349499702453612,-0.5490000247955322,-9.734999656677246,0.3149999976158142
1622104628654,-1.8200000524520872,7.706999778747559,-9.44499969482422,-0.5879999995231628,-9.696000099182127,0.3219999969005584
1622104628664,-1.3300000429153442,7.751999855041504,-9.295000076293944,-0.5879999995231628,-9.696000099182127,0.3219999969005584
1622104628674,-1.1200000047683716,8.598999977111816,-8.861000061035156,-0.6280000209808348,-9.741000175476074,0.3540000021457672
1622104628684,-0.9800000190734864,8.98900032043457,-8.651000022888184,-0.6280000209808348,-9.663999557495115,0.367000013589859
1622104628694,-1.1200000047683716,9.824000358581545,-9.355999946594238,-0.6669999957084655,-9.656999588012695,0.3289999961853027
1622104628704,-1.2599999904632568,10.9350004196167,-10.012999534606934,-0.7450000047683715,-9.689000129699709,0.2829999923706054
1622104628714,-1.1200000047683716,11.75,-11.006999969482422,-0.7059999704360961,-9.64400005340576,0.2509999871253967
1622104628724,-0.8399999737739563,12.888999938964844,-11.019000053405762,-0.7059999704360961,-9.682000160217283,0.2440000027418136
1622104628734,-0.6299999952316284,13.829999923706056,-10.711000442504885,-0.6669999957084655,-9.689000129699709,0.2829999923706054
1622104628744,-0.1400000005960464,14.236000061035156,-10.994999885559082,-0.6669999957084655,-9.727999687194824,0.2759999930858612
1622104628754,0.1400000005960464,15.010000228881836,-11.355999946594238,-0.7059999704360961,-9.727999687194824,0.2759999930858612
1622104628764,0.209999993443489,15.560999870300291,-11.258999824523926,-0.7059999704360961,-9.689000129699709,0.2829999923706054
1622104628774,0.3499999940395355,16.433000564575195,-10.963000297546388,-0.7059999704360961,-9.656999588012695,0.3289999961853027
1622104628784,0.1400000005960464,17.613000869750977,-10.39900016784668,-0.7850000262260437,-9.612000465393066,0.2969999909400939
1622104628794,-0.0700000002980232,19.35300064086914,-10.590000152587892,-0.8629999756813049,-9.64400005340576,0.2509999871253967
1622104628804,-0.0700000002980232,21.60300064086914,-11.260000228881836,-0.9020000100135804,-9.572999954223633,0.3039999902248382
1622104628814,0.6299999952316284,23.902000427246097,-12.204999923706056,-0.9020000100135804,-9.619000434875488,0.3350000083446502
1622104628824,0.8050000071525573,25.36999893188477,-12.265999794006348,-0.8629999756813049,-9.656999588012695,0.3289999961853027
1622104628834,0.9800000190734864,26.83799934387207,-12.32699966430664,-0.7850000262260437,-9.619000434875488,0.3350000083446502
1622104628844,1.1200000047683716,28.906000137329105,-11.961999893188477,-0.7850000262260437,-9.651000022888184,0.2899999916553497
1622104628854,1.190000057220459,31.54599952697754,-12.42099952697754,-0.7059999704360961,-9.637000083923342,0.2129999995231628
1622104628864,1.3300000429153442,33.516998291015625,-12.713000297546388,-0.6669999957084655,-9.682000160217283,0.2440000027418136
1622104628874,1.1200000047683716,35.1349983215332,-13.42300033569336,-0.6280000209808348,-9.71399974822998,0.1990000009536743
1622104628884,1.399999976158142,36.64300155639648,-13.51200008392334,-0.5490000247955322,-9.753000259399414,0.19200000166893
1622104628894,1.9600000381469729,37.819000244140625,-13.730999946594238,-0.5099999904632568,-9.78499984741211,0.1469999998807907
1622104628904,2.1700000762939453,38.94599914550781,-13.675000190734863,-0.5490000247955322,-9.78499984741211,0.1469999998807907
1622104628914,2.309999942779541,40.14699935913086,-14.031999588012695,-0.5099999904632568,-9.73900032043457,0.1150000020861625
1622104628924,2.450000047683716,41.54999923706055,-13.927000045776367,-0.5099999904632568,-9.746000289916992,0.1539999991655349
1622104628934,2.6600000858306885,42.85499954223633,-13.270000457763672,-0.5099999904632568,-9.675999641418455,0.2060000002384185
1622104628944,2.940000057220459,44.35200119018555,-12.08199977874756,-0.5490000247955322,-9.630000114440918,0.1739999949932098
1622104628954,3.2899999618530273,45.45100021362305,-11.461999893188477,-0.5490000247955322,-9.630000114440918,0.1739999949932098
1622104628964,3.6400001049041744,46.82600021362305,-10.79300022125244,-0.5490000247955322,-9.637000083923342,0.2129999995231628
1622104628974,4.760000228881836,48.09099960327149,-10.711999893188477,-0.5099999904632568,-9.64400005340576,0.2509999871253967
1622104628984,6.090000152587891,49.83399963378906,-11.328000068664553,-0.5490000247955322,-9.637000083923342,0.2129999995231628
1622104628994,6.789999961853027,51.310001373291016,-11.63700008392334,-0.4709999859333038,-9.675999641418455,0.2060000002384185
1622104629004,7.210000038146973,51.64849853515625,-11.541500091552734,-0.4309999942779541,-9.682000160217283,0.2440000027418136
1622104629014,7.630000114440918,51.98699951171875,-11.446000099182127,-0.3529999852180481,-9.682000160217283,0.2440000027418136
1622104629024,8.399999618530273,52.41299819946289,-10.234000205993652,-0.3919999897480011,-9.612000465393066,0.2969999909400939
1622104629034,8.890000343322754,52.09299850463867,-9.223999977111816,-0.3529999852180481,-9.651000022888184,0.2899999916553497
1622104629044,9.239999771118164,52.19499969482422,-8.993000030517578,-0.3529999852180481,-9.682000160217283,0.2440000027418136
1622104629054,9.449999809265137,52.16999816894531,-8.854999542236328,-0.3919999897480011,-9.682000160217283,0.2440000027418136
1622104629064,9.170000076293944,52.73400115966797,-8.82699966430664,-0.3529999852180481,-9.651000022888184,0.2899999916553497
1622104629074,9.170000076293944,52.78300094604492,-9.102999687194824,-0.3529999852180481,-9.651000022888184,0.2899999916553497
1622104629084,9.59000015258789,53.446998596191406,-10.052000045776367,-0.2750000059604644,-9.612000465393066,0.2969999909400939
1622104629094,9.729999542236328,53.42300033569336,-9.913999557495115,-0.1959999948740005,-9.604999542236328,0.2579999864101409
1622104629104,10.010000228881836,53.32600021362305,-10.571000099182127,-0.1570000052452087,-9.572999954223633,0.3039999902248382
1622104629114,10.779999732971191,52.332000732421875,-11.38599967956543,-0.1180000007152557,-9.53499984741211,0.3100000023841857
1622104629124,11.619999885559082,51.27799987792969,-11.855999946594238,-0.1180000007152557,-9.527999877929688,0.2720000147819519
1622104629134,12.529999732971191,49.6879997253418,-11.710000038146973,-0.1180000007152557,-9.562000274658203,0.4650000035762786
1622104629144,13.510000228881836,48.44300079345703,-11.503000259399414,-0.1180000007152557,-9.562000274658203,0.4650000035762786
1622104629154,14.279999732971191,47.40900039672851,-11.6850004196167,-0.1180000007152557,-9.638999938964846,0.4510000050067901
1622104629164,14.5600004196167,46.777000427246094,-11.725000381469728,-0.1570000052452087,-9.715999603271484,0.4379999935626983
1622104629174,14.5600004196167,46.811500549316406,-11.718999862670898,-0.1959999948740005,-9.800999641418455,0.4629999995231628
1622104629184,14.5600004196167,46.84600067138672,-11.713000297546388,-0.2349999994039535,-9.807000160217283,0.5009999871253967
1622104629194,14.210000038146973,47.202999114990234,-11.720999717712402,-0.1959999948740005,-9.845999717712402,0.4939999878406524
1622104629204,14.0,47.51100158691406,-11.45400047302246,-0.1959999948740005,-9.821000099182127,0.5789999961853027
1622104629214,13.789999961853027,47.7859992980957,-11.404999732971191,-0.1180000007152557,-9.821000099182127,0.5789999961853027
1622104629224,13.579999923706056,47.75,-11.197999954223633,-0.0780000016093254,-9.821000099182127,0.5789999961853027
1622104629234,13.369999885559082,47.742000579833984,-11.55500030517578,-0.0390000008046627,-9.781999588012695,0.5849999785423278
1622104629244,13.020000457763672,47.25899887084961,-11.640000343322754,0.0390000008046627,-9.75100040435791,0.6309999823570251
1622104629254,12.8100004196167,46.631000518798835,-12.107000350952148,0.0390000008046627,-9.770999908447264,0.746999979019165
1622104629264,12.529999732971191,45.220001220703125,-12.569000244140623,0.1180000007152557,-9.770999908447264,0.746999979019165
1622104629274,12.18000030517578,43.60200119018555,-13.06700038909912,0.1570000052452087,-9.8100004196167,0.740000009536743
1622104629284,12.109999656677246,41.64699935913086,-13.270000457763672,0.1570000052452087,-9.847999572753906,0.7329999804496765
1622104629294,12.109999656677246,39.81800079345703,-13.378999710083008,0.1570000052452087,-9.880000114440918,0.6880000233650208
1622104629304,11.6899995803833,38.15999984741211,-13.244999885559082,0.1180000007152557,-9.887000083923342,0.7260000109672546
1622104629314,11.130000114440918,36.3390007019043,-12.996999740600586,0.0780000016093254,-9.847999572753906,0.7329999804496765
1622104629324,10.5,35.04600143432617,-12.515000343322754,0.0,-9.777999877929688,0.7850000262260437
1622104629334,10.079999923706056,34.2140007019043,-12.234999656677246,-0.0390000008046627,-9.71399974822998,0.8759999871253967
1622104629343,9.520000457763674,33.520999908447266,-11.93000030517578,-0.0390000008046627,-9.682000160217283,0.921999990940094
1622104629353,9.450000762939451,33.403499603271484,-12.270999908447266,-0.0780000016093254,-9.682000160217283,0.921999990940094
1622104629363,9.380000114440918,33.2859992980957,-12.612000465393066,-0.1180000007152557,-9.772999763488768,0.9850000143051147
1622104629373,9.3100004196167,33.31399917602539,-13.175000190734863,-0.1570000052452087,-9.819000244140623,1.0169999599456787
1622104629383,9.380000114440918,33.244998931884766,-13.187000274658203,-0.2349999994039535,-9.972999572753906,0.9900000095367432
1622104629393,8.960000038146973,33.46799850463867,-13.645999908447266,-0.3529999852180481,-10.019000053405762,1.0219999551773071
1622104629403,8.119999885559082,34.117000579833984,-14.100000381469728,-0.4309999942779541,-10.019000053405762,1.0219999551773071
1622104629413,6.860000133514404,35.36600112915039,-13.52400016784668,-0.5490000247955322,-10.024999618530272,1.059999942779541
1622104629423,5.179999828338623,37.053001403808594,-13.013999938964844,-0.5879999995231628,-10.024999618530272,1.059999942779541
1622104629433,3.430000066757202,38.983001708984375,-12.67300033569336,-0.7059999704360961,-9.994000434875488,1.1059999465942385
1622104629443,1.9600000381469729,41.89899826049805,-11.875,-0.7850000262260437,-10.04599952697754,1.1759999990463257
1622104629453,0.8399999737739563,45.41400146484375,-11.255000114440918,-0.7850000262260437,-10.090999603271484,1.2079999446868896
1622104629463,-0.699999988079071,49.20600128173828,-10.586000442504885,-0.8629999756813049,-10.04599952697754,1.1759999990463257
1622104629473,-2.5199999809265137,53.512001037597656,-9.61400032043457,-0.9020000100135804,-10.078000068664553,1.13100004196167
1622104629483,-3.7799999713897705,57.757999420166016,-8.295999526977539,-0.9020000100135804,-10.123000144958496,1.162999987602234
1622104629493,-6.090000152587891,61.69599914550781,-7.247000217437744,-0.981000006198883,-10.168999671936035,1.194000005722046
1622104629503,-8.399999618530273,65.8479995727539,-5.803999900817871,-0.9409999847412108,-10.168999671936035,1.194000005722046
1622104629513,-10.850000381469728,70.18699645996094,-4.611999988555908,-0.9020000100135804,-10.059000015258787,1.253000020980835
1622104629523,-12.8100004196167,74.7770004272461,-4.442999839782715,-0.8629999756813049,-9.968999862670898,1.190000057220459
1622104629533,-13.755000114440918,76.75,-4.343500137329102,-0.981000006198883,-9.852999687194824,1.2100000381469729
1622104629543,-14.699999809265137,78.7229995727539,-4.24399995803833,-0.981000006198883,-9.807000160217283,1.1779999732971191
1622104629553,-16.170000076293945,82.30799865722656,-4.821000099182129,-0.9020000100135804,-9.729999542236328,1.1920000314712524
1622104629563,-17.010000228881836,85.77899932861328,-5.559000015258789,-0.8629999756813049,-9.569000244140623,1.180999994277954
1622104629573,-17.010000228881836,89.53299713134764,-5.892000198364258,-0.8240000009536743,-9.375,1.2150000333786013
1622104629583,-16.450000762939453,92.98799896240232,-6.136000156402588,-0.7850000262260437,-9.123000144958496,1.1399999856948853
1622104629593,-14.489999771118164,95.63600158691406,-6.23799991607666,-0.7850000262260437,-8.916000366210938,1.0970000028610227
1622104629603,-12.25,98.1989974975586,-7.065000057220459,-0.7059999704360961,-8.786999702453613,1.0399999618530271
1622104629613,-8.119999885559082,100.10800170898438,-8.220999717712402,-0.5879999995231628,-8.696000099182129,0.9760000109672546
1622104629623,-2.309999942779541,102.31800079345705,-10.675000190734863,-0.4309999942779541,-8.682000160217285,0.8989999890327453
1622104629633,3.5,103.06800079345705,-13.3149995803833,-0.2349999994039535,-8.78499984741211,0.8009999990463256
1622104629643,8.609999656677246,103.01499938964844,-16.238000869750977,-0.0390000008046627,-8.777999877929688,0.762000024318695
1622104629653,13.4399995803833,101.69200134277344,-18.816999435424805,0.2349999994039535,-8.791999816894531,0.8399999737739563
1622104629663,17.920000076293945,98.66699981689452,-20.20400047302246,0.4709999859333038,-8.770999908447266,0.7239999771118164
1622104629673,22.540000915527344,94.83499908447264,-21.447999954223633,0.6669999957084655,-8.8100004196167,0.7170000076293945
1622104629683,27.299999237060547,89.88800048828125,-22.81800079345703,0.8240000009536743,-8.918999671936035,0.6579999923706054
1622104629693,31.709999084472656,84.24700164794922,-23.882999420166016,0.981000006198883,-9.112000465393066,0.6240000128746032
1622104629703,35.0,77.61699676513672,-24.981000900268555,1.0980000495910645,-9.729999542236328,0.5149999856948853
1622104629713,36.540000915527344,70.13600158691406,-26.086999893188477,0.981000006198883,-10.819000244140623,0.3630000054836273
1622104629723,32.619998931884766,62.9010009765625,-26.58099937438965,0.7450000047683715,-11.888999938964844,0.3330000042915344
1622104629733,26.669998168945312,60.18450164794922,-25.887500762939453,0.4309999942779541,-12.715999603271484,0.5059999823570251
1622104629743,20.719999313354492,57.46799850463867,-25.194000244140625,0.1570000052452087,-13.138999938964844,0.8700000047683715
1622104629753,3.0799999237060547,55.108001708984375,-22.69499969482422,-0.0390000008046627,-13.097999572753906,1.315000057220459
1622104629763,-15.1899995803833,55.00699996948242,-20.510000228881836,-0.1959999948740005,-12.692999839782717,1.50600004196167
1622104629773,-31.43000030517578,56.06600189208984,-19.256999969482425,-0.2750000059604644,-11.95199966430664,1.5970000028610227
1622104629783,-45.290000915527344,58.19499969482422,-18.027999877929688,-0.2750000059604644,-11.005000114440918,1.6440000534057615
1622104629793,-55.29999923706055,59.78499984741211,-15.758000373840332,-0.2349999994039535,-9.972999572753906,1.6670000553131104
1622104629803,-60.900001525878906,60.74599838256836,-13.95400047302246,-0.1959999948740005,-9.062000274658203,1.468999981880188
1622104629813,-62.439998626708984,61.84099960327149,-12.907999992370604,-0.0390000008046627,-8.336999893188477,1.1990000009536743
1622104629823,-58.939998626708984,63.4379997253418,-15.11400032043457,0.1959999948740005,-7.85099983215332,0.9259999990463256
1622104629833,-51.72999954223633,64.12300109863281,-19.399999618530273,0.4709999859333038,-7.565000057220459,0.6579999923706054
1622104629843,-41.790000915527344,62.84099960327149,-22.611000061035156,0.7059999704360961,-7.541999816894531,0.3030000030994415
1622104629853,-31.290000915527344,59.625,-23.31999969482422,0.7850000262260437,-7.701000213623046,0.0759999975562095
1622104629863,-20.09000015258789,54.47999954223633,-21.95299911499023,0.6669999957084655,-8.015000343322754,-0.1780000030994415
1622104629873,-10.850000381469728,49.43600082397461,-20.354999542236328,0.5490000247955322,-8.401000022888184,-0.2469999939203262
1622104629883,-3.569999933242798,45.55099868774414,-18.481000900268555,0.3529999852180481,-8.734999656677246,-0.3849999904632568
1622104629893,1.4700000286102295,42.65999984741211,-15.791999816894531,0.1180000007152557,-9.012000083923342,-0.3939999938011169
1622104629903,4.059999942779541,41.70399856567382,-13.189000129699709,0.0,-9.335000038146973,-0.3709999918937683
1622104629913,4.550000190734863,43.12300109863281,-12.369999885559082,-0.1570000052452087,-9.619000434875488,-0.3420000076293945
1622104629923,2.799999952316284,46.124000549316406,-13.26200008392334,-0.2349999994039535,-9.741999626159668,-0.3240000009536743
1622104629933,-0.7699999809265136,50.56399917602539,-15.465000152587892,-0.2750000059604644,-9.793999671936035,-0.2529999911785125
1622104629943,-4.760000228881836,54.99599838256836,-16.81599998474121,-0.2349999994039535,-9.762000083923342,-0.2080000042915344
1622104629953,-6.615000247955322,56.98899841308594,-16.429000854492188,-0.1959999948740005,-9.744000434875488,-0.0850000008940696
1622104629963,-8.470000267028809,58.98199844360352,-16.04199981689453,-0.3140000104904174,-9.68000030517578,0.006000000052154
1622104629973,-11.270000457763672,62.97200012207031,-13.277000427246094,-0.4709999859333038,-9.616999626159668,0.0970000028610229
1622104629983,-12.8100004196167,66.73200225830078,-10.409999847412108,-0.5490000247955322,-9.668999671936035,0.1669999957084655
1622104629993,-14.279999732971191,71.01000213623047,-8.87399959564209,-0.6280000209808348,-9.80500030517578,0.2630000114440918
1622104630003,-15.260000228881836,76.32599639892578,-7.580999851226807,-0.6669999957084655,-9.960000038146973,0.2349999994039535
1622104630013,-16.239999771118164,82.40899658203125,-7.00600004196167,-0.5879999995231628,-10.043999671936035,0.2599999904632568
1622104630023,-17.219999313354492,89.02200317382812,-7.829999923706055,-0.5099999904632568,-10.274999618530272,0.2199999988079071
1622104630033,-18.899999618530273,95.74500274658205,-9.274999618530272,-0.3919999897480011,-10.385000228881836,0.1609999984502792
1622104630043,-21.0,102.21700286865234,-10.906000137329102,-0.3140000104904174,-10.5,0.1400000005960464
1622104630053,-23.450000762939453,108.72100067138672,-12.317999839782717,-0.2349999994039535,-10.487000465393066,0.0630000010132789
1622104630063,-26.530000686645508,115.22899627685548,-12.946999549865724,-0.1180000007152557,-10.494000434875488,0.101000003516674
1622104630073,-29.399999618530273,121.875,-13.553000450134276,0.0,-10.416000366210938,0.1150000020861625
1622104630083,-31.149999618530273,128.0019989013672,-14.03600025177002,0.1180000007152557,-10.314000129699709,0.2129999995231628
1622104630093,-31.850000381469727,134.45799255371094,-13.96399974822998,0.2750000059604644,-10.244000434875488,0.2649999856948852
1622104630103,-30.940000534057617,140.9409942626953,-14.454999923706056,0.3529999852180481,-10.263999938964844,0.3810000121593475
1622104630113,-29.1200008392334,146.86199951171875,-14.975000381469728,0.4709999859333038,-10.270999908447266,0.4199999868869781
1622104630123,-26.600000381469727,152.1529998779297,-14.753000259399414,0.5490000247955322,-10.322999954223633,0.4900000095367431
1622104630133,-24.63999938964844,157.36000061035156,-14.04800033569336,0.5879999995231628,-10.362000465393066,0.4830000102519989
1622104630143,-23.520000457763672,162.40899658203125,-13.654999732971191,0.5490000247955322,-10.42099952697754,0.5920000076293945
1622104630153,-22.540000915527344,168.7989959716797,-14.020999908447266,0.6280000209808348,-10.27299976348877,0.6579999923706054
1622104630163,-22.399999618530273,174.91799926757812,-14.862000465393066,0.7850000262260437,-10.02299976348877,0.8220000267028807
1622104630173,-22.399999618530273,179.75599670410156,-15.288000106811523,1.0199999809265137,-9.70699977874756,0.8379999995231628
1622104630183,-21.90999984741211,183.5189971923828,-14.055999755859377,1.3339999914169312,-9.444000244140623,0.9240000247955322
1622104630193,-21.595001220703125,184.4394989013672,-12.827499389648438,1.569000005722046,-9.197999954223633,0.887000024318695
1622104630203,-21.280000686645508,185.36000061035156,-11.598999977111816,1.7649999856948853,-9.043999671936035,0.915000021457672
1622104630213,-19.600000381469727,185.20599365234375,-8.711999893188477,1.8830000162124632,-8.967000007629395,0.9279999732971193
1622104630223,-17.780000686645508,184.23399353027344,-6.822000026702881,2.000999927520752,-8.843999862670898,0.9100000262260436
1622104630233,-15.75,182.968994140625,-5.693999767303467,2.118000030517578,-8.836999893188477,0.871999979019165
1622104630243,-14.699999809265137,180.91299438476565,-6.127999782562256,2.313999891281128,-8.829999923706055,0.8330000042915344
1622104630253,-13.789999961853027,178.0780029296875,-6.982999801635742,2.510999917984009,-8.822999954223633,0.7940000295639038
1622104630263,-13.369999885559082,174.3800048828125,-7.776999950408936,2.7850000858306885,-8.795999526977539,0.6399999856948853
1622104630273,-12.390000343322754,168.3820037841797,-7.626999855041504,3.0199999809265137,-8.756999969482422,0.6470000147819519
1622104630283,-11.130000114440918,160.79200744628906,-6.9039998054504395,3.2170000076293945,-8.776000022888184,0.5239999890327453
1622104630293,-10.079999923706056,151.91099548339844,-6.124000072479248,3.372999906539917,-8.729999542236328,0.492000013589859
1622104630303,-8.399999618530273,142.18800354003906,-4.994999885559082,3.569999933242798,-8.786999702453613,0.3630000054836273
1622104630313,-6.159999847412109,132.0659942626953,-4.434000015258789,3.687000036239624,-9.012000083923342,0.2829999923706054
1622104630323,-3.990000009536743,120.40399932861328,-4.002999782562256,3.7660000324249263,-9.197999954223633,0.209999993443489
1622104630333,-1.1200000047683716,108.77400207519533,-4.560999870300293,3.7269999980926514,-9.385000228881836,0.1379999965429306
1622104630343,1.2599999904632568,97.06800079345705,-5.48799991607666,3.569999933242798,-9.487000465393066,0.0399999991059303
1622104630353,3.1500000953674316,86.75599670410156,-6.665999889373779,3.413000106811523,-9.666999816894531,-0.0710000023245811
1622104630363,4.059999942779541,77.95600128173828,-8.359999656677246,2.746000051498413,-10.072999954223633,-0.0240000002086162
1622104630373,4.409999847412109,70.91200256347656,-10.73900032043457,2.3540000915527344,-10.072999954223633,-0.0240000002086162
1622104630383,4.760000228881836,65.79000091552734,-13.135000228881836,2.1570000648498535,-10.079999923706056,0.0149999996647238
1622104630393,4.059999942779541,61.87300109863281,-13.897000312805176,1.8830000162124632,-10.13700008392334,-0.1140000000596046
1622104630403,2.380000114440918,59.428001403808594,-12.125,1.6080000400543213,-10.201000213623049,-0.2049999982118606
1622104630413,0.209999993443489,58.694000244140625,-11.187999725341797,1.3730000257492063,-10.116000175476074,-0.2300000041723251
1622104630423,-1.1200000047683716,59.99599838256836,-12.522000312805176,1.1770000457763672,-9.94200038909912,-0.3190000057220459
1622104630433,-1.4700000286102295,62.56600189208984,-15.409999847412108,1.1770000457763672,-9.779999732971191,-0.3300000131130218
1622104630443,-1.2599999904632568,64.7959976196289,-16.367000579833984,1.1770000457763672,-9.612000465393066,-0.3799999952316284
1622104630453,-0.9800000190734864,67.49700164794922,-14.753000259399414,1.1770000457763672,-9.520999908447264,-0.4440000057220459
1622104630463,-1.0850000381469729,68.64100646972656,-13.378499984741213,1.1380000114440918,-9.50100040435791,-0.5600000023841857
1622104630473,-1.190000057220459,69.78500366210938,-12.003999710083008,1.2549999952316284,-9.447999954223633,-0.6299999952316284
1622104630483,-0.9100000262260436,72.06800079345702,-11.246000289916992,1.4119999408721924,-9.312000274658203,-0.7260000109672546
1622104630493,-0.4900000095367431,73.86399841308594,-10.14799976348877,1.6080000400543213,-9.253000259399414,-0.8349999785423278
1622104630503,0.0,74.60299682617188,-7.885000228881835,1.8040000200271609,-9.28499984741211,-0.8799999952316284
1622104630513,0.8399999737739563,74.322998046875,-5.091000080108643,1.9220000505447388,-9.335000038146973,-1.0490000247955322
1622104630523,1.6100000143051147,72.6969985961914,-3.5299999713897705,2.0399999618530273,-9.411999702453612,-1.062000036239624
1622104630533,2.5899999141693115,70.26799774169922,-3.4609999656677246,2.0399999618530273,-9.53499984741211,-1.0440000295639038
1622104630543,3.5,67.62899780273438,-3.002000093460083,2.0399999618530273,-9.46399974822998,-0.9919999837875366
1622104630553,4.480000019073486,64.94499969482422,-1.4850000143051147,2.118000030517578,-9.470999717712402,-0.953000009059906
1622104630563,5.25,62.26399993896485,-0.3939999938011169,2.0789999961853027,-9.510000228881836,-0.9599999785423278
1622104630573,5.460000038146973,59.698001861572266,0.859000027179718,2.000999927520752,-9.510000228881836,-0.9599999785423278
1622104630583,5.179999828338623,57.617000579833984,0.5640000104904174,1.9220000505447388,-9.503000259399414,-0.9990000128746032
1622104630593,5.039999961853027,56.060001373291016,0.9290000200271606,1.8830000162124632,-9.470999717712402,-0.953000009059906
1622104630603,4.900000095367432,54.499000549316406,1.7200000286102295,1.8830000162124632,-9.510000228881836,-0.9599999785423278
1622104630613,4.690000057220459,52.83700180053711,3.48799991607666,1.9220000505447388,-9.579999923706056,-1.0119999647140503
1622104630623,4.829999923706055,50.25,4.453000068664551,1.8830000162124632,-9.657999992370604,-1.0260000228881836
1622104630633,5.809999942779541,47.49300003051758,3.9670000076293945,1.7649999856948853,-9.689000129699709,-1.0709999799728394
1622104630643,6.510000228881836,44.94200134277344,3.5179998874664307,1.687000036239624,-9.741999626159668,-1.0010000467300415
1622104630653,6.71999979019165,42.792999267578125,4.418000221252441,1.569000005722046,-9.786999702453612,-0.968999981880188
1622104630663,6.230000019073486,41.297000885009766,5.646999835968018,1.4119999408721924,-9.755000114440918,-0.9229999780654908
1622104630673,4.96999979019165,40.70500183105469,6.182000160217285,1.2549999952316284,-9.6850004196167,-0.8709999918937683
1622104630683,3.7100000381469727,40.4010009765625,5.488999843597412,1.2940000295639038,-9.678000450134276,-0.9100000262260436
1622104630693,2.5199999809265137,40.77000045776367,5.4120001792907715,1.2549999952316284,-9.645999908447264,-0.8640000224113464
1622104630703,1.4700000286102295,40.79399871826172,5.27400016784668,1.3730000257492063,-9.652999877929688,-0.8259999752044677
1622104630713,1.0499999523162842,39.83300018310547,5.886000156402588,1.4509999752044678,-9.607999801635742,-0.8579999804496765
1622104630723,1.4700000286102295,36.76300048828125,6.767000198364258,1.491000056266785,-9.645999908447264,-0.8640000224113464
1622104630733,1.7849999666213987,35.16550064086914,7.1605000495910645,1.3730000257492063,-9.722999572753906,-0.8780000209808348
1622104630743,2.0999999046325684,33.56800079345703,7.55399990081787,1.2549999952316284,-9.76900005340576,-0.8460000157356262
1622104630753,3.009999990463257,30.57200050354004,8.020999908447266,1.1380000114440918,-9.729999542236328,-0.8389999866485595
1622104630763,3.569999933242798,28.07799911499023,7.651999950408936,1.0980000495910645,-9.729999542236328,-0.8389999866485595
1622104630773,3.7100000381469727,26.33799934387207,7.842999935150147,1.0590000152587893,-9.737000465393066,-0.8009999990463256
1622104630783,3.2200000286102295,25.231000900268555,8.074000358581543,0.9409999847412108,-9.782999992370604,-0.7689999938011169
1622104630793,2.450000047683716,24.562000274658203,7.0320000648498535,0.9409999847412108,-9.776000022888184,-0.8080000281333923
1622104630803,2.1700000762939453,23.21500015258789,4.591000080108643,0.9409999847412108,-9.76900005340576,-0.8460000157356262
1622104630813,1.3300000429153442,21.073999404907227,2.2230000495910645,0.8240000009536743,-9.779999732971191,-1.0080000162124634
1622104630823,0.8399999737739563,19.739999771118164,0.921999990940094,0.6280000209808348,-9.80799961090088,-0.8529999852180481
1622104630833,1.2599999904632568,18.933000564575195,1.0640000104904177,0.5490000247955322,-9.80799961090088,-0.8529999852180481
1622104630843,2.309999942779541,19.10300064086914,1.3070000410079956,0.5099999904632568,-9.821000099182127,-0.7760000228881835
1622104630853,3.359999895095825,19.61000061035156,2.4630000591278076,0.4309999942779541,-9.859999656677246,-0.7829999923706054
1622104630863,3.7799999713897705,20.461999893188477,3.678999900817871,0.4309999942779541,-9.859999656677246,-0.7829999923706054
1622104630873,3.430000066757202,20.704999923706055,4.7170000076293945,0.5099999904632568,-9.859999656677246,-0.7829999923706054
1622104630883,2.6600000858306885,20.385000228881836,4.51800012588501,0.5490000247955322,-9.845999717712402,-0.8600000143051147
1622104630893,1.8899999856948853,19.17300033569336,3.736000061035156,0.6280000209808348,-9.845999717712402,-0.8600000143051147
1622104630903,0.9800000190734864,17.586999893188477,2.247999906539917,0.5879999995231628,-9.878000259399414,-0.9049999713897704
1622104630913,0.9100000262260436,15.859000205993652,-0.0469999983906745,0.4709999859333038,-9.833000183105469,-0.9369999766349792
1622104630923,0.9800000190734864,15.222000122070312,-2.078000068664551,0.3529999852180481,-9.80799961090088,-0.8529999852180481
1622104630933,1.0499999523162842,16.163000106811523,-2.9790000915527344,0.2349999994039535,-9.729999542236328,-0.8389999866485595
1622104630943,1.190000057220459,16.94099998474121,-2.556999921798706,0.1959999948740005,-9.628000259399414,-0.7419999837875366
1622104630953,0.9800000190734864,18.66900062561035,-1.4709999561309814,0.1180000007152557,-9.621000289916992,-0.7799999713897705
1622104630963,1.0499999523162842,20.34000015258789,-0.4650000035762786,0.0780000016093254,-9.645999908447264,-0.8640000224113464
1622104630973,0.7699999809265136,21.85199928283691,-0.9800000190734864,0.0780000016093254,-9.645999908447264,-0.8640000224113464
1622104630982,0.0700000002980232,22.781000137329105,-1.812000036239624,0.1959999948740005,-9.645999908447264,-0.8640000224113464
1622104630992,-0.2800000011920929,22.849498748779297,-2.4040000438690186,0.3529999852180481,-9.638999938964846,-0.902999997138977
1622104631002,-0.6299999952316284,22.917999267578125,-2.996000051498413,0.5099999904632568,-9.638999938964846,-0.902999997138977
1622104631012,-0.5600000023841857,21.617000579833984,-4.078000068664551,0.6669999957084655,-9.593999862670898,-0.9350000023841856
1622104631022,-0.1400000005960464,19.76300048828125,-5.257999897003174,0.7450000047683715,-9.510000228881836,-0.9599999785423278
1622104631032,0.699999988079071,17.054000854492188,-6.019999980926514,0.7850000262260437,-9.425999641418455,-0.9850000143051147
1622104631042,1.8200000524520872,14.921999931335447,-5.613999843597412,0.7059999704360961,-9.3100004196167,-0.9639999866485596
1622104631052,3.2200000286102295,13.847000122070312,-3.9560000896453857,0.7059999704360961,-9.277999877929688,-0.9190000295639038
1622104631062,4.550000190734863,12.939000129699709,-1.628000020980835,0.6280000209808348,-9.277999877929688,-0.9190000295639038
1622104631072,5.880000114440918,12.944000244140623,0.3630000054836273,0.5099999904632568,-9.28499984741211,-0.8799999952316284
1622104631082,6.929999828338623,13.105999946594238,0.25,0.4309999942779541,-9.298999786376951,-0.8029999732971191
1622104631092,7.280000209808349,13.779000282287598,-1.5509999990463257,0.4309999942779541,-9.336999893188477,-0.8100000023841857
1622104631102,7.070000171661377,13.996999740600586,-2.7920000553131104,0.4309999942779541,-9.383000373840332,-0.777999997138977
1622104631112,6.230000019073486,13.949000358581545,-3.723999977111816,0.3529999852180481,-9.522999763488768,-0.8830000162124633
1622104631122,5.389999866485596,13.397000312805176,-5.03000020980835,0.3529999852180481,-9.60099983215332,-0.8960000276565551
1622104631132,4.690000057220459,12.159999847412108,-5.675000190734863,0.3140000104904174,-9.6850004196167,-0.8709999918937683
1622104631142,4.269999980926514,11.239999771118164,-5.695000171661377,0.2750000059604644,-9.762000083923342,-0.8849999904632568
1622104631152,4.059999942779541,9.560999870300291,-4.639999866485596,0.2349999994039535,-9.762000083923342,-0.8849999904632568
1622104631162,4.900000095367432,8.430000305175781,-3.062999963760376,0.1570000052452087,-9.729999542236328,-0.8389999866485595
1622104631172,5.880000114440918,7.618999958038329,-2.494999885559082,0.0390000008046627,-9.628000259399414,-0.7419999837875366
1622104631182,6.929999828338623,7.209000110626221,-2.99399995803833,-0.0390000008046627,-9.550999641418455,-0.7279999852180481
1622104631192,8.260000228881836,7.327000141143799,-4.466000080108643,-0.1570000052452087,-9.494000434875488,-0.5989999771118164
1622104631202,9.449999809265137,7.546000003814697,-5.705999851226807,-0.2349999994039535,-9.50100040435791,-0.5600000023841857
1622104631212,10.850000381469728,7.520999908447266,-6.7769999504089355,-0.1959999948740005,-9.494000434875488,-0.5989999771118164
1622104631222,11.479999542236328,7.256999969482423,-6.894000053405762,-0.1570000052452087,-9.637000083923342,-0.4639999866485595
1622104631232,11.0600004196167,6.171000003814697,-6.375,-0.1180000007152557,-9.812000274658203,-0.3759999871253967
1622104631242,10.710000038146973,5.309499740600586,-5.923000335693359,-0.0390000008046627,-10.057000160217283,-0.3389999866485595
1622104631252,10.359999656677246,4.447999954223633,-5.4710001945495605,-0.0780000016093254,-10.187000274658203,-0.2829999923706054
1622104631262,9.800000190734863,2.760999917984009,-4.7729997634887695,-0.1180000007152557,-10.232000350952148,-0.2509999871253967
1622104631272,8.329999923706055,1.24399995803833,-3.8320000171661377,-0.1180000007152557,-10.270999908447266,-0.2579999864101409
1622104631282,5.670000076293945,0.5789999961853027,-2.8829998970031734,-0.1570000052452087,-10.322999954223633,-0.1870000064373016
1622104631292,3.569999933242798,-0.44200000166893,-3.134000062942505,-0.0780000016093254,-10.369000434875488,-0.1550000011920929
1622104631302,2.0999999046325684,-1.0019999742507937,-4.796999931335449,0.0780000016093254,-10.484999656677246,-0.1759999990463256
1622104631312,1.190000057220459,-1.6959999799728394,-6.908999919891357,0.1959999948740005,-10.814000129699709,-0.1140000000596046
1622104631322,0.9100000262260436,-1.6230000257492063,-8.531000137329102,0.3140000104904174,-10.866000175476074,-0.0439999997615814
1622104631332,1.9600000381469729,-1.850000023841858,-10.064000129699709,0.4309999942779541,-10.578000068664553,0.1260000020265579
1622104631342,2.799999952316284,-3.059000015258789,-10.064000129699709,0.5490000247955322,-10.286999702453612,0.0579999983310699
1622104631352,1.9600000381469729,-4.7820000648498535,-6.743000030517578,0.6280000209808348,-10.256999969482422,0.3420000076293945
1622104631362,0.1400000005960464,-5.640999794006348,-2.2739999294281006,0.5879999995231628,-10.031999588012695,0.4219999909400939
1622104631372,-0.5600000023841857,-5.5269999504089355,-2.111999988555908,0.5490000247955322,-9.704999923706056,0.5989999771118164
1622104631382,-0.699999988079071,-4.89900016784668,-5.270999908447266,0.6280000209808348,-9.40999984741211,0.731000006198883
1622104631392,-1.6799999475479126,-3.3949999809265137,-6.14300012588501,0.8240000009536743,-9.385000228881836,0.8149999976158142
1622104631402,-3.430000066757202,-2.4820001125335693,-5.270999908447266,0.9409999847412108,-9.385000228881836,0.8149999976158142
1622104631412,-4.96999979019165,-2.6040000915527344,-5.789999961853027,1.1380000114440918,-9.50100040435791,0.7940000295639038
1622104631422,-6.789999961853027,-3.7109999656677246,-6.767000198364258,1.3339999914169312,-9.75699996948242,0.6690000295639038
1622104631432,-8.470000267028809,-5.070000171661377,-6.7220001220703125,1.6080000400543213,-9.866000175476074,0.6100000143051147
1622104631442,-9.65999984741211,-7.30399990081787,-6.547999858856201,1.72599995136261,-9.897999763488768,0.5649999976158142
1622104631452,-10.43000030517578,-9.20199966430664,-6.669000148773193,1.8830000162124632,-9.937000274658203,0.5580000281333923
1622104631462,-10.43000030517578,-10.257999420166016,-6.322000026702881,2.000999927520752,-9.975000381469728,0.5509999990463256
1622104631472,-10.43000030517578,-11.314000129699709,-5.974999904632568,2.0789999961853027,-10.027999877929688,0.621999979019165
1622104631482,-10.850000381469728,-12.789999961853027,-5.666999816894531,2.1570000648498535,-10.090999603271484,0.531000018119812
1622104631492,-11.130000114440918,-13.958000183105469,-5.091000080108643,2.0789999961853027,-10.196000099182127,0.6719999909400939
1622104631502,-12.039999961853027,-14.517000198364258,-4.336999893188477,2.0399999618530273,-10.248000144958496,0.7419999837875366
1622104631512,-12.25,-13.95400047302246,-4.309000015258789,1.9609999656677248,-10.210000038146973,0.7490000128746032
1622104631522,-12.529999732971191,-13.72700023651123,-2.7760000228881836,1.9220000505447388,-10.131999969482422,0.7630000114440918
1622104631532,-12.949999809265137,-13.609000205993652,-0.6230000257492065,1.843999981880188,-10.062000274658203,0.8149999976158142
1622104631542,-12.600000381469728,-12.814000129699709,0.5130000114440918,1.7649999856948853,-10.02299976348877,0.8220000267028807
1622104631552,-12.039999961853027,-11.869000434875488,0.395000010728836,1.72599995136261,-9.977999687194824,0.7900000214576721
1622104631562,-11.0600004196167,-11.00100040435791,-0.0920000001788139,1.7649999856948853,-9.887000083923342,0.7260000109672546
1622104631572,-10.5,-10.944000244140623,-0.0109999999403953,1.8040000200271609,-9.89400005340576,0.7649999856948853
1622104631582,-9.729999542236328,-11.208000183105469,-0.1280000060796737,1.843999981880188,-9.803000450134276,0.7009999752044677
1622104631592,-9.729999542236328,-12.411999702453612,0.6549999713897705,1.843999981880188,-9.75699996948242,0.6690000295639038
1622104631602,-10.220000267028809,-13.616000175476074,1.437000036239624,1.8040000200271609,-9.744000434875488,0.5920000076293945
1622104631612,-11.0600004196167,-14.479999542236328,2.7070000171661377,1.6480000019073486,-9.65999984741211,0.5669999718666076
1622104631622,-11.479999542236328,-15.16100025177002,2.941999912261963,1.5299999713897705,-9.529999732971191,0.5099999904632568
1622104631632,-11.970000267028809,-15.067999839782717,1.6080000400543213,1.4119999408721924,-9.37600040435791,0.5379999876022338
1622104631642,-12.25,-13.972999572753906,0.2370000034570694,1.2940000295639038,-9.28499984741211,0.4740000069141387
1622104631652,-12.109999656677246,-12.671999931335447,-1.0970000028610227,1.2549999952316284,-9.20699977874756,0.4880000054836273
1622104631662,-10.43000030517578,-11.102999687194824,-2.740000009536743,1.1770000457763672,-9.038999557495115,0.4379999935626983
1622104631672,-7.559999942779541,-10.11400032043457,-3.9159998893737793,1.2549999952316284,-8.916999816894531,0.4189999997615814
1622104631682,-6.230000019073486,-9.84600067138672,-3.619999885559082,1.3339999914169312,-8.930000305175781,0.4970000088214874
1622104631692,-4.900000095367432,-9.57800006866455,-3.3239998817443848,1.4509999752044678,-8.968999862670898,0.4900000095367431
1622104631702,-2.7300000190734863,-9.939000129699709,-2.890000104904175,1.491000056266785,-9.053000450134276,0.5149999856948853
1622104631712,-0.5600000023841857,-10.600000381469728,-3.575000047683716,1.5299999713897705,-9.227999687194824,0.6029999852180481
1622104631722,0.699999988079071,-11.114999771118164,-3.8789999485015874,1.491000056266785,-9.343999862670898,0.5830000042915344
1622104631732,0.4900000095367431,-10.668999671936035,-4.796000003814697,1.491000056266785,-9.428000450134276,0.6079999804496765
1622104631742,0.0700000002980232,-9.92300033569336,-5.801000118255615,1.491000056266785,-9.472999572753906,0.6399999856948853
1622104631752,-0.699999988079071,-8.484000205993652,-7.111000061035156,1.569000005722046,-9.42099952697754,0.5690000057220459
1622104631762,-0.7699999809265136,-7.328999996185303,-8.82699966430664,1.6480000019073486,-9.402999877929688,0.6919999718666076
1622104631772,0.1400000005960464,-5.901000022888184,-10.067999839782717,1.843999981880188,-9.33899974822998,0.7829999923706054
1622104631782,1.8200000524520872,-5.548999786376953,-10.857999801635742,1.9220000505447388,-9.352999687194824,0.8600000143051147
1622104631792,3.009999990463257,-5.519999980926514,-10.21399974822998,2.0789999961853027,-9.404999732971191,0.930999994277954
1622104631802,3.990000009536743,-5.820000171661377,-8.916000366210938,2.1570000648498535,-9.451000213623049,0.9629999995231628
1622104631812,4.550000190734863,-6.635000228881836,-7.922999858856201,2.1570000648498535,-9.46399974822998,1.0399999618530271
1622104631822,5.25,-6.64300012588501,-8.279000282287598,2.1570000648498535,-9.54800033569336,1.065000057220459
1622104631832,5.53000020980835,-6.063000202178955,-8.746000289916992,2.197000026702881,-9.625,1.0509999990463257
1622104631842,5.179999828338623,-5.073999881744385,-8.713000297546387,2.197000026702881,-9.663999557495115,1.0440000295639038
1622104631852,4.619999885559082,-4.421000003814697,-8.385000228881836,2.236000061035156,-9.67099952697754,1.0829999446868896
1622104631862,4.199999809265137,-3.821000099182129,-8.564000129699707,2.313999891281128,-9.67099952697754,1.0829999446868896
1622104631872,4.130000114440918,-3.901999950408935,-8.506999969482422,2.2750000953674316,-9.70300006866455,1.037999987602234
1622104631882,3.9200000762939458,-3.8575000762939458,-8.357000350952148,2.313999891281128,-9.656999588012695,1.00600004196167
1622104631892,3.7100000381469727,-3.812999963760376,-8.206999778747559,2.2750000953674316,-9.696000099182127,0.9990000128746032
1622104631902,3.359999895095825,-3.634000062942505,-7.60699987411499,2.3540000915527344,-9.710000038146973,1.0759999752044678
1622104631912,3.849999904632568,-4.23799991607666,-7.001999855041504,2.313999891281128,-9.741000175476074,1.031000018119812
1622104631922,3.990000009536743,-5.0289998054504395,-6.146999835968018,2.2750000953674316,-9.727999687194824,0.953000009059906
1622104631932,3.359999895095825,-6.232999801635742,-5.363999843597412,2.236000061035156,-9.720999717712402,0.915000021457672
1622104631942,3.2899999618530273,-7.2150001525878915,-5.039000034332275,2.197000026702881,-9.70699977874756,0.8379999995231628
1622104631952,3.009999990463257,-8.458999633789062,-4.831999778747559,2.118000030517578,-9.70699977874756,0.8379999995231628
1622104631962,2.1700000762939453,-9.079999923706056,-4.941999912261963,2.0399999618530273,-9.699999809265137,0.7990000247955322
1622104631972,1.0499999523162842,-9.76099967956543,-4.705999851226807,1.9609999656677248,-9.687000274658203,0.722000002861023
1622104631982,0.2800000011920929,-10.458000183105469,-3.9760000705718994,1.8830000162124632,-9.635000228881836,0.6510000228881835
1622104631992,-0.4900000095367431,-11.29800033569336,-4.052999973297119,1.843999981880188,-9.666000366210936,0.606000006198883
1622104632002,-0.699999988079071,-11.14799976348877,-4.0980000495910645,1.8040000200271609,-9.666000366210936,0.606000006198883
1622104632012,-0.6299999952316284,-11.083000183105469,-4.86899995803833,1.7649999856948853,-9.645999908447264,0.4900000095367431
1622104632022,-1.190000057220459,-10.994000434875488,-5.7769999504089355,1.7649999856948853,-9.720999717712402,0.2380000054836273
1622104632032,-1.399999976158142,-10.743000030517578,-6.798999786376953,1.8040000200271609,-9.753000259399414,0.19200000166893
1622104632042,-1.399999976158142,-10.640999794006348,-7.776000022888184,1.7649999856948853,-9.701000213623049,0.1220000013709068
1622104632052,-0.8399999737739563,-11.034999847412108,-8.769000053405762,1.7649999856948853,-9.54599952697754,0.1490000039339065
1622104632062,0.0,-11.906999588012695,-9.0649995803833,1.7649999856948853,-9.50100040435791,0.1169999986886978
1622104632072,0.3499999940395355,-12.241499900817873,-8.982000350952148,1.7649999856948853,-9.454999923706056,0.0850000008940696
1622104632082,0.699999988079071,-12.576000213623049,-8.89900016784668,1.7649999856948853,-9.526000022888184,0.032999999821186
1622104632092,1.6799999475479126,-12.953000068664553,-9.178999900817873,1.7649999856948853,-9.635000228881836,-0.0260000005364418
1622104632102,3.0799999237060547,-14.088000297546388,-9.592000007629396,1.7649999856948853,-9.781999588012695,-0.0920000001788139
1622104632112,3.7100000381469727,-15.135000228881836,-9.706000328063965,1.72599995136261,-9.885000228881836,-0.1889999955892562
1622104632122,3.430000066757202,-16.05900001525879,-9.300000190734863,1.6480000019073486,-9.987000465393066,-0.2870000004768371
1622104632132,3.2200000286102295,-16.841999053955078,-9.29599952697754,1.569000005722046,-10.026000022888184,-0.2939999997615814
1622104632142,2.0999999046325684,-17.35300064086914,-8.817000389099121,1.4119999408721924,-10.057000160217283,-0.3389999866485595
1622104632152,0.3499999940395355,-17.308000564575195,-7.459000110626221,1.3339999914169312,-9.94200038909912,-0.3190000057220459
1622104632162,-1.190000057220459,-16.74799919128418,-5.796000003814697,1.215999960899353,-9.857000350952148,-0.3440000116825103
1622104632172,-2.380000114440918,-16.447999954223633,-4.677000045776367,1.1770000457763672,-9.734999656677246,-0.3619999885559082
1622104632182,-3.2899999618530273,-15.94499969482422,-4.303999900817871,1.0199999809265137,-9.651000022888184,-0.3869999945163726
1622104632192,-3.849999904632568,-16.167999267578125,-3.8459999561309814,0.981000006198883,-9.597999572753906,-0.4580000042915344
1622104632202,-4.760000228881836,-16.415000915527344,-3.25,0.9409999847412108,-9.508000373840332,-0.5210000276565551
1622104632212,-5.809999942779541,-17.104000091552734,-3.371000051498413,0.8240000009536743,-9.385000228881836,-0.5400000214576721
1622104632222,-6.510000228881836,-17.327999114990234,-5.329999923706055,0.7450000047683715,-9.42300033569336,-0.5460000038146972
1622104632232,-7.139999866485596,-17.02400016784668,-7.052999973297119,0.6280000209808348,-9.416999816894531,-0.5849999785423278
1622104632242,-7.349999904632568,-16.27400016784668,-8.484999656677246,0.5879999995231628,-9.40999984741211,-0.6240000128746032
1622104632252,-6.929999828338623,-15.32900047302246,-8.602999687194824,0.5490000247955322,-9.4350004196167,-0.7080000042915344
1622104632262,-6.510000228881836,-14.781999588012695,-8.079999923706055,0.4709999859333038,-9.479999542236328,-0.6759999990463256
1622104632272,-6.125,-14.623499870300291,-7.767499923706055,0.3529999852180481,-9.447999954223633,-0.6299999952316284
1622104632282,-5.739999771118164,-14.465000152587892,-7.454999923706055,0.2750000059604644,-9.602999687194824,-0.6579999923706054
1622104632292,-4.900000095367432,-13.013999938964844,-7.625999927520752,0.1570000052452087,-9.782999992370604,-0.7689999938011169
1622104632302,-4.550000190734863,-11.404000282287598,-7.484000205993653,0.0780000016093254,-9.954999923706056,-0.9190000295639038
1622104632312,-4.690000057220459,-9.128999710083008,-7.083000183105469,-0.0390000008046627,-10.18000030517578,-0.9980000257492064
1622104632322,-4.900000095367432,-6.71999979019165,-7.440000057220459,-0.1180000007152557,-10.404999732971191,-1.0779999494552612
1622104632332,-5.320000171661377,-3.947000026702881,-7.447999954223632,-0.2349999994039535,-10.437000274658203,-1.1230000257492063
1622104632342,-6.579999923706055,-0.5559999942779541,-6.921999931335449,-0.2750000059604644,-10.392000198364258,-1.1549999713897705
1622104632352,-8.1899995803833,2.177000045776367,-6.297999858856201,-0.2750000059604644,-10.300999641418455,-1.218999981880188
1622104632362,-9.100000381469728,5.498000144958496,-5.7829999923706055,-0.3140000104904174,-10.1850004196167,-1.1979999542236328
1622104632372,-9.380000114440918,8.628000259399414,-5.800000190734863,-0.2750000059604644,-10.062000274658203,-1.2170000076293943
1622104632382,-8.050000190734863,11.824000358581545,-5.379000186920166,-0.1180000007152557,-9.829999923706056,-1.1759999990463257
1622104632392,-6.300000190734863,14.666000366210938,-4.166999816894531,-0.0390000008046627,-9.71399974822998,-1.1549999713897705
1622104632402,-3.2899999618530273,16.909000396728516,-2.7760000228881836,0.0390000008046627,-9.604999542236328,-1.0959999561309814
1622104632412,0.2800000011920929,18.190000534057617,-1.9809999465942385,0.1180000007152557,-9.612000465393066,-1.0579999685287476
1622104632422,3.1500000953674316,18.22699928283691,-0.9800000190734864,0.1570000052452087,-9.53499984741211,-1.0440000295639038
1622104632432,5.110000133514404,18.048999786376953,0.8370000123977661,0.2349999994039535,-9.54800033569336,-0.9670000076293944
1622104632442,6.860000133514404,17.485000610351562,2.0169999599456787,0.1959999948740005,-9.510000228881836,-0.9599999785423278
1622104632452,8.399999618530273,16.804000854492188,2.252000093460083,0.1959999948740005,-9.517000198364256,-0.9210000038146972
1622104632462,9.029999732971191,16.402999877929688,2.109999895095825,0.1959999948740005,-9.510000228881836,-0.9599999785423278
1622104632472,8.75,16.023500442504883,2.0434999465942383,0.2349999994039535,-9.484999656677246,-0.8759999871253967
1622104632482,8.470000267028809,15.644000053405762,1.9769999980926511,0.2349999994039535,-9.562000274658203,-0.8889999985694885
1622104632492,7.8400001525878915,14.708000183105469,1.243000030517578,0.2750000059604644,-9.529999732971191,-0.8439999818801879
1622104632502,6.860000133514404,14.029999732971191,-0.1560000032186508,0.2750000059604644,-9.522999763488768,-0.8830000162124633
1622104632512,5.25,13.137999534606934,-0.740000009536743,0.3529999852180481,-9.522999763488768,-0.8830000162124633
1622104632522,3.9200000762939458,12.189000129699709,-1.4049999713897705,0.4309999942779541,-9.529999732971191,-0.8439999818801879
1622104632532,2.940000057220459,10.355999946594238,-2.296999931335449,0.5879999995231628,-9.491999626159668,-0.8370000123977661
1622104632542,1.8899999856948853,8.595999717712402,-2.3940000534057617,0.7450000047683715,-9.460000038146973,-0.7919999957084655
1622104632552,0.7699999809265136,6.008999824523926,-2.63700008392334,0.9020000100135804,-9.388999938964846,-0.7390000224113464
1622104632562,0.0700000002980232,2.8580000400543213,-2.9079999923706055,1.0980000495910645,-9.428000450134276,-0.7459999918937683
1622104632572,-0.8399999737739563,-0.9739999771118164,-2.944000005722046,1.2940000295639038,-9.467000007629396,-0.7530000209808348
1622104632581,-1.75,-7.14900016784668,-3.3929998874664307,1.491000056266785,-9.512000083923342,-0.7210000157356262
1622104632591,-3.2200000286102295,-14.192999839782717,-3.3559999465942383,1.6480000019073486,-9.543999671936035,-0.7670000195503234
1622104632601,-4.619999885559082,-21.97800064086914,-2.73799991607666,1.687000036239624,-9.550999641418455,-0.7279999852180481
1622104632612,-5.25,-30.82200050354004,-3.374000072479248,1.72599995136261,-9.51900005340576,-0.6830000281333923
1622104632621,-5.739999771118164,-40.051998138427734,-3.437000036239624,1.7649999856948853,-9.532999992370604,-0.6050000190734863
1622104632631,-6.159999847412109,-49.000999450683594,-3.878000020980835,1.72599995136261,-9.57800006866455,-0.5740000009536743
1622104632641,-6.510000228881836,-58.619998931884766,-4.1519999504089355,1.7649999856948853,-9.585000038146973,-0.5350000262260437
1622104632651,-7.489999771118165,-68.94000244140625,-4.479000091552734,1.72599995136261,-9.538999557495115,-0.5669999718666076
1622104632661,-8.1899995803833,-79.49500274658203,-5.486999988555908,1.6480000019073486,-9.437000274658203,-0.4690000116825103
1622104632671,-7.839999675750732,-84.52549743652344,-6.587500095367432,1.491000056266785,-9.366999626159668,-0.4169999957084655
1622104632681,-7.489999771118165,-89.55599975585938,-7.688000202178955,1.215999960899353,-9.46399974822998,-0.3149999976158142
1622104632691,-7.139999866485596,-98.13200378417967,-9.84000015258789,1.0199999809265137,-9.439000129699709,-0.2300000041723251
1622104632701,-6.300000190734863,-105.43499755859376,-10.345999717712402,0.7850000262260437,-9.42099952697754,-0.1080000028014183
1622104632711,-4.480000019073486,-111.45700073242188,-10.057000160217283,0.5879999995231628,-9.395999908447264,-0.0240000002086162
1622104632721,-2.0999999046325684,-116.82599639892578,-9.4399995803833,0.3529999852180481,-9.416999816894531,0.0920000001788139
1622104632731,0.5600000023841857,-120.38999938964844,-8.576000213623047,0.1959999948740005,-9.513999938964846,0.1940000057220459
1622104632741,3.0799999237060547,-123.43499755859376,-7.833000183105469,0.0,-9.64400005340576,0.2509999871253967
1622104632751,4.059999942779541,-125.12999725341795,-8.701000213623047,-0.1570000052452087,-9.76599979400635,0.2689999938011169
1622104632761,4.619999885559082,-125.9530029296875,-9.272000312805178,-0.2750000059604644,-9.888999938964846,0.2879999876022338
1622104632771,5.039999961853027,-125.97799682617188,-10.343000411987305,-0.4709999859333038,-10.005000114440918,0.2669999897480011
1622104632781,4.900000095367432,-125.83200073242188,-11.170000076293944,-0.6280000209808348,-10.01200008392334,0.3059999942779541
1622104632791,4.480000019073486,-124.75299835205078,-12.04599952697754,-0.7450000047683715,-9.965999603271484,0.2739999890327453
1622104632801,3.5,-122.17099761962892,-12.586000442504885,-0.8629999756813049,-10.159999847412108,0.2399999946355819
1622104632811,2.1700000762939453,-118.60199737548828,-11.458999633789064,-0.981000006198883,-10.274999618530272,0.2199999988079071
1622104632821,1.190000057220459,-113.45999908447266,-11.19200038909912,-1.1770000457763672,-10.385000228881836,0.1609999984502792
1622104632831,1.3300000429153442,-107.30899810791016,-11.812999725341797,-1.1770000457763672,-10.5,0.1400000005960464
1622104632841,1.8200000524520872,-100.38700103759766,-11.161999702453612,-1.1770000457763672,-10.402999877929688,0.0379999987781047
1622104632851,2.1700000762939453,-93.06700134277344,-9.94200038909912,-1.2549999952316284,-10.293999671936035,0.0970000028610229
1622104632861,3.009999990463257,-85.85800170898438,-9.3100004196167,-1.215999960899353,-10.26200008392334,0.1420000046491622
1622104632871,3.0799999237060547,-82.34400177001953,-9.08150005340576,-1.1380000114440918,-10.371000289916992,0.0829999968409538
1622104632881,3.1500000953674316,-78.83000183105469,-8.852999687194824,-1.0980000495910645,-10.666000366210938,-0.0489999987185001
1622104632891,3.2899999618530273,-71.43800354003906,-8.04699993133545,-1.0199999809265137,-10.814000129699709,-0.1140000000596046
1622104632901,3.849999904632568,-64.94200134277344,-8.607999801635742,-0.8240000009536743,-10.729999542236328,-0.1389999985694885
1622104632911,5.320000171661377,-59.45199966430664,-9.913999557495115,-0.6669999957084655,-10.536999702453612,-0.1049999967217445
1622104632921,6.159999847412109,-55.35599899291992,-9.76099967956543,-0.4709999859333038,-10.357000350952148,0.006000000052154
1622104632931,6.579999923706055,-51.11800003051758,-8.800000190734863,-0.3529999852180481,-10.248000144958496,0.0649999976158142
1622104632941,6.300000190734863,-47.43600082397461,-7.511000156402587,-0.1959999948740005,-10.062000274658203,0.1379999965429306
1622104632951,6.929999828338623,-44.6510009765625,-7.58900022506714,-0.0780000016093254,-9.862000465393066,0.1330000013113021
1622104632961,8.050000190734863,-41.96200180053711,-8.322999954223633,0.0,-9.553000450134276,0.1879999935626983
1622104632971,9.3100004196167,-40.404998779296875,-8.687999725341797,0.1570000052452087,-9.32800006866455,0.2669999897480011
1622104632981,10.079999923706056,-39.11100006103515,-7.9629998207092285,0.1959999948740005,-9.17300033569336,0.2939999997615814
1622104632991,9.869999885559082,-37.821998596191406,-6.810999870300293,0.2349999994039535,-9.08899974822998,0.2689999938011169
1622104633001,8.75,-36.44300079345703,-6.567999839782715,0.2750000059604644,-9.076000213623049,0.19200000166893
1622104633011,7.559999942779541,-35.62799835205078,-6.353000164031982,0.2750000059604644,-9.19200038909912,0.1720000058412551
1622104633021,5.880000114440918,-34.25299835205078,-5.684000015258789,0.3140000104904174,-9.404999732971191,0.2540000081062316
1622104633031,4.269999980926514,-32.76900100708008,-4.427999973297119,0.3140000104904174,-9.592000007629396,0.1809999942779541
1622104633041,3.0799999237060547,-31.97800064086914,-4.074999809265137,0.3140000104904174,-9.746000289916992,0.1539999991655349
1622104633051,2.450000047683716,-30.777999877929688,-4.432000160217285,0.2750000059604644,-9.829999923706056,0.1790000051259994
1622104633061,2.0999999046325684,-29.420000076293945,-4.4770002365112305,0.2750000059604644,-9.913999557495115,0.2039999961853027
1622104633071,2.0999999046325684,-28.655500411987305,-4.377500057220459,0.2750000059604644,-9.836999893188477,0.2169999927282333
1622104633081,2.0999999046325684,-27.891000747680664,-4.2779998779296875,0.2349999994039535,-9.772999763488768,0.3079999983310699
1622104633091,2.940000057220459,-25.96500015258789,-4.71999979019165,0.2349999994039535,-9.67099952697754,0.4059999883174896
1622104633101,4.96999979019165,-24.76499938964844,-5.077000141143799,0.2750000059604644,-9.576000213623049,0.5419999957084655
1622104633111,6.860000133514404,-23.121999740600582,-5.925000190734863,0.2349999994039535,-9.58899974822998,0.6190000176429749
1622104633121,8.960000038146973,-21.290000915527344,-6.242000102996826,0.2750000059604644,-9.791000366210936,0.8629999756813049
1622104633131,11.479999542236328,-19.30699920654297,-7.810999870300293,0.3140000104904174,-9.791000366210936,0.8629999756813049
1622104633141,14.0,-16.94300079345703,-9.527000427246092,0.4309999942779541,-9.875,0.8880000114440918
1622104633151,16.520000457763672,-14.286999702453612,-10.479999542236328,0.5099999904632568,-10.005000114440918,0.944000005722046
1622104633161,17.639999389648438,-12.899999618530272,-9.880000114440918,0.5490000247955322,-10.019000053405762,1.0219999551773071
1622104633171,18.690000534057617,-11.590000152587892,-8.440999984741211,0.5879999995231628,-9.987000465393066,1.0670000314712524
1622104633181,19.600000381469727,-10.85200023651123,-8.595000267028809,0.7059999704360961,-9.916000366210936,1.11899995803833
1622104633191,19.670000076293945,-10.06999969482422,-9.80799961090088,0.7850000262260437,-9.90999984741211,1.0809999704360962
1622104633201,19.18000030517578,-8.675000190734863,-10.059000015258787,0.8629999756813049,-9.824999809265137,1.055999994277954
1622104633211,17.920000076293945,-7.690000057220459,-9.60099983215332,0.9409999847412108,-9.878000259399414,1.1260000467300415
1622104633221,16.799999237060547,-7.406000137329101,-9.196000099182127,0.981000006198883,-9.83899974822998,1.1330000162124634
1622104633231,15.75,-7.251999855041504,-8.458000183105469,1.0199999809265137,-9.793999671936035,1.10099995136261
1622104633241,14.489999771118164,-6.7769999504089355,-7.520999908447266,0.981000006198883,-9.793999671936035,1.10099995136261
1622104633251,12.600000381469728,-6.708000183105469,-6.301000118255615,0.9409999847412108,-9.793999671936035,1.10099995136261
1622104633261,11.970000267028809,-6.64900016784668,-5.828499794006348,0.8240000009536743,-9.715999603271484,1.1150000095367432
1622104633271,11.340000152587892,-6.590000152587891,-5.355999946594238,0.7850000262260437,-9.70300006866455,1.037999987602234
1622104633281,10.220000267028809,-5.605000019073486,-4.8979997634887695,0.6669999957084655,-9.6850004196167,1.1599999666213987
1622104633291,9.100000381469728,-4.330999851226807,-4.460000038146973,0.6280000209808348,-9.628000259399414,1.2899999618530271
1622104633301,8.329999923706055,-2.4779999256134033,-3.2799999713897705,0.5099999904632568,-9.697999954223633,1.2380000352859497
1622104633311,6.929999828338623,-0.6740000247955322,-3.0329999923706055,0.4709999859333038,-9.781999588012695,1.2630000114440918
1622104633321,5.599999904632568,1.2000000476837158,-3.98200011253357,0.4709999859333038,-9.79599952697754,1.3400000333786013
1622104633331,4.199999809265137,3.3529999256134033,-5.308000087738037,0.5490000247955322,-9.75699996948242,1.3470000028610227
1622104633341,2.6600000858306885,5.829999923706055,-6.861999988555908,0.6280000209808348,-9.840999603271484,1.371999979019165
1622104633351,0.4199999868869781,7.635000228881835,-6.614999771118164,0.6669999957084655,-9.847999572753906,1.4099999666213987
1622104633361,-1.75,9.208000183105469,-5.058000087738037,0.7850000262260437,-9.803000450134276,1.378000020980835
1622104633371,-3.6400001049041744,9.937999725341797,-4.360000133514404,0.8629999756813049,-9.732000350952148,1.430999994277954
1622104633381,-4.199999809265137,11.244000434875488,-6.120999813079834,0.9020000100135804,-9.57800006866455,1.4579999446868896
1622104633391,-5.460000038146973,12.345999717712402,-7.133999824523926,0.9409999847412108,-9.609999656677246,1.4119999408721924
1622104633401,-7.139999866485596,13.267000198364258,-5.906000137329102,0.9409999847412108,-9.564000129699709,1.38100004196167
1622104633411,-8.1899995803833,13.194000244140623,-4.283999919891357,0.9020000100135804,-9.595999717712402,1.3350000381469729
1622104633421,-8.960000038146973,12.918999671936035,-4.333000183105469,0.981000006198883,-9.666000366210936,1.2829999923706057
1622104633431,-9.380000114440918,13.210000038146973,-4.7789998054504395,1.0199999809265137,-9.666000366210936,1.2829999923706057
1622104633441,-9.380000114440918,14.236000061035156,-4.953000068664551,1.0199999809265137,-9.75,1.3079999685287476
1622104633451,-9.100000381469728,14.982999801635742,-4.75,1.0980000495910645,-9.866000175476074,1.287999987602234
1622104633461,-8.75,15.510000228881836,-4.514999866485596,1.0590000152587893,-9.897999763488768,1.2419999837875366
1622104633471,-8.539999961853027,15.875,-4.166999816894531,1.0980000495910645,-9.821000099182127,1.25600004196167
1622104633481,-8.154999732971191,15.826000213623049,-4.495499610900879,1.1380000114440918,-9.744000434875488,1.2690000534057615
1622104633491,-7.769999980926514,15.777000427246094,-4.823999881744385,1.0980000495910645,-9.666000366210936,1.2829999923706057
1622104633501,-6.860000133514404,15.895000457763672,-5.086999893188477,1.0980000495910645,-9.58899974822998,1.2970000505447388
1622104633511,-6.159999847412109,15.984000205993652,-4.7870001792907715,1.0590000152587893,-9.512000083923342,1.309999942779541
1622104633521,-4.619999885559082,15.270000457763672,-4.770999908447266,1.0199999809265137,-9.460000038146973,1.2400000095367432
1622104633531,-3.1500000953674316,14.38599967956543,-4.998000144958496,0.981000006198883,-9.569000244140623,1.180999994277954
1622104633541,-2.309999942779541,13.039999961853027,-5.021999835968018,0.9020000100135804,-9.916000366210936,1.11899995803833
1622104633551,-2.309999942779541,12.001999855041504,-4.7779998779296875,0.8629999756813049,-10.14799976348877,1.0789999961853027
1622104633561,-2.1700000762939453,11.989999771118164,-4.710000038146973,0.7450000047683715,-10.18000030517578,1.0329999923706057
1622104633571,-1.75,11.543999671936035,-6.210000038146973,0.7059999704360961,-10.095999717712402,1.0080000162124634
1622104633581,-1.8200000524520872,10.968000411987305,-8.586000442504883,0.6280000209808348,-10.08899974822998,0.968999981880188
1622104633591,-3.569999933242798,11.534999847412108,-10.19200038909912,0.4709999859333038,-10.128000259399414,0.9629999995231628
1622104633601,-6.369999885559082,13.14900016784668,-11.684000015258787,0.4309999942779541,-10.08899974822998,0.968999981880188
1622104633611,-8.399999618530273,14.753999710083008,-13.534000396728516,0.4309999942779541,-10.043999671936035,0.9380000233650208
1622104633621,-10.850000381469728,16.079999923706055,-13.796999931335447,0.4709999859333038,-10.029999732971191,0.8600000143051147
1622104633631,-13.090000152587892,16.79800033569336,-13.031000137329102,0.3919999897480011,-9.899999618530272,0.8040000200271606
1622104633641,-14.699999809265137,17.4060001373291,-12.852999687194824,0.3919999897480011,-9.8100004196167,0.740000009536743
1622104633651,-15.68000030517578,17.658000946044922,-13.875,0.3919999897480011,-9.803000450134276,0.7009999752044677
1622104633661,-16.450000762939453,18.13999938964844,-14.998000144958496,0.3919999897480011,-9.744000434875488,0.5920000076293945
1622104633671,-16.799999237060547,18.48500061035156,-14.937000274658203,0.4309999942779541,-9.58199977874756,0.5809999704360961
1622104633681,-16.239999771118164,18.19700050354004,-16.125,0.4309999942779541,-9.465999603271484,0.6010000109672546
1622104633691,-15.81999969482422,18.089000701904297,-16.92599868774414,0.5099999904632568,-9.329999923706056,0.5059999823570251
1622104633701,-15.399999618530272,17.981000900268555,-17.726999282836914,0.5490000247955322,-9.354999542236328,0.4219999909400939
1622104633711,-15.960000038146973,17.656999588012695,-17.5,0.5490000247955322,-9.380000114440918,0.3379999995231628
1622104633721,-16.8700008392334,17.072999954223633,-16.607999801635742,0.5490000247955322,-9.366999626159668,0.2599999904632568
1622104633731,-17.079999923706055,16.027000427246094,-15.512999534606934,0.4709999859333038,-9.366999626159668,0.2599999904632568
1622104633741,-16.520000457763672,14.94499969482422,-15.418999671936035,0.3919999897480011,-9.359999656677246,0.2220000028610229
1622104633751,-15.81999969482422,14.482000350952148,-15.215999603271484,0.3140000104904174,-9.26900005340576,0.1580000072717666
1622104633761,-14.909999847412108,13.68000030517578,-14.291999816894531,0.1959999948740005,-9.262000083923342,0.1190000027418136
1622104633771,-14.0,13.505000114440918,-14.109000205993652,0.0780000016093254,-9.293999671936035,0.0740000009536743
1622104633781,-12.600000381469728,14.008000373840332,-14.94499969482422,0.0,-9.33199977874756,0.06700000166893
1622104633791,-11.130000114440918,15.37399959564209,-15.840999603271484,0.0,-9.402999877929688,0.0149999996647238
1622104633801,-9.9399995803833,16.246000289916992,-15.545000076293944,0.0,-9.557000160217283,-0.0120000001043081
1622104633811,-8.539999961853027,17.02899932861328,-14.340999603271484,-0.0390000008046627,-9.635000228881836,-0.0260000005364418
1622104633821,-7.349999904632568,17.316999435424805,-13.152999877929688,-0.0390000008046627,-9.744000434875488,-0.0850000008940696
1622104633831,-7.0,17.33300018310547,-12.439000129699709,-0.0390000008046627,-9.788999557495115,-0.0529999993741512
1622104633841,-7.280000209808349,17.32900047302246,-12.012999534606934,-0.1180000007152557,-9.89099979400635,-0.1509999930858612
1622104633851,-7.210000038146973,17.87299919128418,-12.27299976348877,-0.1959999948740005,-10.00100040435791,-0.209999993443489
1622104633861,-7.280000209808349,18.638999938964844,-12.991000175476074,-0.1570000052452087,-10.078000068664553,-0.2240000069141387
1622104633871,-7.139999866485596,19.55500030517578,-13.753000259399414,-0.1959999948740005,-10.161999702453612,-0.1990000009536743
1622104633881,-6.929999828338623,20.163999557495117,-13.574999809265137,-0.2349999994039535,-10.194000244140623,-0.2440000027418136
1622104633891,-5.880000114440918,20.507999420166016,-13.513999938964844,-0.1959999948740005,-10.194000244140623,-0.2440000027418136
1622104633901,-5.390000343322754,20.663999557495117,-13.593000411987305,-0.1570000052452087,-10.194000244140623,-0.2440000027418136
1622104633911,-4.900000095367432,20.81999969482422,-13.671999931335447,-0.1180000007152557,-10.20699977874756,-0.1669999957084655
1622104633921,-3.990000009536743,20.96699905395508,-13.291000366210938,-0.0780000016093254,-10.20699977874756,-0.1669999957084655
1622104633931,-3.569999933242798,21.68000030517578,-13.307000160217283,-0.0390000008046627,-10.175999641418455,-0.1209999993443489
1622104633941,-2.450000047683716,21.22599983215332,-12.748000144958496,0.0390000008046627,-10.130000114440918,-0.152999997138977
1622104633951,-1.399999976158142,21.01099967956543,-11.93299961090088,0.0780000016093254,-10.020999908447266,-0.0939999967813491
1622104633961,-0.0700000002980232,20.04700088500977,-9.685999870300291,0.0780000016093254,-9.835000038146973,-0.0209999997168779
1622104633971,1.1200000047683716,18.858999252319336,-6.980999946594238,0.1180000007152557,-9.763999938964846,0.0309999994933605
1622104633981,2.1700000762939453,17.715999603271484,-5.335000038146973,0.0780000016093254,-9.585000038146973,0.1420000046491622
1622104633991,3.990000009536743,16.868000030517578,-4.559999942779541,0.0390000008046627,-9.585000038146973,0.1420000046491622
1622104634001,5.670000076293945,16.284000396728516,-4.875999927520752,0.0390000008046627,-9.592000007629396,0.1809999942779541
1622104634011,6.579999923706055,16.361000061035156,-5.716000080108643,0.0390000008046627,-9.54599952697754,0.1490000039339065
1622104634021,7.280000209808349,16.211000442504883,-5.671000003814697,0.0390000008046627,-9.50100040435791,0.1169999986886978
1622104634031,7.139999866485596,15.769000053405762,-5.179999828338623,0.0390000008046627,-9.468999862670898,0.163000002503395
1622104634041,6.579999923706055,15.189000129699709,-4.714000225067139,0.0,-9.468999862670898,0.163000002503395
1622104634051,6.230000019073486,15.33899974822998,-4.758999824523926,-0.0780000016093254,-9.32800006866455,0.2669999897480011
1622104634061,6.159999847412109,15.619000434875488,-5.136000156402588,-0.0780000016093254,-9.18000030517578,0.3330000042915344
1622104634071,6.159999847412109,15.956000328063965,-5.432000160217285,-0.0780000016093254,-9.102999687194824,0.3470000028610229
1622104634081,5.389999866485596,16.445999145507812,-4.989999771118164,-0.0390000008046627,-9.026000022888184,0.3600000143051147
1622104634091,4.480000019073486,16.17099952697754,-3.8299999237060542,-0.0780000016093254,-8.987000465393066,0.367000013589859
1622104634101,3.9200000762939458,16.275999069213867,-4.025000095367432,0.0,-8.994000434875488,0.4059999883174896
1622104634111,3.570000171661377,16.03499984741211,-4.067500114440918,0.0390000008046627,-9.128000259399414,0.2630000114440918
1622104634121,3.2200000286102295,15.793999671936035,-4.110000133514404,0.0,-9.366999626159668,0.2599999904632568
1622104634131,2.6600000858306885,15.440999984741213,-3.319000005722046,-0.0390000008046627,-9.281999588012695,0.2349999994039535
1622104634141,1.9600000381469729,15.03600025177002,-1.8270000219345093,0.0780000016093254,-9.352999687194824,0.1829999983310699
1622104634151,2.309999942779541,13.41800022125244,-1.1169999837875366,0.0780000016093254,-9.50100040435791,0.1169999986886978
1622104634161,1.8899999856948853,11.661999702453612,-0.4309999942779541,0.0780000016093254,-9.647999763488768,0.0509999990463256
1622104634171,1.190000057220459,10.49899959564209,0.9269999861717224,0.0780000016093254,-9.763999938964846,0.0309999994933605
1622104634181,0.209999993443489,9.69200038909912,1.069000005722046,0.0780000016093254,-9.95699977874756,-0.003000000026077
1622104634191,0.209999993443489,9.119999885559082,0.684000015258789,0.0780000016093254,-10.144000053405762,-0.0759999975562095
1622104634201,-0.4900000095367431,9.086999893188477,1.6729999780654907,0.0780000016093254,-10.362000465393066,-0.1940000057220459
1622104634211,-1.3300000429153442,8.58899974822998,4.5,0.0780000016093254,-10.631999969482422,-0.2419999986886978
1622104634220,-2.380000114440918,7.818999767303467,6.8520002365112305,0.0780000016093254,-10.710000038146973,-0.2549999952316284
1622104634230,-3.1500000953674316,6.533999919891357,8.899999618530273,0.0390000008046627,-10.562000274658203,-0.1889999955892562
1622104634240,-3.7799999713897705,5.492000102996826,9.569000244140623,-0.0390000008046627,-10.220999717712402,-0.0890000015497207
1622104634250,-4.130000114440918,5.151000022888184,9.08199977874756,-0.0780000016093254,-9.854999542236328,0.0949999988079071
1622104634260,-4.130000114440918,4.604000091552734,8.559000015258789,-0.1180000007152557,-9.50699996948242,0.1560000032186508
1622104634270,-3.6400001049041744,4.396999835968018,7.315000057220459,-0.1959999948740005,-9.404999732971191,0.2540000081062316
1622104634280,-2.1700000762939453,4.578999996185303,5.072000026702881,-0.1570000052452087,-9.342000007629396,0.3440000116825103
1622104634290,0.0700000002980232,5.178999900817871,2.4769999980926514,-0.1570000052452087,-9.31700038909912,0.4280000030994415
1622104634300,2.5899999141693115,5.060999870300293,0.3240000009536743,-0.1180000007152557,-9.362000465393066,0.4600000083446502
1622104634310,4.619999885559082,5.39300012588501,-1.9630000591278076,-0.0390000008046627,-9.51599979400635,0.4329999983310699
1622104634320,5.179999828338623,5.636000156402588,-3.3420000076293945,0.0390000008046627,-9.70300006866455,0.3600000143051147
1622104634330,4.934999942779541,5.50600004196167,-3.6135001182556152,0.1180000007152557,-9.857000350952148,0.3330000042915344
1622104634340,4.690000057220459,5.375999927520752,-3.884999990463257,0.1959999948740005,-10.005000114440918,0.2669999897480011
1622104634350,3.569999933242798,5.302999973297119,-4.679999828338623,0.2750000059604644,-10.043999671936035,0.2599999904632568
1622104634360,1.8899999856948853,5.002999782562256,-4.591000080108643,0.3140000104904174,-10.029999732971191,0.1829999983310699
1622104634370,-0.3499999940395355,4.5980000495910645,-4.307000160217285,0.3529999852180481,-9.991000175476074,0.1899999976158142
1622104634380,-2.940000057220459,3.8440001010894775,-3.6579999923706055,0.3529999852180481,-9.906999588012695,0.1650000065565109
1622104634390,-4.760000228881836,3.365000009536743,-2.9609999656677246,0.3919999897480011,-9.78499984741211,0.1469999998807907
1622104634400,-5.670000076293945,2.4649999141693115,-2.693000078201294,0.4309999942779541,-9.682000160217283,0.2440000027418136
1622104634410,-5.880000114440918,1.840999960899353,-2.375999927520752,0.4709999859333038,-9.604999542236328,0.2579999864101409
1622104634420,-5.320000171661377,1.2970000505447388,-2.1170001029968266,0.5099999904632568,-9.572999954223633,0.3039999902248382
1622104634430,-4.059999942779541,0.7990000247955322,-1.7070000171661377,0.5099999904632568,-9.53499984741211,0.3100000023841857
1622104634440,-2.869999885559082,-0.0729999989271163,-2.003000020980835,0.5490000247955322,-9.46399974822998,0.3630000054836273
1622104634450,-1.0499999523162842,-0.8069999814033508,-2.2750000953674316,0.5879999995231628,-9.46399974822998,0.3630000054836273
1622104634460,0.6299999952316284,-1.878000020980835,-2.25,0.5490000247955322,-9.46399974822998,0.3630000054836273
1622104634470,2.380000114440918,-3.247999906539917,-2.13700008392334,0.5490000247955322,-9.541000366210936,0.3490000069141387
1622104634480,3.6400001049041744,-4.375999927520752,-2.193000078201294,0.5099999904632568,-9.579999923706056,0.3420000076293945
1622104634490,4.199999809265137,-5.068999767303467,-1.8890000581741333,0.5099999904632568,-9.579999923706056,0.3420000076293945
1622104634500,4.760000228881836,-5.8520002365112305,-1.8849999904632568,0.4709999859333038,-9.656999588012695,0.3289999961853027
1622104634510,4.619999885559082,-7.39300012588501,-2.013999938964844,0.4709999859333038,-9.656999588012695,0.3289999961853027
1622104634520,4.96999979019165,-7.960000038146973,-2.825000047683716,0.3919999897480011,-9.70300006866455,0.3600000143051147
1622104634530,5.670000076293945,-8.362000465393066,-4.175000190734863,0.3140000104904174,-9.748000144958496,0.3919999897480011
1622104634540,5.670000076293945,-8.406999588012695,-4.326000213623047,0.3919999897480011,-9.826000213623049,0.3790000081062316
1622104634550,5.599999904632568,-8.795999526977539,-4.535999774932861,0.3529999852180481,-9.786999702453612,0.3849999904632568
1622104634560,5.635000228881836,-9.076000213623049,-4.762999534606934,0.3140000104904174,-9.755000114440918,0.4309999942779541
1622104634570,5.670000076293945,-9.355999946594238,-4.989999771118164,0.2349999994039535,-9.715999603271484,0.4379999935626983
1622104634580,5.599999904632568,-9.611000061035156,-5.959000110626221,0.1959999948740005,-9.678000450134276,0.4440000057220459
1622104634590,5.460000038146973,-9.258000373840332,-6.75,0.1570000052452087,-9.715999603271484,0.4379999935626983
1622104634600,5.389999866485596,-8.730999946594238,-7.723999977111816,0.1570000052452087,-9.729999542236328,0.5149999856948853
1622104634610,5.039999961853027,-7.90399980545044,-8.78600025177002,0.1570000052452087,-9.776000022888184,0.5469999909400939
1622104634620,4.269999980926514,-7.072999954223633,-9.065999984741213,0.1180000007152557,-9.814000129699709,0.5400000214576721
1622104634630,3.7799999713897705,-6.488999843597412,-9.958000183105469,0.1959999948740005,-9.852999687194824,0.5329999923706054
1622104634640,3.430000066757202,-5.938000202178955,-9.861000061035156,0.2750000059604644,-9.852999687194824,0.5329999923706054
1622104634650,2.799999952316284,-5.329999923706055,-9.68299961090088,0.3140000104904174,-9.852999687194824,0.5329999923706054
1622104634660,2.240000009536743,-5.304999828338623,-9.81999969482422,0.3529999852180481,-9.873000144958496,0.6489999890327453
1622104634670,1.6799999475479126,-5.410999774932861,-9.62600040435791,0.3919999897480011,-9.866000175476074,0.6100000143051147
1622104634680,1.1200000047683716,-5.434999942779541,-9.48799991607666,0.3529999852180481,-9.897999763488768,0.5649999976158142
1622104634690,0.3499999940395355,-5.638000011444092,-8.741999626159668,0.4309999942779541,-9.89099979400635,0.5260000228881835
1622104634700,-0.2800000011920929,-5.5970001220703125,-8.166000366210938,0.4309999942779541,-9.852999687194824,0.5329999923706054
1622104634710,-1.0499999523162842,-4.952000141143799,-8.194000244140625,0.4309999942779541,-9.821000099182127,0.5789999961853027
1622104634720,-1.5399999618530271,-4.501999855041504,-7.119999885559082,0.4309999942779541,-9.807000160217283,0.5009999871253967
1622104634730,-1.6100000143051147,-3.9670000076293945,-6.5279998779296875,0.4309999942779541,-9.76900005340576,0.5080000162124633
1622104634740,-1.3300000429153442,-3.4679999351501465,-5.729000091552734,0.4709999859333038,-9.76900005340576,0.5080000162124633
1622104634750,-1.0499999523162842,-3.244999885559082,-4.979000091552734,0.4709999859333038,-9.722999572753906,0.4760000109672546
1622104634760,-0.6299999952316284,-2.811000108718872,-4.618000030517578,0.4709999859333038,-9.722999572753906,0.4760000109672546
1622104634770,-0.4199999868869781,-2.688999891281128,-4.098999977111816,0.4709999859333038,-9.652999877929688,0.5289999842643737
1622104634780,0.1400000005960464,-2.259000062942505,-4.520999908447266,0.4709999859333038,-9.6850004196167,0.4830000102519989
1622104634790,0.6299999952316284,-2.7660000324249268,-4.4679999351501465,0.4309999942779541,-9.6850004196167,0.4830000102519989
1622104634800,1.1200000047683716,-2.7739999294281006,-4.824999809265137,0.4309999942779541,-9.704999923706056,0.5989999771118164
1622104634810,1.1200000047683716,-2.8410000801086426,-5.050000190734863,0.4709999859333038,-9.729999542236328,0.5149999856948853
1622104634820,1.1200000047683716,-2.9079999923706055,-5.275000095367432,0.4709999859333038,-9.776000022888184,0.5469999909400939
1622104634830,0.6299999952316284,-3.171999931335449,-5.39300012588501,0.5099999904632568,-9.852999687194824,0.5329999923706054
1622104634840,0.4199999868869781,-3.634000062942505,-5.190000057220459,0.5099999904632568,-9.92300033569336,0.481000006198883
1622104634850,-0.1400000005960464,-4.380000114440918,-5.39300012588501,0.5490000247955322,-9.92300033569336,0.481000006198883
1622104634860,-0.8399999737739563,-4.400000095367432,-5.679999828338623,0.5099999904632568,-9.92300033569336,0.481000006198883
1622104634870,-1.6799999475479126,-4.328000068664551,-6.093999862670898,0.4709999859333038,-9.92300033569336,0.481000006198883
1622104634880,-2.380000114440918,-4.072000026702881,-6.333000183105469,0.3919999897480011,-9.954999923706056,0.4350000023841857
1622104634890,-3.430000066757202,-3.561000108718872,-6.811999797821045,0.3919999897480011,-9.994000434875488,0.4289999902248382
1622104634900,-4.409999847412109,-2.421999931335449,-6.823999881744385,0.3529999852180481,-9.994000434875488,0.4289999902248382
1622104634910,-5.039999961853027,-1.7039999961853027,-6.058000087738037,0.3140000104904174,-9.947999954223633,0.3970000147819519
1622104634920,-5.460000038146973,-0.6579999923706054,-5.945000171661377,0.2750000059604644,-9.940999984741213,0.3580000102519989
1622104634930,-5.739999771118164,0.202000007033348,-5.579999923706055,0.2349999994039535,-9.895999908447264,0.3260000050067901
1622104634940,-6.019999980926514,1.5970000028610227,-5.830999851226807,0.1959999948740005,-9.895999908447264,0.3260000050067901
1622104634950,-6.789999961853027,2.622999906539917,-6.00600004196167,0.1570000052452087,-9.92099952697754,0.2419999986886978
1622104634960,-7.349999904632568,3.2760000228881836,-5.677000045776367,0.1959999948740005,-9.913999557495115,0.2039999961853027
1622104634970,-8.050000190734863,4.47599983215332,-6.033999919891357,0.1959999948740005,-9.87600040435791,0.209999993443489
1622104634980,-7.769999980926514,5.047999858856201,-6.857999801635742,0.1959999948740005,-9.753000259399414,0.19200000166893
1622104634990,-7.139999866485596,5.97599983215332,-7.689000129699707,0.1959999948740005,-9.668999671936035,0.1669999957084655
1622104635000,-6.650000095367432,7.041999816894531,-8.496000289916992,0.1570000052452087,-9.661999702453612,0.1289999932050705
1622104635010,-6.440000057220459,7.642000198364258,-8.675000190734863,0.1959999948740005,-9.668999671936035,0.1669999957084655
1622104635020,-5.670000076293945,8.607999801635742,-8.505000114440918,0.2349999994039535,-9.630000114440918,0.1739999949932098
1622104635030,-5.110000133514404,9.020999908447264,-8.432000160217285,0.1959999948740005,-9.630000114440918,0.1739999949932098
1622104635040,-4.199999809265137,9.41800022125244,-9.071999549865724,0.1959999948740005,-9.592000007629396,0.1809999942779541
1622104635050,-4.024999618530273,9.765000343322754,-9.224499702453612,0.1959999948740005,-9.675999641418455,0.2060000002384185
1622104635060,-3.849999904632568,10.112000465393066,-9.376999855041506,0.2750000059604644,-9.689000129699709,0.2829999923706054
1622104635070,-3.7100000381469727,10.862000465393066,-9.600000381469728,0.2750000059604644,-9.71399974822998,0.1990000009536743
1622104635080,-3.5,11.949000358581545,-10.119000434875488,0.1570000052452087,-9.753000259399414,0.19200000166893
1622104635090,-3.5,12.51200008392334,-10.090999603271484,0.1570000052452087,-9.746000289916992,0.1539999991655349
1622104635100,-3.2899999618530273,13.133000373840332,-9.980999946594238,0.1180000007152557,-9.770999908447264,0.0700000002980232
1622104635110,-3.6400001049041744,14.340999603271484,-9.980999946594238,0.0390000008046627,-9.815999984741213,0.101000003516674
1622104635120,-3.7799999713897705,15.24899959564209,-9.892000198364256,-0.1180000007152557,-9.822999954223633,0.1400000005960464
1622104635130,-3.849999904632568,16.790000915527344,-9.762999534606934,-0.2349999994039535,-9.829999923706056,0.1790000051259994
1622104635140,-4.340000152587891,19.823999404907227,-9.227999687194824,-0.3919999897480011,-9.829999923706056,0.1790000051259994
1622104635150,-4.619999885559082,24.316999435424805,-8.506999969482422,-0.5099999904632568,-9.836999893188477,0.2169999927282333
1622104635160,-4.619999885559082,29.093999862670895,-7.380000114440918,-0.6280000209808348,-9.80500030517578,0.2630000114440918
1622104635170,-4.340000152587891,34.74599838256836,-7.592000007629395,-0.7850000262260437,-9.760000228881836,0.231000006198883
1622104635180,-4.340000152587891,40.702999114990234,-7.110000133514404,-0.9020000100135804,-9.79800033569336,0.2240000069141387
1622104635190,-4.480000019073486,47.65700149536133,-6.238999843597412,-1.0980000495910645,-9.80500030517578,0.2630000114440918
1622104635200,-4.480000019073486,55.12699890136719,-5.064000129699707,-1.2549999952316284,-9.80500030517578,0.2630000114440918
1622104635210,-4.619999885559082,63.702999114990234,-4.120999813079834,-1.3730000257492063,-9.812000274658203,0.3009999990463256
1622104635220,-4.829999923706055,73.05000305175781,-3.111999988555908,-1.491000056266785,-9.843999862670898,0.2560000121593475
1622104635230,-5.25,82.55899810791016,-2.2170000076293945,-1.569000005722046,-9.857000350952148,0.3330000042915344
1622104635240,-5.670000076293945,92.26300048828124,-1.2170000076293943,-1.5299999713897705,-9.812000274658203,0.3009999990463256
1622104635250,-5.670000076293945,101.64600372314452,-0.4160000085830688,-1.4509999752044678,-9.800999641418455,0.4629999995231628
1622104635260,-5.53000020980835,109.8010025024414,0.0979999974370002,-1.2940000295639038,-9.762000083923342,0.4690000116825103
1622104635270,-5.005000114440918,113.4990005493164,0.2879999876022338,-1.1770000457763672,-9.722999572753906,0.4760000109672546
1622104635280,-4.480000019073486,117.1969985961914,0.4779999852180481,-1.0590000152587893,-9.6850004196167,0.4830000102519989
1622104635290,-3.569999933242798,123.50700378417967,0.1689999997615814,-0.9020000100135804,-9.652999877929688,0.5289999842643737
1622104635300,-2.5899999141693115,129.51600646972656,-0.050000000745058,-0.7450000047683715,-9.652999877929688,0.5289999842643737
1622104635310,-1.75,134.08200073242188,0.2569999992847442,-0.5879999995231628,-9.652999877929688,0.5289999842643737
1622104635320,-0.6299999952316284,137.64300537109375,-0.1809999942779541,-0.4709999859333038,-9.61400032043457,0.5350000262260437
1622104635330,0.4199999868869781,140.18899536132812,-0.5139999985694885,-0.3140000104904174,-9.65999984741211,0.5669999718666076
1622104635340,1.0499999523162842,142.11500549316406,-0.955999970436096,-0.1959999948740005,-9.621000289916992,0.5740000009536743
1622104635350,1.5399999618530271,143.9239959716797,-1.1349999904632568,-0.0780000016093254,-9.628000259399414,0.6129999756813049
1622104635360,1.8899999856948853,145.0709991455078,-1.9989999532699585,0.0,-9.638999938964846,0.4510000050067901
1622104635370,1.9600000381469729,145.07899475097656,-2.8510000705718994,0.1959999948740005,-9.652999877929688,0.5289999842643737
1622104635380,1.8200000524520872,144.27999877929688,-3.559999942779541,0.3919999897480011,-9.678000450134276,0.4440000057220459
1622104635390,1.75,142.42300415039065,-4.314000129699707,0.5490000247955322,-9.678000450134276,0.4440000057220459
1622104635400,2.309999942779541,139.48699951171875,-5.400000095367432,0.6669999957084655,-9.715999603271484,0.4379999935626983
1622104635410,2.309999942779541,135.9550018310547,-6.734000205993652,0.8240000009536743,-9.755000114440918,0.4309999942779541
1622104635420,1.8899999856948853,131.5749969482422,-7.293000221252441,0.981000006198883,-9.748000144958496,0.3919999897480011
1622104635430,1.2599999904632568,126.41300201416016,-7.848000049591064,1.0980000495910645,-9.748000144958496,0.3919999897480011
1622104635440,1.3300000429153442,120.7689971923828,-8.48799991607666,1.1770000457763672,-9.689000129699709,0.2829999923706054
1622104635450,1.399999976158142,114.2969970703125,-9.272999763488768,1.2549999952316284,-9.682000160217283,0.2440000027418136
1622104635460,1.9600000381469729,108.125,-10.14799976348877,1.2940000295639038,-9.675999641418455,0.2060000002384185
1622104635470,2.309999942779541,101.85199737548828,-10.04599952697754,1.3339999914169312,-9.71399974822998,0.1990000009536743
1622104635480,2.450000047683716,95.64800262451172,-9.932000160217283,1.3339999914169312,-9.70699977874756,0.1599999964237213
1622104635490,2.5199999809265137,92.5699996948242,-10.012500762939451,1.3339999914169312,-9.71399974822998,0.1990000009536743
1622104635500,2.5899999141693115,89.49199676513672,-10.093000411987305,1.2940000295639038,-9.661999702453612,0.1289999932050705
1622104635510,2.940000057220459,84.05500030517578,-9.48799991607666,1.2549999952316284,-9.701000213623049,0.1220000013709068
1622104635520,3.359999895095825,79.51699829101562,-9.151000022888184,1.1380000114440918,-9.668999671936035,0.1669999957084655
1622104635530,3.6400001049041744,75.08499908447266,-9.008000373840332,1.0199999809265137,-9.668999671936035,0.1669999957084655
1622104635540,3.7799999713897705,71.54100036621094,-9.0649995803833,0.9409999847412108,-9.70699977874756,0.1599999964237213
1622104635550,3.7100000381469727,68.2969970703125,-9.210000038146973,0.8629999756813049,-9.746000289916992,0.1539999991655349
1622104635560,3.430000066757202,65.44200134277344,-9.145000457763674,0.8240000009536743,-9.815999984741213,0.101000003516674
1622104635570,3.430000066757202,63.1879997253418,-9.258000373840332,0.8240000009536743,-9.8100004196167,0.0630000010132789
1622104635580,3.9200000762939458,60.499000549316406,-9.732000350952148,0.8240000009536743,-9.73900032043457,0.1150000020861625
1622104635590,4.480000019073486,57.4010009765625,-9.496999740600586,0.8240000009536743,-9.661999702453612,0.1289999932050705
1622104635600,4.96999979019165,54.69200134277344,-9.050000190734863,0.8240000009536743,-9.630000114440918,0.1739999949932098
1622104635610,5.110000133514404,52.39699935913086,-8.531000137329102,0.8240000009536743,-9.630000114440918,0.1739999949932098
1622104635620,5.320000171661377,50.243999481201165,-8.413000106811523,0.7059999704360961,-9.70699977874756,0.1599999964237213
1622104635630,5.389999866485596,48.5369987487793,-9.211999893188477,0.7059999704360961,-9.78499984741211,0.1469999998807907
1622104635640,5.179999828338623,46.41600036621094,-10.083000183105469,0.7059999704360961,-9.87600040435791,0.209999993443489
1622104635650,4.900000095367432,44.667999267578125,-10.24899959564209,0.7850000262260437,-9.906999588012695,0.1650000065565109
1622104635660,4.409999847412109,42.222999572753906,-9.6850004196167,0.8629999756813049,-9.89400005340576,0.0879999995231628
1622104635670,3.9200000762939458,39.45000076293945,-9.677000045776367,0.9020000100135804,-9.89400005340576,0.0879999995231628
1622104635680,3.6400001049041744,36.862998962402344,-9.920000076293944,0.8629999756813049,-9.89400005340576,0.0879999995231628
1622104635690,3.359999895095825,34.24300003051758,-10.380999565124512,0.9020000100135804,-9.925999641418455,0.0419999994337558
1622104635700,2.7300000190734863,31.652000427246097,-10.199000358581545,0.8629999756813049,-9.880000114440918,0.0099999997764825
1622104635710,2.380000114440918,30.723499298095703,-9.971500396728516,0.7850000262260437,-9.880000114440918,0.0099999997764825
1622104635720,2.0299999713897705,29.795000076293945,-9.744000434875488,0.7450000047683715,-9.847999572753906,0.0560000017285346
1622104635730,1.3300000429153442,28.124000549316406,-9.541000366210936,0.7059999704360961,-9.847999572753906,0.0560000017285346
1622104635740,0.699999988079071,27.23200035095215,-8.916999816894531,0.6669999957084655,-9.8100004196167,0.0630000010132789
1622104635750,0.3499999940395355,27.14299964904785,-8.008000373840332,0.6280000209808348,-9.803000450134276,0.0240000002086162
1622104635760,0.0,26.85099983215332,-7.561999797821045,0.6669999957084655,-9.75699996948242,-0.0080000003799796
1622104635770,-0.2800000011920929,26.20199966430664,-7.107999801635742,0.6669999957084655,-9.68000030517578,0.006000000052154
1622104635780,0.0,25.64299964904785,-6.354000091552734,0.5490000247955322,-9.694000244140623,0.0829999968409538
1622104635790,0.209999993443489,25.05500030517578,-6.24399995803833,0.5490000247955322,-9.694000244140623,0.0829999968409538
1622104635800,0.209999993443489,24.81599998474121,-6.5,0.5099999904632568,-9.732000350952148,0.0759999975562095
1622104635810,-0.209999993443489,25.131999969482425,-7.084000110626221,0.5099999904632568,-9.732000350952148,0.0759999975562095
1622104635820,-0.4199999868869781,25.481000900268555,-7.448999881744384,0.4309999942779541,-9.803000450134276,0.0240000002086162
1622104635830,-0.699999988079071,25.378999710083008,-7.679999828338623,0.4709999859333038,-9.803000450134276,0.0240000002086162
1622104635840,-1.190000057220459,25.27400016784668,-7.485000133514405,0.4709999859333038,-9.763999938964846,0.0309999994933605
1622104635850,-1.4700000286102295,25.253999710083008,-6.564000129699707,0.5099999904632568,-9.694000244140623,0.0829999968409538
1622104635859,-1.0499999523162842,24.881000518798828,-6.061999797821045,0.4709999859333038,-9.654999732971191,0.0900000035762786
1622104635869,-1.0499999523162842,24.597000122070312,-5.258999824523926,0.5490000247955322,-9.661999702453612,0.1289999932050705
1622104635879,-0.3499999940395355,23.766000747680664,-4.979000091552734,0.6280000209808348,-9.668999671936035,0.1669999957084655
1622104635889,0.1400000005960464,23.52199935913086,-4.808000087738037,0.6280000209808348,-9.623000144958496,0.135000005364418
1622104635899,0.4199999868869781,22.33799934387207,-4.946000099182129,0.6280000209808348,-9.637000083923342,0.2129999995231628
1622104635909,0.5600000023841857,21.659000396728516,-4.923500061035156,0.6280000209808348,-9.746000289916992,0.1539999991655349
1622104635919,0.699999988079071,20.979999542236328,-4.901000022888184,0.5879999995231628,-9.829999923706056,0.1790000051259994
1622104635929,0.9800000190734864,19.75900077819824,-4.831999778747559,0.5490000247955322,-9.913999557495115,0.2039999961853027
1622104635939,0.9100000262260436,18.847000122070312,-4.495999813079834,0.4709999859333038,-9.998000144958496,0.2290000021457672
1622104635949,0.0,18.39699935913086,-4.361999988555908,0.4309999942779541,-10.029999732971191,0.1829999983310699
1622104635959,-1.4700000286102295,18.16200065612793,-3.8340001106262207,0.4309999942779541,-10.02299976348877,0.1449999958276748
1622104635969,-2.869999885559082,17.70800018310547,-3.2750000953674316,0.4309999942779541,-9.977999687194824,0.1129999980330467
1622104635979,-3.990000009536743,17.11199951171875,-3.5220000743865967,0.3919999897480011,-9.939000129699709,0.1199999973177909
1622104635989,-4.829999923706055,16.236000061035156,-3.3919999599456787,0.4309999942779541,-9.822999954223633,0.1400000005960464
1622104635999,-4.96999979019165,15.210000038146973,-3.2179999351501465,0.4709999859333038,-9.78499984741211,0.1469999998807907
1622104636009,-4.900000095367432,14.008999824523926,-4.068999767303467,0.4709999859333038,-9.73900032043457,0.1150000020861625
1622104636019,-4.96999979019165,12.711999893188477,-4.36899995803833,0.5099999904632568,-9.694000244140623,0.0829999968409538
1622104636029,-4.900000095367432,11.402000427246094,-4.599999904632568,0.5490000247955322,-9.72599983215332,0.0379999987781047
1622104636039,-4.480000019073486,9.529000282287598,-4.859000205993652,0.5490000247955322,-9.67300033569336,-0.032999999821186
1622104636049,-3.9200000762939458,7.517000198364258,-5.14300012588501,0.5490000247955322,-9.642000198364256,0.0130000002682209
1622104636059,-3.2899999618530273,5.1570000648498535,-5.060999870300293,0.6280000209808348,-9.58899974822998,-0.0579999983310699
1622104636069,-2.450000047683716,2.9110000133514404,-4.817999839782715,0.6280000209808348,-9.58899974822998,-0.0579999983310699
1622104636079,-1.8200000524520872,0.7450000047683715,-4.63100004196167,0.6669999957084655,-9.642000198364256,0.0130000002682209
1622104636089,-1.0499999523162842,-2.0199999809265137,-4.265999794006348,0.7850000262260437,-9.68000030517578,0.006000000052154
1622104636099,-0.699999988079071,-3.6705000400543217,-4.378999710083008,0.8240000009536743,-9.687000274658203,0.0450000017881393
1622104636109,-0.3499999940395355,-5.321000099182129,-4.492000102996826,0.9020000100135804,-9.72599983215332,0.0379999987781047
1622104636119,0.0700000002980232,-9.437000274658203,-4.934000015258789,1.0199999809265137,-9.770999908447264,0.0700000002980232
1622104636129,-0.4900000095367431,-12.871000289916992,-5.610000133514404,1.1380000114440918,-9.763999938964846,0.0309999994933605
1622104636139,-0.3499999940395355,-17.753000259399414,-5.334000110626221,1.2940000295639038,-9.79599952697754,-0.0149999996647238
1622104636149,-0.4199999868869781,-23.621000289916992,-5.515999794006348,1.5299999713897705,-9.803000450134276,0.0240000002086162
1622104636159,-0.4199999868869781,-30.753999710083008,-5.7779998779296875,1.687000036239624,-9.732000350952148,0.0759999975562095
1622104636169,-0.9800000190734864,-38.45399856567382,-5.64300012588501,1.9220000505447388,-9.701000213623049,0.1220000013709068
1622104636179,-1.1200000047683716,-47.83300018310547,-5.6620001792907715,2.0789999961853027,-9.661999702453612,0.1289999932050705
1622104636189,-0.9800000190734864,-58.34400177001953,-6.519999980926514,2.118000030517578,-9.585000038146973,0.1420000046491622
1622104636199,-0.2800000011920929,-69.20800018310547,-7.796000003814697,2.0789999961853027,-9.637000083923342,0.2129999995231628
1622104636209,0.4199999868869781,-79.00499725341797,-8.670999526977539,2.0789999961853027,-9.604999542236328,0.2579999864101409
1622104636219,0.9100000262260436,-87.9739990234375,-9.39900016784668,2.0399999618530273,-9.612000465393066,0.2969999909400939
1622104636229,1.2599999904632568,-96.3030014038086,-9.730999946594238,2.0399999618530273,-9.579999923706056,0.3420000076293945
1622104636239,1.5399999618530271,-104.89199829101564,-9.397000312805178,2.000999927520752,-9.62600040435791,0.3740000128746032
1622104636249,2.1700000762939453,-113.18399810791016,-8.72700023651123,2.118000030517578,-9.593999862670898,0.4189999997615814
1622104636259,2.869999885559082,-122.29199981689452,-8.270999908447266,2.118000030517578,-9.562000274658203,0.4650000035762786
1622104636269,3.7799999713897705,-131.64999389648438,-8.001999855041504,2.118000030517578,-9.536999702453612,0.5490000247955322
1622104636279,4.409999847412109,-140.9810028076172,-7.089000225067139,1.9609999656677248,-9.557000160217283,0.6650000214576721
1622104636289,4.829999923706055,-144.89999389648438,-7.0335001945495605,1.6080000400543213,-9.531999588012695,0.7490000128746032
1622104636299,5.25,-148.81900024414065,-6.978000164031982,1.2549999952316284,-9.50699996948242,0.8330000042915344
1622104636309,6.440000057220459,-153.75,-6.426000118255615,0.9020000100135804,-9.496000289916992,0.9940000176429749
1622104636319,7.769999980926514,-155.79400634765625,-5.71999979019165,0.6669999957084655,-9.579999923706056,1.0190000534057615
1622104636329,7.769999980926514,-156.5800018310547,-5.289999961853027,0.4709999859333038,-9.656999588012695,1.00600004196167
1622104636339,7.980000019073486,-157.1929931640625,-6.250999927520752,0.3529999852180481,-9.678000450134276,1.121999979019165
1622104636349,7.9099998474121085,-158.14999389648438,-7.2729997634887695,0.2349999994039535,-9.800000190734863,1.1399999856948853
1622104636359,7.630000114440918,-159.0540008544922,-7.788000106811523,0.0780000016093254,-9.916000366210936,1.11899995803833
1622104636369,6.579999923706055,-158.7949981689453,-8.45300006866455,-0.1180000007152557,-9.961999893188477,1.1510000228881836
1622104636379,5.389999866485596,-156.48300170898438,-9.467000007629396,-0.3529999852180481,-9.968999862670898,1.190000057220459
1622104636389,4.269999980926514,-152.76499938964844,-10.800999641418455,-0.4709999859333038,-9.968999862670898,1.190000057220459
1622104636399,2.940000057220459,-147.49000549316406,-11.29300022125244,-0.6669999957084655,-9.961999893188477,1.1510000228881836
1622104636409,1.75,-141.36300659179688,-11.776000022888184,-0.8629999756813049,-9.954999923706056,1.1130000352859497
1622104636419,0.6299999952316284,-134.21800231933594,-11.583000183105469,-1.0199999809265137,-10.024999618530272,1.059999942779541
1622104636429,-0.209999993443489,-126.50499725341795,-10.578000068664553,-1.2549999952316284,-9.875,0.8880000114440918
1622104636439,-0.699999988079071,-117.85099792480467,-9.265000343322754,-1.3339999914169312,-9.829999923706056,0.856000006198883
1622104636449,-0.6299999952316284,-108.56500244140624,-7.9120001792907715,-1.491000056266785,-9.73900032043457,0.7919999957084655
1622104636459,-0.1400000005960464,-98.95099639892578,-7.211999893188477,-1.5299999713897705,-9.654999732971191,0.7670000195503234
1622104636469,0.4900000095367431,-88.80500030517578,-6.703000068664551,-1.491000056266785,-9.64099979400635,0.6899999976158142
1622104636479,0.9449999928474426,-83.8699951171875,-6.472499847412109,-1.4119999408721924,-9.68000030517578,0.6830000281333923
1622104636489,1.399999976158142,-78.93499755859375,-6.242000102996826,-1.2940000295639038,-9.666000366210936,0.606000006198883
1622104636499,1.9600000381469729,-70.20500183105469,-5.769000053405762,-1.0980000495910645,-9.61400032043457,0.5350000262260437
1622104636509,2.240000009536743,-62.37900161743164,-5.809999942779541,-1.0199999809265137,-9.61400032043457,0.5350000262260437
1622104636519,2.7300000190734863,-55.60300064086914,-5.539000034332275,-0.8629999756813049,-9.576000213623049,0.5419999957084655
1622104636529,3.430000066757202,-49.18000030517578,-5.685999870300293,-0.7850000262260437,-9.576000213623049,0.5419999957084655
1622104636539,4.480000019073486,-43.125999450683594,-5.75600004196167,-0.7059999704360961,-9.569000244140623,0.5040000081062316
1622104636549,5.53000020980835,-37.75299835205078,-5.591000080108643,-0.6280000209808348,-9.61400032043457,0.5350000262260437
1622104636559,6.789999961853027,-33.04899978637695,-5.258999824523926,-0.5879999995231628,-9.61400032043457,0.5350000262260437
1622104636569,7.980000019073486,-28.145999908447266,-5.247000217437744,-0.5099999904632568,-9.697999954223633,0.5600000023841857
1622104636579,8.680000305175781,-23.82799911499023,-5.552000045776367,-0.5099999904632568,-9.781999588012695,0.5849999785423278
1622104636589,9.380000114440918,-19.724000930786133,-5.041999816894531,-0.4709999859333038,-9.847999572753906,0.7329999804496765
1622104636599,9.729999542236328,-15.449999809265137,-4.288000106811523,-0.4709999859333038,-9.918999671936035,0.6809999942779541
1622104636609,9.100000381469728,-11.723999977111816,-4.057000160217285,-0.4309999942779541,-9.949999809265137,0.6349999904632568
1622104636619,8.260000228881836,-8.390000343322754,-4.820000171661377,-0.3140000104904174,-9.98900032043457,0.6290000081062316
1622104636629,7.139999866485596,-5.118000030517578,-5.23799991607666,-0.3140000104904174,-10.034999847412108,0.6600000262260437
1622104636639,5.599999904632568,-1.7730000019073486,-6.070000171661377,-0.2750000059604644,-10.034999847412108,0.6600000262260437
1622104636649,4.199999809265137,1.212000012397766,-6.4679999351501465,-0.2349999994039535,-9.98900032043457,0.6290000081062316
1622104636659,3.0799999237060547,3.3399999141693115,-7.656000137329101,-0.1959999948740005,-9.98900032043457,0.6290000081062316
1622104636669,2.484999895095825,4.631499767303467,-7.926000118255616,-0.1570000052452087,-9.949999809265137,0.6349999904632568
1622104636679,1.8899999856948853,5.922999858856201,-8.196000099182129,-0.1570000052452087,-9.944000244140623,0.597000002861023
1622104636689,1.0499999523162842,7.801000118255616,-8.362000465393066,-0.1180000007152557,-9.866000175476074,0.6100000143051147
1622104636699,0.4900000095367431,9.71500015258789,-8.736000061035156,-0.0780000016093254,-9.821000099182127,0.5789999961853027
1622104636709,0.1400000005960464,11.680999755859377,-8.60200023651123,-0.0780000016093254,-9.776000022888184,0.5469999909400939
1622104636719,-0.4900000095367431,13.883000373840332,-8.996000289916992,-0.1180000007152557,-9.781999588012695,0.5849999785423278
1622104636729,-0.4900000095367431,16.093000411987305,-9.032999992370604,-0.1180000007152557,-9.776000022888184,0.5469999909400939
1622104636739,-0.4199999868869781,18.44099998474121,-9.045000076293944,-0.1959999948740005,-9.678000450134276,0.4440000057220459
1622104636749,-0.1400000005960464,21.600000381469727,-8.416999816894531,-0.2349999994039535,-9.652999877929688,0.5289999842643737
1622104636759,0.4900000095367431,25.163999557495117,-8.072999954223633,-0.1570000052452087,-9.65999984741211,0.5669999718666076
1622104636769,0.9100000262260436,27.87299919128418,-7.310999870300293,-0.1180000007152557,-9.607000350952148,0.4970000088214874
1622104636779,1.2599999904632568,30.42799949645996,-7.2870001792907715,-0.0390000008046627,-9.607000350952148,0.4970000088214874
1622104636789,1.4700000286102295,32.45500183105469,-7.498000144958496,0.0390000008046627,-9.652999877929688,0.5289999842643737
1622104636799,1.75,34.03200149536133,-7.574999809265136,0.0390000008046627,-9.690999984741213,0.5220000147819519
1622104636809,1.8200000524520872,35.17599868774414,-8.013999938964844,0.0390000008046627,-9.76900005340576,0.5080000162124633
1622104636819,1.6799999475479126,36.03499984741211,-8.857000350952148,0.0,-9.89099979400635,0.5260000228881835
1622104636829,0.699999988079071,37.45500183105469,-9.246999740600586,0.0390000008046627,-9.968999862670898,0.5130000114440918
1622104636839,-0.4900000095367431,39.31600189208984,-8.918000221252441,0.0390000008046627,-9.937000274658203,0.5580000281333923
1622104636849,-2.0999999046325684,40.95000076293945,-8.914999961853027,0.1180000007152557,-9.975000381469728,0.5509999990463256
1622104636859,-2.869999885559082,41.479000091552734,-8.892499923706055,0.1959999948740005,-9.975000381469728,0.5509999990463256
1622104636869,-3.6400001049041744,42.007999420166016,-8.869999885559082,0.1959999948740005,-9.947999954223633,0.3970000147819519
1622104636879,-4.760000228881836,43.07500076293945,-8.468999862670898,0.3140000104904174,-10.078000068664553,0.4539999961853027
1622104636889,-6.300000190734863,43.58599853515625,-7.738999843597413,0.3529999852180481,-10.161999702453612,0.4790000021457672
1622104636899,-8.050000190734863,43.76499938964844,-7.138999938964844,0.4709999859333038,-10.130000114440918,0.5239999890327453
1622104636909,-10.43000030517578,43.60300064086914,-5.816999912261963,0.4709999859333038,-10.175000190734863,0.5559999942779541
1622104636919,-12.460000038146973,43.35900115966797,-4.438000202178955,0.5099999904632568,-10.144000053405762,0.6010000109672546
1622104636929,-14.770000457763672,42.88899993896485,-3.384000062942505,0.5099999904632568,-10.065999984741213,0.615000009536743
1622104636939,-16.309999465942383,42.19200134277344,-2.6540000438690186,0.4709999859333038,-9.949999809265137,0.6349999904632568
1622104636949,-17.360000610351562,41.676998138427734,-1.7489999532699585,0.4709999859333038,-9.911999702453612,0.6420000195503234
1622104636959,-17.780000686645508,41.875999450683594,-0.8610000014305114,0.4709999859333038,-9.873000144958496,0.6489999890327453
1622104636969,-18.059999465942383,41.97700119018555,0.578000009059906,0.5099999904632568,-9.866000175476074,0.6100000143051147
1622104636979,-18.059999465942383,41.66899871826172,1.5190000534057615,0.5879999995231628,-9.821000099182127,0.5789999961853027
1622104636989,-18.1299991607666,41.00400161743164,2.4679999351501465,0.6280000209808348,-9.776000022888184,0.5469999909400939
1622104636999,-17.709999084472656,39.354000091552734,2.9590001106262207,0.6280000209808348,-9.690999984741213,0.5220000147819519
1622104637009,-16.799999237060547,37.63899993896485,3.01200008392334,0.7059999704360961,-9.60099983215332,0.4580000042915344
1622104637019,-15.890000343322754,35.87900161743164,2.9149999618530273,0.7850000262260437,-9.60099983215332,0.4580000042915344
1622104637029,-14.909999847412108,33.79899978637695,2.61899995803833,0.7450000047683715,-9.579999923706056,0.3420000076293945
1622104637039,-13.510000228881836,31.045000076293945,1.7070000171661377,0.7450000047683715,-9.53499984741211,0.3100000023841857
1622104637049,-12.109999656677246,28.785999298095703,0.8109999895095825,0.7059999704360961,-9.527999877929688,0.2720000147819519
1622104637059,-10.989999771118164,27.042999267578125,0.2189999967813491,0.7059999704360961,-9.444000244140623,0.2469999939203262
1622104637069,-10.43000030517578,26.215499877929688,0.0734999999403953,0.6669999957084655,-9.47599983215332,0.2010000050067901
1622104637079,-9.869999885559082,25.38800048828125,-0.0719999969005584,0.7059999704360961,-9.42300033569336,0.1309999972581863
1622104637089,-8.1899995803833,23.641000747680664,-0.2380000054836273,0.7450000047683715,-9.42300033569336,0.1309999972581863
1622104637099,-6.650000095367432,21.073999404907227,-0.1940000057220459,0.7850000262260437,-9.494000434875488,0.0790000036358833
1622104637109,-5.460000038146973,18.503000259399418,-0.930999994277954,0.7850000262260437,-9.57800006866455,0.1040000021457672
1622104637119,-4.690000057220459,14.812999725341797,-1.36899995803833,0.7059999704360961,-9.661999702453612,0.1289999932050705
1622104637129,-4.619999885559082,11.73900032043457,-2.4790000915527344,0.6280000209808348,-9.70699977874756,0.1599999964237213
1622104637139,-4.269999980926514,8.434000015258789,-3.48799991607666,0.6280000209808348,-9.70699977874756,0.1599999964237213
1622104637149,-4.409999847412109,6.025000095367432,-4.340000152587891,0.5099999904632568,-9.746000289916992,0.1539999991655349
