timestamp,gyro_x,gyro_y,gyro_z,acc_x,acc_y,acc_z
1621842901536,0.0,0.0,0.0,0.0,0.0,0.0
1621842901545,-0.2800000011920929,77.18199920654298,-1.9570000171661377,1.6080000400543213,-9.319000244140623,-0.6869999766349792
1621842901555,1.5399999618530271,72.072998046875,-3.2130000591278076,1.6080000400543213,-9.343999862670898,-0.7710000276565551
1621842901565,1.6100000143051147,66.38400268554688,-4.002999782562256,1.569000005722046,-9.413999557495115,-0.8240000009536743
1621842901575,1.4700000286102295,60.66600036621094,-4.230000019073486,1.491000056266785,-9.45300006866455,-0.8299999833106994
1621842901585,1.190000057220459,55.3380012512207,-4.244999885559082,1.4119999408721924,-9.446000099182127,-0.8690000176429749
1621842901595,0.4199999868869781,50.47600173950195,-3.6809999942779545,1.3730000257492063,-9.267000198364256,-0.7580000162124633
1621842901605,-0.6299999952316284,46.44499969482422,-3.3959999084472656,1.2549999952316284,-9.298999786376951,-0.8029999732971191
1621842901615,-1.3300000429153442,42.43899917602539,-3.25,1.215999960899353,-9.484999656677246,-0.8759999871253967
1621842901625,-1.75,39.23600006103515,-2.819999933242798,1.1770000457763672,-9.871000289916992,-0.944000005722046
1621842901635,-1.190000057220459,36.742000579833984,-1.9800000190734863,1.1380000114440918,-10.38700008392334,-0.9549999833106994
1621842901645,-0.699999988079071,34.45500183105469,-1.1039999723434448,1.0199999809265137,-10.477999687194824,-0.8920000195503234
1621842901655,-0.3499999940395355,32.31399917602539,0.1539999991655349,0.981000006198883,-10.097999572753906,-0.7850000262260437
1621842901665,0.0,29.45599937438965,1.8530000448226929,1.0199999809265137,-9.628000259399414,-0.7419999837875366
1621842901675,0.7699999809265136,26.593000411987305,3.9779999256134033,0.9409999847412108,-9.388999938964846,-0.7390000224113464
1621842901685,2.0299999713897705,25.510499954223633,5.279999732971191,0.8629999756813049,-9.36400032043457,-0.6549999713897705
1621842901695,3.2899999618530273,24.42799949645996,6.581999778747559,0.8240000009536743,-9.454999923706056,-0.5920000076293945
1621842901705,6.789999961853027,22.04800033569336,7.584000110626221,0.7059999704360961,-9.42300033569336,-0.5460000038146972
1621842901715,10.710000038146973,20.035999298095703,4.882999897003174,0.7059999704360961,-9.397999763488768,-0.4620000123977661
1621842901725,14.350000381469728,17.906999588012695,1.2380000352859497,0.7059999704360961,-9.387000083923342,-0.3009999990463256
1621842901735,16.940000534057617,15.656000137329102,-1.7170000076293943,0.7450000047683715,-9.342000007629396,-0.3330000042915344
1621842901745,18.829999923706055,13.534999847412108,-3.7969999313354497,0.8240000009536743,-9.39400005340576,-0.2619999945163726
1621842901755,20.020000457763672,11.373000144958496,-6.453000068664551,0.7059999704360961,-9.425999641418455,-0.3079999983310699
1621842901765,20.15999984741211,9.154999732971191,-7.980999946594238,0.6669999957084655,-9.470999717712402,-0.2759999930858612
1621842901775,20.020000457763672,8.20199966430664,-9.428999900817873,0.5879999995231628,-9.60099983215332,-0.2189999967813491
1621842901785,19.670000076293945,7.467999935150147,-10.909000396728516,0.5099999904632568,-9.6850004196167,-0.1940000057220459
1621842901795,18.899999618530273,7.419000148773193,-11.842000007629396,0.4709999859333038,-9.807000160217283,-0.1759999990463256
1621842901805,18.059999465942383,8.234000205993652,-11.626999855041504,0.3919999897480011,-9.788999557495115,-0.0529999993741512
1621842901815,17.149999618530273,9.20300006866455,-10.673999786376951,0.2750000059604644,-9.642000198364256,0.0130000002682209
1621842901825,16.799999237060547,10.335000038146973,-9.835000038146973,0.1959999948740005,-9.494000434875488,0.0790000036358833
1621842901835,17.079999923706055,11.44200038909912,-8.857999801635742,0.0780000016093254,-9.26900005340576,0.1580000072717666
1621842901845,18.40999984741211,12.970999717712402,-7.451000213623046,0.0,-9.128000259399414,0.2630000114440918
1621842901855,20.93000030517578,14.803999900817873,-6.559000015258789,-0.0780000016093254,-9.057000160217283,0.3149999976158142
1621842901865,23.799999237060547,16.576000213623047,-7.738999843597413,-0.1570000052452087,-9.057000160217283,0.3149999976158142
1621842901875,25.375,17.441499710083008,-8.616999626159668,-0.1180000007152557,-9.263999938964846,0.3580000102519989
1621842901885,26.950000762939453,18.30699920654297,-9.494999885559082,-0.0780000016093254,-9.425999641418455,0.3689999878406524
1621842901895,29.61000061035156,19.51099967956543,-10.277999877929688,-0.0390000008046627,-9.45699977874756,0.3240000009536743
1621842901905,31.36000061035156,20.52899932861328,-10.809000015258787,-0.0390000008046627,-9.418999671936035,0.3310000002384185
1621842901915,32.900001525878906,20.67099952697754,-11.211000442504885,-0.0390000008046627,-9.342000007629396,0.3440000116825103
1621842901925,34.439998626708984,20.548999786376953,-11.729999542236328,-0.0780000016093254,-9.342000007629396,0.3440000116825103
1621842901935,35.97999954223633,20.541000366210938,-13.295000076293944,-0.0780000016093254,-9.470999717712402,0.4009999930858612
1621842901945,37.869998931884766,20.989999771118164,-15.845999717712402,-0.0390000008046627,-9.663999557495115,0.367000013589859
1621842901955,38.779998779296875,21.972000122070312,-17.378999710083008,0.0390000008046627,-9.826000213623049,0.3790000081062316
1621842901965,39.34000015258789,23.06999969482422,-19.174999237060547,0.1570000052452087,-9.9350004196167,0.3199999928474426
1621842901975,39.060001373291016,23.281000137329105,-20.77300071716309,0.2750000059604644,-10.08899974822998,0.2919999957084655
1621842901985,38.43000030517578,23.256000518798828,-21.843000411987305,0.4709999859333038,-10.204999923706056,0.2720000147819519
1621842901995,37.45000076293945,23.024999618530273,-22.950000762939453,0.5879999995231628,-10.284999847412108,0.4970000088214874
1621842902005,36.68000030517578,23.118000030517575,-24.28499984741211,0.8629999756813049,-10.284999847412108,0.4970000088214874
1621842902015,36.189998626708984,22.65999984741211,-24.506999969482425,1.0980000495910645,-10.027999877929688,0.621999979019165
1621842902025,34.790000915527344,21.45599937438965,-24.933000564575195,1.4509999752044678,-9.904999732971191,0.6039999723434448
1621842902035,32.7599983215332,20.32799911499023,-26.197999954223633,1.687000036239624,-10.065999984741213,0.615000009536743
1621842902038,,,,,,
1621842902045,31.36000061035156,19.573999404907227,-26.757999420166016,1.843999981880188,-10.241000175476074,0.7039999961853027
1621842902055,29.260000228881836,18.35700035095215,-25.906000137329105,2.1570000648498535,-10.487000465393066,0.740000009536743
1621842902065,25.40999984741211,17.055999755859375,-24.57200050354004,2.236000061035156,-10.487000465393066,0.740000009536743
1621842902075,21.0,15.625,-20.488000869750977,2.1570000648498535,-10.487000465393066,0.740000009536743
1621842902085,18.654998779296875,14.847000122070312,-17.888500213623047,2.000999927520752,-10.371000289916992,0.7599999904632568
1621842902095,16.309999465942383,14.069000244140623,-15.288999557495115,1.8830000162124632,-10.062000274658203,0.8149999976158142
1621842902105,11.199999809265137,12.378000259399414,-10.541000366210936,1.7649999856948853,-9.815999984741213,0.7789999842643737
1621842902115,5.039999961853027,11.166000366210938,-8.906000137329102,1.8040000200271609,-9.647999763488768,0.7279999852180481
1621842902125,-0.2800000011920929,11.170000076293944,-9.33199977874756,1.687000036239624,-9.50699996948242,0.8330000042915344
1621842902135,-2.5899999141693115,12.342000007629396,-9.125,1.6480000019073486,-9.107000350952148,0.8240000009536743
1621842902145,-2.240000009536743,13.125,-7.921000003814697,1.569000005722046,-9.520999908447264,0.9100000262260436
1621842902155,1.0499999523162842,13.21399974822998,-6.413000106811523,1.569000005722046,-9.444000244140623,0.9240000247955322
1621842902165,6.579999923706055,12.727999687194824,-4.863999843597412,1.4509999752044678,-9.314000129699709,0.8669999837875366
1621842902175,6.860000133514404,12.208999633789064,-1.1169999837875366,1.215999960899353,-9.352999687194824,0.8600000143051147
1621842902185,9.59000015258789,11.430999755859377,0.8780000209808348,1.215999960899353,-9.572999954223633,0.981000006198883
1621842902195,13.720000267028809,10.513999938964844,-0.7760000228881835,1.1770000457763672,-9.70300006866455,1.037999987602234
1621842902205,14.909999847412108,9.244999885559082,-2.8480000495910645,1.0980000495910645,-9.67099952697754,1.0829999446868896
1621842902215,13.649999618530272,8.961000442504883,-5.670000076293945,1.1770000457763672,-9.63199996948242,1.0900000333786013
1621842902225,10.850000381469728,8.359999656677246,-9.116999626159668,1.1770000457763672,-9.529999732971191,1.187000036239624
1621842902235,8.890000343322754,7.504000186920166,-12.324000358581545,1.2940000295639038,-9.58199977874756,1.2580000162124634
1621842902245,9.65999984741211,6.802000045776367,-14.793999671936035,1.3730000257492063,-9.564000129699709,1.38100004196167
1621842902255,10.850000381469728,5.354000091552734,-16.256999969482422,1.4509999752044678,-9.538999557495115,1.4650000333786013
1621842902265,11.340000152587892,4.0279998779296875,-18.40999984741211,1.491000056266785,-9.559000015258787,1.5809999704360962
1621842902275,11.270000457763672,2.961999893188477,-18.812000274658203,1.4509999752044678,-9.71399974822998,1.5529999732971191
1621842902285,11.899999618530272,2.6700000762939453,-17.156999588012695,1.4509999752044678,-9.89400005340576,1.4420000314712524
1621842902295,9.65999984741211,2.743000030517578,-16.36199951171875,1.3730000257492063,-10.062000274658203,1.4919999837875366
1621842902305,8.71500015258789,2.5704998970031734,-16.392499923706055,1.2549999952316284,-10.138999938964844,1.4780000448226929
1621842902315,7.769999980926514,2.3980000019073486,-16.42300033569336,1.215999960899353,-10.05500030517578,1.4529999494552612
1621842902325,4.690000057220459,3.0880000591278076,-16.301000595092773,1.215999960899353,-9.763999938964846,1.3849999904632568
1621842902335,1.1200000047683716,4.7870001792907715,-17.06800079345703,1.215999960899353,-9.699999809265137,1.47599995136261
1621842902345,-0.9800000190734864,6.88700008392334,-16.483999252319336,1.215999960899353,-9.70699977874756,1.5149999856948853
1621842902355,-0.8399999737739563,8.428000450134277,-15.147000312805176,1.1770000457763672,-9.784000396728516,1.5010000467300415
1621842902365,-0.3499999940395355,10.56999969482422,-12.779000282287598,1.1380000114440918,-9.36400032043457,1.3760000467300415
1621842902375,-0.699999988079071,12.645999908447266,-10.848999977111816,1.1380000114440918,-8.755000114440918,1.0850000381469729
1621842902385,-1.9600000381469729,14.836000442504885,-11.173999786376951,1.2549999952316284,-8.678000450134277,1.0989999771118164
1621842902395,-1.399999976158142,16.2549991607666,-12.770999908447266,1.2940000295639038,-9.319000244140623,1.343999981880188
1621842902405,5.039999961853027,17.812000274658203,-13.13700008392334,1.4119999408721924,-9.616000175476074,1.4509999752044678
1621842902415,8.680000305175781,19.67300033569336,-11.600000381469728,1.569000005722046,-9.694000244140623,1.437000036239624
1621842902425,6.929999828338623,20.04599952697754,-12.102999687194824,1.72599995136261,-9.699999809265137,1.47599995136261
1621842902435,6.71999979019165,20.0049991607666,-13.88700008392334,1.843999981880188,-9.378000259399414,1.4529999494552612
1621842902445,5.739999771118164,19.381000518798828,-13.571000099182127,1.843999981880188,-8.854999542236328,1.4259999990463257
1621842902455,5.670000076293945,17.7189998626709,-11.802000045776367,1.8830000162124632,-8.706999778747559,1.4919999837875366
1621842902465,8.609999656677246,15.60200023651123,-10.68299961090088,1.8830000162124632,-8.960000038146973,1.5670000314712524
1621842902475,11.619999885559082,13.425000190734863,-9.218999862670898,1.843999981880188,-9.449999809265137,1.6399999856948853
1621842902485,12.31999969482422,10.967000007629396,-9.793999671936035,1.843999981880188,-9.824999809265137,1.7330000400543213
1621842902495,10.56999969482422,8.89900016784668,-11.366999626159668,1.7649999856948853,-9.909000396728516,1.7580000162124634
1621842902505,7.8400001525878915,7.085999965667725,-13.18000030517578,1.687000036239624,-9.793999671936035,1.7779999971389773
1621842902515,5.670000076293945,6.311999797821045,-14.027000427246094,1.491000056266785,-10.102999687194824,1.7239999771118164
1621842902525,9.029999732971191,4.9039998054504395,-14.914999961853027,1.491000056266785,-9.748000144958496,1.746999979019165
1621842902535,5.599999904632568,4.7089996337890625,-17.437000274658203,1.7649999856948853,-9.288999557495115,1.628000020980835
1621842902545,2.1700000762939453,4.513999938964844,-19.958999633789062,1.8040000200271609,-9.449999809265137,1.6399999856948853
1621842902555,0.8399999737739563,4.275000095367432,-20.21500015258789,1.7649999856948853,-9.83199977874756,1.7719999551773071
1621842902565,2.869999885559082,4.296999931335449,-12.677000045776367,1.687000036239624,-9.83899974822998,1.809999942779541
1621842902575,1.5399999618530271,4.783999919891357,-8.184000015258789,1.72599995136261,-9.708999633789062,1.753000020980835
1621842902585,-2.380000114440918,4.146999835968018,-9.006999969482422,1.687000036239624,-9.83199977874756,1.7719999551773071
1621842902595,-3.5,3.628000020980835,-10.093000411987305,1.569000005722046,-10.053000450134276,1.8919999599456787
1621842902605,-2.940000057220459,3.546999931335449,-10.036999702453612,1.4509999752044678,-9.947999954223633,1.7510000467300415
1621842902615,-3.849999904632568,3.4779999256134033,-11.256999969482422,1.4509999752044678,-9.593999862670898,1.77400004863739
1621842902625,-5.53000020980835,4.336999893188477,-13.309000015258787,1.4509999752044678,-9.612000465393066,1.6510000228881836
1621842902635,-5.320000171661377,5.252999782562256,-15.279999732971191,1.5299999713897705,-9.720999717712402,1.5920000076293943
1621842902645,-5.110000133514404,5.889999866485596,-15.664999961853027,1.687000036239624,-9.80500030517578,1.6169999837875366
1621842902655,-7.070000171661377,6.315000057220459,-15.66100025177002,1.8830000162124632,-9.784000396728516,1.5010000467300415
1621842902665,-9.380000114440918,6.105000019073486,-15.272000312805176,2.000999927520752,-9.571000099182127,1.4190000295639038
1621842902675,-10.56999969482422,4.872000217437744,-15.133999824523926,2.0789999961853027,-9.163999557495115,1.3710000514984133
1621842902685,-10.5,3.4690001010894775,-12.821999549865724,2.197000026702881,-8.718999862670898,1.3309999704360962
1621842902695,-8.680000305175781,2.440000057220459,-8.597000122070312,2.236000061035156,-8.020999908447266,1.2150000333786013
1621842902705,-6.159999847412109,1.8730000257492063,-2.1579999923706055,2.510999917984009,-7.808000087738037,1.1330000162124634
1621842902715,-3.6400001049041744,1.3350000381469729,6.135000228881836,2.3929998874664307,-8.776000022888184,1.2009999752044678
1621842902725,4.690000057220459,0.3459999859333038,8.519000053405762,2.0789999961853027,-9.487000465393066,1.3940000534057615
1621842902735,4.409999847412109,-1.6540000438690186,0.9169999957084656,2.0399999618530273,-9.647999763488768,1.406000018119812
1621842902745,4.130000114440918,-3.0789999961853027,-6.7270002365112305,2.0789999961853027,-9.770999908447264,1.4240000247955322
1621842902755,5.599999904632568,-2.7139999866485596,-6.377999782562256,2.1570000648498535,-10.274999618530272,1.5740000009536743
1621842902765,7.280000209808349,-2.194000005722046,-1.6660000085830688,2.0399999618530273,-11.284000396728516,1.8739999532699585
1621842902775,5.425000190734863,-2.4089999198913574,-2.059499979019165,1.9609999656677248,-10.63700008392334,1.5900000333786013
1621842902785,3.569999933242798,-2.624000072479248,-2.453000068664551,1.9609999656677248,-9.484999656677246,1.156000018119812
1621842902795,-7.630000114440918,-5.386000156402588,-8.555000305175781,2.000999927520752,-8.484999656677246,1.1330000162124634
1621842902805,-9.59000015258789,-5.5279998779296875,-6.945000171661377,1.8040000200271609,-8.607000350952148,1.1510000228881836
1621842902815,-3.569999933242798,-3.799999952316284,0.1829999983310699,1.5299999713897705,-9.472999572753906,1.3170000314712524
1621842902825,1.6799999475479126,-3.4830000400543213,3.2239999771118164,1.4119999408721924,-9.998000144958496,1.5829999446868896
1621842902835,0.3499999940395355,-3.25600004196167,1.131999969482422,1.4509999752044678,-9.829999923706056,1.5329999923706057
1621842902845,-3.359999895095825,-3.361999988555908,-2.299000024795532,1.5299999713897705,-9.54599952697754,1.503000020980835
1621842902855,-5.039999961853027,-3.058000087738037,-2.813999891281128,1.5299999713897705,-9.416000366210936,1.4470000267028809
1621842902865,-4.409999847412109,-3.005000114440918,-2.306999921798706,1.491000056266785,-9.616000175476074,1.4509999752044678
1621842902875,-4.059999942779541,-3.6099998950958256,-4.11899995803833,1.491000056266785,-9.694000244140623,1.437000036239624
1621842902885,-4.900000095367432,-3.9300000667572026,-6.735000133514404,1.491000056266785,-9.616000175476074,1.4509999752044678
1621842902895,-6.019999980926514,-3.763999938964844,-8.482999801635742,1.5299999713897705,-9.564000129699709,1.38100004196167
1621842902905,-5.739999771118164,-2.8239998817443848,-9.383000373840332,1.5299999713897705,-9.550000190734863,1.3029999732971191
1621842902915,-5.110000133514404,-2.7100000381469727,-9.220999717712402,1.569000005722046,-9.621000289916992,1.2510000467300415
1621842902925,-4.900000095367432,-2.4179999828338623,-8.458000183105469,1.5299999713897705,-9.58199977874756,1.2580000162124634
1621842902935,-4.900000095367432,-2.118000030517578,-7.33900022506714,1.491000056266785,-9.543999671936035,1.2649999856948853
1621842902945,-4.340000152587891,-1.7649999856948853,-5.7129998207092285,1.5299999713897705,-9.465999603271484,1.2779999971389773
1621842902955,-3.2200000286102295,-1.7239999771118164,-3.928999900817871,1.491000056266785,-9.465999603271484,1.2779999971389773
1621842902965,-2.309999942779541,-1.2860000133514404,-2.7860000133514404,1.4119999408721924,-9.402999877929688,1.36899995803833
1621842902975,-1.190000057220459,-1.2779999971389773,-2.428999900817871,1.4119999408721924,-9.357000350952148,1.337000012397766
1621842902985,0.4900000095367431,-1.0549999475479126,-2.88700008392334,1.3730000257492063,-9.447999954223633,1.4010000228881836
1621842902995,1.2599999904632568,-0.6740000247955322,-3.0329999923706055,1.3339999914169312,-9.51900005340576,1.3489999771118164
1621842903005,0.9100000262260436,0.1700000017881393,-3.381999969482422,1.215999960899353,-9.524999618530272,1.3869999647140503
1621842903015,0.9100000262260436,1.3209999799728394,-3.4630000591278076,1.1770000457763672,-9.494000434875488,1.4329999685287476
1621842903025,0.9450000524520874,1.8505001068115232,-3.440999984741211,1.1380000114440918,-9.40999984741211,1.4079999923706057
1621842903035,0.9800000190734864,2.380000114440918,-3.4189999103546143,1.0980000495910645,-9.371000289916992,1.4149999618530271
1621842903045,1.4700000286102295,3.5439999103546143,-3.569000005722046,1.0590000152587893,-9.33899974822998,1.4600000381469729
1621842903050,,,,,,
1621842903055,2.450000047683716,4.739999771118164,-4.709000110626221,1.0199999809265137,-9.300000190734863,1.4670000076293943
1621842903065,3.2899999618530273,6.158999919891357,-6.306000232696533,1.0590000152587893,-9.1850004196167,1.4869999885559082
1621842903075,4.550000190734863,7.01800012588501,-8.357999801635742,1.0590000152587893,-9.190999984741213,1.5260000228881836
1621842903085,6.230000019073486,8.63599967956543,-10.277000427246094,1.1380000114440918,-9.229999542236328,1.5190000534057615
1621842903095,7.489999771118165,9.729999542236328,-11.647000312805176,1.215999960899353,-9.288999557495115,1.628000020980835
1621842903105,8.609999656677246,11.128999710083008,-12.324999809265137,1.2940000295639038,-9.411999702453612,1.6460000276565552
1621842903115,8.960000038146973,11.96399974822998,-13.029999732971191,1.3730000257492063,-9.482000350952148,1.593999981880188
1621842903125,8.819999694824219,12.482999801635742,-13.152000427246094,2.3929998874664307,-9.402999877929688,1.36899995803833
1621842903135,9.380000114440918,13.734000205993652,-5.326000213623047,1.0199999809265137,-9.987000465393066,1.74399995803833
1621842903145,1.5399999618530271,15.843999862670898,7.697999954223632,1.1770000457763672,-9.293999671936035,1.4279999732971191
1621842903155,7.070000171661377,11.494000434875488,-11.97599983215332,1.4119999408721924,-9.553000450134276,1.5420000553131104
1621842903165,8.399999618530273,10.29300022125244,-20.07799911499023,1.72599995136261,-9.755000114440918,1.7849999666213987
1621842903175,5.670000076293945,8.92199993133545,-18.756000518798828,1.687000036239624,-9.449999809265137,1.6399999856948853
1621842903185,7.699999809265136,6.420000076293945,-24.315000534057617,1.843999981880188,-9.496000289916992,1.6710000038146973
1621842903195,7.0,5.271999835968018,-23.451000213623047,1.843999981880188,-9.541000366210936,1.7029999494552612
1621842903205,6.090000152587891,4.340000152587891,-23.402000427246097,1.72599995136261,-9.496000289916992,1.6710000038146973
1621842903215,6.579999923706055,4.067999839782715,-26.292999267578125,1.72599995136261,-9.508999824523924,1.7489999532699585
1621842903224,6.369999885559082,4.22599983215332,-27.18899917602539,1.8040000200271609,-9.638999938964846,1.805999994277954
1621842903234,5.460000038146973,5.4710001945495605,-22.562999725341797,1.8830000162124632,-9.529999732971191,1.8650000095367432
1621842903245,4.829999923706055,5.650000095367432,-18.336999893188477,1.8830000162124632,-9.329999923706056,1.8600000143051147
1621842903254,5.949999809265137,4.243000030517578,-20.43400001525879,1.8040000200271609,-9.01900005340576,1.6759999990463257
1621842903264,8.225000381469727,2.1640000343322754,-25.17200088500977,1.5299999713897705,-9.065999984741213,1.2690000534057615
1621842903274,10.5,0.0850000008940696,-29.90999984741211,2.236000061035156,-10.468000411987305,2.2170000076293945
1621842903284,8.960000038146973,0.8889999985694885,-22.375999450683594,2.3540000915527344,-10.100000381469728,2.1619999408721924
1621842903294,-1.2599999904632568,0.6930000185966491,-6.3460001945495605,2.2750000953674316,-9.847999572753906,2.086999893188477
1621842903304,-2.450000047683716,0.0320000015199184,-4.614999771118164,2.197000026702881,-9.58899974822998,1.9739999771118164
1621842903314,-3.849999904632568,-0.0209999997168779,-5.120999813079834,2.0399999618530273,-9.788999557495115,1.9780000448226929
1621842903324,-5.25,-0.1230000033974647,-7.769000053405762,2.0399999618530273,-9.79599952697754,2.0169999599456787
1621842903334,-8.260000228881836,-1.0190000534057615,-9.13599967956543,1.9609999656677248,-9.788999557495115,1.9780000448226929
1621842903344,-10.149999618530272,-1.6399999856948853,-10.45400047302246,1.9220000505447388,-9.781999588012695,1.940000057220459
1621842903354,-10.779999732971191,-2.000999927520752,-10.020000457763672,1.9609999656677248,-9.762000083923342,1.8240000009536743
1621842903364,-10.710000038146973,-2.5959999561309814,-5.433000087738037,1.843999981880188,-9.619000434875488,1.690000057220459
1621842903374,-10.359999656677246,-1.9099999666213987,-1.2610000371932983,1.72599995136261,-9.387000083923342,1.7309999465942385
1621842903384,-9.800000190734863,-0.5109999775886535,-0.7300000190734863,1.72599995136261,-9.46399974822998,1.7170000076293943
1621842903394,-10.289999961853027,1.8940000534057615,-0.6610000133514404,1.7649999856948853,-9.541000366210936,1.7029999494552612
1621842903404,-11.0600004196167,3.5320000648498535,-1.0829999446868896,1.9609999656677248,-9.534000396728516,1.6649999618530271
1621842903414,-11.829999923706056,4.570000171661377,-0.1180000007152557,2.000999927520752,-9.404999732971191,1.6080000400543213
1621842903424,-12.600000381469728,4.513999938964844,2.2170000076293945,1.9609999656677248,-9.437000274658203,1.562000036239624
1621842903434,-13.649999618530272,5.511000156402588,2.6070001125335693,1.8830000162124632,-9.520999908447264,1.587000012397766
1621842903444,-14.5600004196167,6.848999977111816,-0.1430000066757202,1.843999981880188,-9.597999572753906,1.5740000009536743
1621842903454,-15.399999618530272,7.35099983215332,-3.3949999809265137,1.9220000505447388,-9.538999557495115,1.4650000333786013
1621842903464,-15.609999656677246,5.927999973297119,-6.204999923706055,1.9220000505447388,-9.388999938964846,1.2920000553131104
1621842903474,-13.4399995803833,4.5320000648498535,-8.369999885559082,1.9609999656677248,-9.28499984741211,1.1510000228881836
1621842903484,-10.5,1.7630000114440918,-8.786999702453613,2.0789999961853027,-9.18000030517578,1.0099999904632568
1621842903494,-8.470000267028809,-0.6154999732971191,-7.998000144958496,2.118000030517578,-9.22599983215332,1.0420000553131104
1621842903504,-6.440000057220459,-2.99399995803833,-7.209000110626221,2.118000030517578,-9.218999862670898,1.003000020980835
1621842903514,-3.0799999237060547,-8.069999694824219,-4.622000217437744,2.0399999618530273,-9.477999687194824,1.1169999837875366
1621842903524,-0.8399999737739563,-11.755999565124512,-4.276000022888184,3.372999906539917,-9.5600004196167,0.2259999960660934
1621842903534,0.5600000023841857,-14.946999549865724,-3.9149999618530273,2.510999917984009,-9.590999603271484,0.8579999804496765
1621842903544,-1.6100000143051147,-18.892000198364254,1.9290000200271609,2.1570000648498535,-10.057000160217283,1.0149999856948853
1621842903554,-4.130000114440918,-17.944000244140625,-4.6570000648498535,2.549999952316284,-10.824999809265137,1.75600004196167
1621842903564,-10.359999656677246,-15.812999725341797,8.656000137329102,2.1570000648498535,-10.220999717712402,1.2649999856948853
1621842903574,-23.65999984741211,-12.510000228881836,28.215999603271484,2.0399999618530273,-9.128000259399414,0.9399999976158142
1621842903584,-21.0,-12.824000358581545,13.87399959564209,1.8830000162124632,-9.031999588012695,1.0759999752044678
1621842903594,-15.68000030517578,-11.913999557495115,-2.171999931335449,2.197000026702881,-9.61400032043457,1.212000012397766
1621842903604,-16.239999771118164,-9.62600040435791,1.7860000133514404,2.2750000953674316,-9.788999557495115,1.3009999990463257
1621842903614,-20.09000015258789,-9.421999931335447,10.706000328063965,2.118000030517578,-9.562000274658203,1.1419999599456787
1621842903624,-20.579999923706055,-9.782999992370604,9.932000160217283,2.0399999618530273,-9.439000129699709,1.1239999532699585
1621842903634,-19.31999969482422,-10.675999641418455,6.931000232696533,2.118000030517578,-9.61400032043457,1.212000012397766
1621842903644,-19.809999465942383,-10.765000343322754,10.256999969482422,2.1570000648498535,-9.638999938964846,1.128000020980835
1621842903654,-20.93000030517578,-11.01099967956543,14.477999687194824,2.0399999618530273,-9.54800033569336,1.065000057220459
1621842903664,-20.299999237060547,-11.355999946594238,14.416999816894531,1.9609999656677248,-9.425999641418455,1.0470000505447388
1621842903674,-19.18000030517578,-11.644000053405762,13.229000091552734,1.9220000505447388,-9.380000114440918,1.0149999856948853
1621842903684,-17.780000686645508,-11.659999847412108,13.723999977111816,1.8830000162124632,-9.335000038146973,0.9829999804496764
1621842903694,-16.520000457763672,-11.295000076293944,14.071999549865724,1.8040000200271609,-9.321000099182127,0.906000018119812
1621842903704,-15.470000267028809,-11.359999656677246,13.633999824523926,1.7649999856948853,-9.39099979400635,0.8529999852180481
1621842903714,-15.399999618530272,-11.230499267578123,13.30150032043457,1.687000036239624,-9.513999938964846,0.871999979019165
1621842903724,-15.329999923706056,-11.10099983215332,12.968999862670898,1.6080000400543213,-9.590999603271484,0.8579999804496765
1621842903734,-15.609999656677246,-10.864999771118164,13.651000022888184,1.5299999713897705,-9.699999809265137,0.7990000247955322
1621842903744,-16.100000381469727,-10.244999885559082,13.760000228881836,1.4509999752044678,-9.725000381469728,0.7149999737739563
1621842903754,-16.8700008392334,-9.633000373840332,13.512999534606934,1.3730000257492063,-9.725000381469728,0.7149999737739563
1621842903764,-17.219999313354492,-8.50100040435791,13.142999649047852,1.2549999952316284,-9.732000350952148,0.7530000209808348
1621842903774,-17.639999389648438,-7.451000213623046,12.831000328063965,1.1770000457763672,-9.75699996948242,0.6690000295639038
1621842903784,-18.1299991607666,-6.5879998207092285,12.770000457763672,1.0980000495910645,-9.781999588012695,0.5849999785423278
1621842903794,-18.829999923706055,-5.38700008392334,12.413000106811523,1.0199999809265137,-9.807000160217283,0.5009999871253967
1621842903804,-19.950000762939453,-4.896999835968018,11.647000312805176,0.981000006198883,-9.793999671936035,0.4239999949932098
1621842903814,-21.350000381469727,-4.366000175476074,11.456000328063965,0.9020000100135804,-9.83199977874756,0.4169999957084655
1621842903824,-22.61000061035156,-3.4010000228881836,11.62600040435791,0.7850000262260437,-9.86400032043457,0.3720000088214874
1621842903834,-23.450000762939453,-2.438999891281128,12.222000122070312,0.6669999957084655,-9.779999732971191,0.3470000028610229
1621842903844,-23.65999984741211,-1.6039999723434448,12.725000381469728,0.5099999904632568,-9.734999656677246,0.3149999976158142
1621842903854,-23.520000457763672,-0.0469999983906745,13.567999839782717,0.3529999852180481,-9.696000099182127,0.3219999969005584
1621842903864,-22.81999969482422,1.5670000314712524,14.491999626159668,0.1959999948740005,-9.734999656677246,0.3149999976158142
1621842903874,-22.61000061035156,3.4210000038146973,15.671999931335447,0.0780000016093254,-9.727999687194824,0.2759999930858612
1621842903884,-22.1200008392334,5.2779998779296875,16.426000595092773,0.0,-9.64400005340576,0.2509999871253967
1621842903894,-21.559999465942383,7.111000061035156,16.108999252319336,-0.0780000016093254,-9.585000038146973,0.1420000046491622
1621842903904,-20.510000228881836,8.92300033569336,15.505000114440918,-0.0780000016093254,-9.454999923706056,0.0850000008940696
1621842903914,-19.635000228881836,9.486499786376951,14.325000762939451,-0.0780000016093254,-9.397999763488768,0.2150000035762786
1621842903924,-18.760000228881836,10.050000190734863,13.145000457763672,-0.0390000008046627,-9.32800006866455,0.2669999897480011
1621842903934,-16.520000457763672,11.505000114440918,10.131999969482422,0.0,-9.335000038146973,0.3059999942779541
1621842903944,-14.279999732971191,12.692999839782717,7.427000045776368,0.0780000016093254,-9.411999702453612,0.2919999957084655
1621842903954,-12.8100004196167,13.892999649047852,4.6529998779296875,0.1570000052452087,-9.5600004196167,0.2259999960660934
1621842903964,-12.390000343322754,14.45199966430664,2.690999984741211,0.2349999994039535,-9.746000289916992,0.1539999991655349
1621842903974,-13.090000152587892,14.444000244140623,1.125,0.2750000059604644,-9.862000465393066,0.1330000013113021
1621842903984,-13.93000030517578,14.663000106811523,-0.1159999966621398,0.3529999852180481,-9.862000465393066,0.1330000013113021
1621842903994,-14.630000114440918,14.958999633789064,-0.9869999885559082,0.3529999852180481,-9.815999984741213,0.101000003516674
1621842904004,-14.630000114440918,15.489999771118164,-2.385999917984009,0.3529999852180481,-9.623000144958496,0.135000005364418
1621842904014,-13.720000267028809,16.110000610351562,-3.484999895095825,0.3529999852180481,-9.47599983215332,0.2010000050067901
1621842904024,-11.619999885559082,17.67099952697754,-4.276000022888184,0.3529999852180481,-9.276000022888184,0.1969999969005584
1621842904034,-8.75,19.211999893188477,-5.355000019073486,0.3529999852180481,-9.197999954223633,0.209999993443489
1621842904044,-6.440000057220459,21.11400032043457,-5.659999847412109,0.3529999852180481,-9.244000434875488,0.2419999986886978
1621842904054,-4.829999923706055,22.29800033569336,-5.521999835968018,0.3919999897480011,-9.359999656677246,0.2220000028610229
1621842904057,,,,,,
1621842904064,-4.269999980926514,23.141000747680664,-4.6620001792907715,0.4309999942779541,-9.520999908447264,0.2329999953508377
1621842904074,-3.9200000762939458,23.44499969482422,-3.9690001010894775,0.4309999942779541,-9.604999542236328,0.2579999864101409
1621842904084,-3.2899999618530273,23.437000274658203,-3.1170001029968266,0.4709999859333038,-9.64400005340576,0.2509999871253967
1621842904094,-2.5899999141693115,23.385000228881836,-2.4159998893737793,0.4709999859333038,-9.630000114440918,0.1739999949932098
1621842904104,-1.4700000286102295,23.246999740600582,-1.2319999933242798,0.4709999859333038,-9.597999572753906,0.2189999967813491
1621842904114,-0.5600000023841857,22.464000701904297,-1.2280000448226929,0.4309999942779541,-9.604999542236328,0.2579999864101409
1621842904124,0.2449999749660491,22.225000381469727,-1.4835000038146973,0.4309999942779541,-9.565999984741213,0.2649999856948852
1621842904134,1.0499999523162842,21.986000061035156,-1.7389999628067017,0.3919999897480011,-9.572999954223633,0.3039999902248382
1621842904144,2.0999999046325684,21.150999069213867,-2.240999937057495,0.4309999942779541,-9.572999954223633,0.3039999902248382
1621842904154,3.2899999618530273,20.246000289916992,-2.75600004196167,0.3919999897480011,-9.772999763488768,0.3079999983310699
1621842904164,3.5,19.58099937438965,-3.0160000324249268,0.4309999942779541,-9.95300006866455,0.1969999969005584
1621842904174,2.940000057220459,18.839000701904297,-3.6440000534057617,0.5099999904632568,-10.04800033569336,0.0599999986588954
1621842904184,1.6799999475479126,17.878000259399414,-4.239999771118164,0.5099999904632568,-10.27299976348877,-0.0189999993890523
1621842904194,-0.9100000262260436,16.860000610351562,-4.916999816894531,0.5099999904632568,-10.505000114440918,-0.0599999986588954
1621842904204,-3.849999904632568,16.06100082397461,-5.626999855041504,0.5490000247955322,-10.58899974822998,-0.0350000001490116
1621842904214,-7.349999904632568,15.253999710083008,-6.692999839782715,0.5879999995231628,-10.491000175476074,-0.1369999945163726
1621842904224,-10.640000343322754,14.442999839782717,-7.333000183105469,0.6669999957084655,-10.369000434875488,-0.1550000011920929
1621842904234,-13.510000228881836,14.159000396728516,-7.738999843597413,0.7059999704360961,-10.130000114440918,-0.152999997138977
1621842904244,-15.119999885559082,13.972000122070312,-7.486999988555909,0.7059999704360961,-9.937000274658203,-0.1190000027418136
1621842904254,-15.1899995803833,14.032999992370604,-6.624000072479248,0.6669999957084655,-9.460000038146973,-0.1150000020861625
1621842904264,-14.770000457763672,13.883999824523926,-5.370999813079834,0.6669999957084655,-9.267000198364256,-0.0810000002384185
1621842904274,-13.649999618530272,13.652999877929688,-2.8529999256134033,0.6280000209808348,-9.196000099182127,-0.0280000008642673
1621842904284,-12.039999961853027,13.43000030517578,-1.1859999895095823,0.5099999904632568,-9.086999893188477,0.0309999994933605
1621842904294,-10.43000030517578,13.51099967956543,-0.0340000018477439,0.4709999859333038,-9.093999862670898,0.0689999982714653
1621842904304,-8.609999656677246,13.291999816894531,1.2070000171661377,0.4709999859333038,-9.093999862670898,0.0689999982714653
1621842904314,-6.579999923706055,13.340999603271484,2.138999938964844,0.4309999942779541,-9.178000450134276,0.0939999967813491
1621842904324,-5.739999771118164,13.353500366210936,2.069999933242798,0.3529999852180481,-9.300999641418455,0.1129999980330467
1621842904334,-4.900000095367432,13.366000175476074,2.000999927520752,0.3140000104904174,-9.345999717712402,0.1439999938011169
1621842904344,-3.569999933242798,12.769000053405762,1.7539999485015867,0.3140000104904174,-9.392000198364256,0.1759999990463256
1621842904354,-1.9600000381469729,12.935999870300291,1.2150000333786013,0.3140000104904174,-9.50100040435791,0.1169999986886978
1621842904364,-0.2800000011920929,13.008999824523926,0.8009999990463256,0.2349999994039535,-9.654999732971191,0.0900000035762786
1621842904374,1.4700000286102295,13.036999702453612,0.2370000034570694,0.2349999994039535,-9.939000129699709,0.1199999973177909
1621842904384,2.7300000190734863,13.71399974822998,-0.7799999713897705,0.1959999948740005,-10.178000450134276,0.1169999986886978
1621842904394,3.569999933242798,14.237000465393066,-1.3279999494552612,0.1570000052452087,-10.300000190734863,0.1360000073909759
1621842904404,3.2200000286102295,14.687000274658203,-1.462000012397766,0.1570000052452087,-10.293999671936035,0.0970000028610229
1621842904414,1.75,14.744000434875488,-1.38100004196167,0.1959999948740005,-10.286999702453612,0.0579999983310699
1621842904424,-0.4199999868869781,15.125,-1.5269999504089355,0.1959999948740005,-10.312000274658203,-0.0260000005364418
1621842904434,-3.009999990463257,15.088000297546388,-1.3200000524520874,0.1959999948740005,-10.29800033569336,-0.1030000001192092
1621842904444,-6.090000152587891,14.934000015258787,-2.058000087738037,0.2349999994039535,-10.291000366210936,-0.1420000046491622
1621842904454,-8.399999618530273,14.812999725341797,-2.5769999027252197,0.2750000059604644,-10.22599983215332,-0.289000004529953
1621842904464,-10.779999732971191,14.503999710083008,-2.8450000286102295,0.3140000104904174,-10.135000228881836,-0.3529999852180481
1621842904474,-12.25,13.77400016784668,-2.3340001106262207,0.3140000104904174,-10.01200008392334,-0.3709999918937683
1621842904484,-13.4399995803833,13.133999824523926,-1.5219999551773071,0.3140000104904174,-9.829999923706056,-0.4990000128746032
1621842904494,-13.93000030517578,12.095999717712402,-0.0710000023245811,0.3140000104904174,-9.70699977874756,-0.5170000195503234
1621842904504,-13.579999923706056,11.008999824523926,0.4490000009536743,0.3140000104904174,-9.571000099182127,-0.6119999885559082
1621842904514,-12.600000381469728,10.612000465393066,-0.1190000027418136,0.2349999994039535,-9.487000465393066,-0.637000024318695
1621842904524,-12.31999969482422,10.385000228881836,-0.4435000121593475,0.2349999994039535,-9.472999572753906,-0.7139999866485595
1621842904534,-12.039999961853027,10.157999992370604,-0.7680000066757202,0.2349999994039535,-9.388999938964846,-0.7390000224113464
1621842904544,-10.989999771118164,9.727999687194824,-1.5540000200271606,0.1959999948740005,-9.343999862670898,-0.7710000276565551
1621842904554,-9.9399995803833,9.512999534606934,-1.9479999542236328,0.1959999948740005,-9.312000274658203,-0.7260000109672546
1621842904564,-8.399999618530273,8.810999870300293,-2.0,0.1959999948740005,-9.319000244140623,-0.6869999766349792
1621842904574,-6.159999847412109,8.413999557495117,-1.3600000143051147,0.1959999948740005,-9.357999801635742,-0.6940000057220459
1621842904584,-4.269999980926514,7.967999935150147,-0.4429999887943267,0.1959999948740005,-9.479999542236328,-0.6759999990463256
1621842904594,-3.430000066757202,6.85699987411499,0.2140000015497207,0.2349999994039535,-9.602999687194824,-0.6579999923706054
1621842904604,-2.799999952316284,5.692999839782715,0.363999992609024,0.2349999994039535,-9.647999763488768,-0.6259999871253967
1621842904614,-2.380000114440918,4.335000038146973,0.4090000092983245,0.2349999994039535,-9.694000244140623,-0.5939999818801879
1621842904624,-2.1700000762939453,3.240000009536743,0.5709999799728394,0.1959999948740005,-9.661999702453612,-0.5490000247955322
1621842904634,-1.6100000143051147,1.7150000333786013,-0.0529999993741512,0.1959999948740005,-9.616999626159668,-0.5799999833106994
1621842904644,-1.2599999904632568,0.0240000002086162,-0.1379999965429306,0.1959999948740005,-9.616999626159668,-0.5799999833106994
1621842904654,-0.5600000023841857,-1.0950000286102295,-1.0460000038146973,0.1959999948740005,-9.654999732971191,-0.5870000123977661
1621842904664,-0.4199999868869781,-2.684999942779541,-2.1080000400543213,0.1180000007152557,-9.654999732971191,-0.5870000123977661
1621842904674,-0.2800000011920929,-3.549000024795532,-3.25600004196167,0.1180000007152557,-9.654999732971191,-0.5870000123977661
1621842904684,-0.4199999868869781,-4.006999969482422,-3.4790000915527344,0.0780000016093254,-9.661999702453612,-0.5490000247955322
1621842904694,-0.5600000023841857,-4.60699987411499,-3.299999952316284,0.0780000016093254,-9.70699977874756,-0.5170000195503234
1621842904704,-0.4199999868869781,-5.118000030517578,-2.822000026702881,0.0780000016093254,-9.668999671936035,-0.5099999904632568
1621842904714,-0.7699999809265136,-5.336999893188477,-2.7890000343322754,0.0390000008046627,-9.668999671936035,-0.5099999904632568
1621842904724,-0.8049999475479126,-5.387499809265137,-2.9045000076293945,0.0390000008046627,-9.668999671936035,-0.5099999904632568
1621842904734,-0.8399999737739563,-5.438000202178955,-3.0199999809265137,0.0,-9.637000083923342,-0.4639999866485595
1621842904744,-0.4199999868869781,-5.605000019073486,-3.688999891281128,0.0,-9.64400005340576,-0.4259999990463256
1621842904754,-0.1400000005960464,-5.251999855041504,-4.480000019073486,-0.0390000008046627,-9.656999588012695,-0.3490000069141387
1621842904764,0.0700000002980232,-4.867000102996826,-5.052000045776367,-0.0390000008046627,-9.689000129699709,-0.3939999938011169
1621842904774,0.5600000023841857,-4.2789998054504395,-5.160999774932861,-0.0390000008046627,-9.727999687194824,-0.4009999930858612
1621842904784,0.9800000190734864,-3.861000061035156,-5.513999938964844,-0.0390000008046627,-9.727999687194824,-0.4009999930858612
1621842904794,1.3300000429153442,-3.2160000801086426,-5.543000221252441,-0.0390000008046627,-9.85099983215332,-0.3829999864101409
1621842904804,1.75,-2.628000020980835,-5.6519999504089355,-0.0390000008046627,-9.85099983215332,-0.3829999864101409
1621842904814,1.4700000286102295,-1.881999969482422,-5.449999809265137,-0.0390000008046627,-9.857000350952148,-0.3440000116825103
1621842904824,1.399999976158142,-1.508999943733215,-5.953000068664551,0.0,-9.85099983215332,-0.3829999864101409
1621842904834,0.8399999737739563,-0.9739999771118164,-5.361000061035156,0.0390000008046627,-9.812000274658203,-0.3759999871253967
1621842904844,0.1400000005960464,-0.3210000097751617,-5.0320000648498535,0.0,-9.812000274658203,-0.3759999871253967
1621842904854,-0.4199999868869781,0.2300000041723251,-4.934999942779541,0.0,-9.819000244140623,-0.3370000123977661
1621842904864,-0.8399999737739563,0.5180000066757202,-4.954999923706055,0.0,-9.812000274658203,-0.3759999871253967
1621842904874,-1.4700000286102295,0.7009999752044677,-4.781000137329102,0.0390000008046627,-9.812000274658203,-0.3759999871253967
1621842904884,-1.9600000381469729,1.1139999628067017,-4.708000183105469,0.0390000008046627,-9.767000198364256,-0.4079999923706054
1621842904894,-2.240000009536743,1.0010000467300415,-4.869999885559082,0.0390000008046627,-9.772999763488768,-0.3689999878406524
1621842904904,-2.309999942779541,0.3799999952316284,-4.980000019073486,0.0780000016093254,-9.734999656677246,-0.3619999885559082
1621842904914,-2.309999942779541,0.4410000145435333,-5.323999881744385,0.0390000008046627,-9.734999656677246,-0.3619999885559082
1621842904924,-2.240000009536743,0.2339999973773956,-5.361000061035156,0.0390000008046627,-9.70300006866455,-0.31700000166893
1621842904934,-2.0299999713897705,0.027499996125698,-5.397500038146973,0.0390000008046627,-9.656999588012695,-0.3490000069141387
1621842904944,-1.8200000524520872,-0.1790000051259994,-5.434000015258789,0.0780000016093254,-9.689000129699709,-0.3939999938011169
1621842904954,-1.6799999475479126,-0.2440000027418136,-5.872000217437744,0.0780000016093254,-9.727999687194824,-0.4009999930858612
1621842904963,-1.2599999904632568,-0.8889999985694885,-5.8429999351501465,0.0780000016093254,-9.720999717712402,-0.4390000104904174
1621842904973,-0.9800000190734864,-1.4320000410079956,-5.584000110626221,0.0780000016093254,-9.71399974822998,-0.4779999852180481
1621842904983,-0.9100000262260436,-1.7400000095367432,-5.85099983215332,0.0780000016093254,-9.71399974822998,-0.4779999852180481
1621842904993,-0.9100000262260436,-1.9149999618530271,-5.669000148773193,0.0780000016093254,-9.70699977874756,-0.5170000195503234
1621842905003,-0.699999988079071,-2.7739999294281006,-6.0329999923706055,0.0390000008046627,-9.71399974822998,-0.4779999852180481
1621842905013,-0.5600000023841857,-2.384999990463257,-5.822999954223633,0.0,-9.71399974822998,-0.4779999852180481
1621842905023,-0.7699999809265136,-2.288000106811523,-6.374000072479248,0.0,-9.668999671936035,-0.5099999904632568
1621842905033,-0.5600000023841857,-1.878000020980835,-7.084000110626221,-0.0390000008046627,-9.767000198364256,-0.4079999923706054
1621842905043,-0.699999988079071,-0.6169999837875366,-7.7849998474121085,-0.0780000016093254,-9.79800033569336,-0.453000009059906
1621842905053,-0.7699999809265136,0.1449999958276748,-8.07800006866455,-0.1180000007152557,-9.829999923706056,-0.4990000128746032
1621842905063,-0.699999988079071,0.8909999728202819,-7.875,-0.1180000007152557,-9.78499984741211,-0.5299999713897705
1621842905064,,,,,,
1621842905073,-0.699999988079071,1.9409999847412107,-6.979000091552734,-0.0780000016093254,-9.70699977874756,-0.5170000195503234
1621842905083,0.0,2.3670001029968266,-5.767000198364258,-0.0390000008046627,-9.668999671936035,-0.5099999904632568
1621842905093,0.8399999737739563,2.193000078201294,-4.375999927520752,-0.0390000008046627,-9.682000160217283,-0.4329999983310699
1621842905103,1.2599999904632568,1.8890000581741333,-5.068999767303467,0.0,-9.597999572753906,-0.4580000042915344
1621842905113,1.6799999475479126,2.115999937057495,-5.953000068664551,0.0,-9.604999542236328,-0.4189999997615814
1621842905123,2.240000009536743,1.937000036239624,-6.552999973297119,0.0,-9.5600004196167,-0.4510000050067901
1621842905133,2.799999952316284,1.5640000104904177,-7.258999824523927,0.0390000008046627,-9.604999542236328,-0.4189999997615814
1621842905143,2.9749999046325684,1.3470000028610227,-7.439000129699707,0.0390000008046627,-9.682000160217283,-0.4329999983310699
1621842905153,3.1500000953674316,1.1299999952316284,-7.618999958038329,0.0390000008046627,-9.727999687194824,-0.4009999930858612
1621842905163,2.7300000190734863,0.4569999873638153,-7.0269999504089355,-0.0390000008046627,-9.753000259399414,-0.4850000143051147
1621842905173,2.5199999809265137,0.4900000095367431,-6.808000087738037,-0.0390000008046627,-9.836999893188477,-0.4600000083446502
1621842905183,1.5399999618530271,0.1330000013113021,-6.800000190734863,-0.0390000008046627,-9.88199996948242,-0.4280000030994415
1621842905193,0.9800000190734864,0.2179999947547912,-6.073999881744385,-0.0390000008046627,-9.928000450134276,-0.3959999978542327
1621842905203,0.209999993443489,0.6520000100135803,-5.714000225067139,-0.0780000016093254,-9.960000038146973,-0.44200000166893
1621842905213,-0.8399999737739563,1.1100000143051147,-5.491000175476074,-0.0780000016093254,-9.991999626159668,-0.4869999885559082
1621842905223,-1.75,1.6410000324249268,-5.681000232696533,-0.1180000007152557,-9.92099952697754,-0.4350000023841857
1621842905233,-2.240000009536743,2.0190000534057617,-5.4019999504089355,-0.1180000007152557,-9.843999862670898,-0.4210000038146972
1621842905243,-2.7300000190734863,2.4690001010894775,-5.534999847412109,-0.1180000007152557,-9.79800033569336,-0.453000009059906
1621842905253,-2.450000047683716,3.303999900817871,-6.241000175476074,-0.1180000007152557,-9.767000198364256,-0.4079999923706054
1621842905263,-2.0299999713897705,4.013000011444092,-7.039999961853027,-0.1570000052452087,-9.720999717712402,-0.4390000104904174
1621842905273,-1.3300000429153442,4.4029998779296875,-8.038000106811523,-0.1180000007152557,-9.597999572753906,-0.4580000042915344
1621842905283,-0.4199999868869781,4.783999919891357,-8.184000015258789,-0.1180000007152557,-9.579999923706056,-0.3350000083446502
1621842905293,0.1400000005960464,5.056000232696533,-7.709000110626221,-0.1180000007152557,-9.651000022888184,-0.3869999945163726
1621842905303,0.9800000190734864,5.116000175476074,-8.053999900817871,-0.0390000008046627,-9.585000038146973,-0.5350000262260437
1621842905313,1.1200000047683716,5.546000003814697,-8.47599983215332,0.0,-9.682000160217283,-0.4329999983310699
1621842905323,1.3300000429153442,6.215000152587891,-8.642000198364258,0.0,-9.720999717712402,-0.4390000104904174
1621842905333,0.9100000262260436,5.814000129699707,-8.784000396728516,0.0,-9.727999687194824,-0.4009999930858612
1621842905343,0.6299999952316284,5.869999885559082,-8.70300006866455,0.0390000008046627,-9.760000228881836,-0.4460000097751617
1621842905353,-0.1400000005960464,6.198999881744385,-8.147000312805176,0.0,-9.80500030517578,-0.414000004529953
1621842905363,-0.2800000011920929,6.438000202178955,-7.892000198364258,0.0,-9.772999763488768,-0.3689999878406524
1621842905373,-0.209999993443489,6.0329999923706055,-7.607999801635742,0.0,-9.772999763488768,-0.3689999878406524
1621842905383,-0.4199999868869781,6.1020002365112305,-7.5959997177124015,0.0,-9.812000274658203,-0.3759999871253967
1621842905393,-0.6299999952316284,6.171000003814697,-7.584000110626221,0.0,-9.772999763488768,-0.3689999878406524
1621842905403,-1.190000057220459,6.421999931335449,-7.396999835968018,0.0,-9.772999763488768,-0.3689999878406524
1621842905413,-1.190000057220459,6.5269999504089355,-7.592000007629395,0.0,-9.772999763488768,-0.3689999878406524
1621842905423,-1.6799999475479126,6.579999923706055,-7.085000038146973,-0.0390000008046627,-9.779999732971191,-0.3300000131130218
1621842905433,-2.0999999046325684,5.910999774932861,-6.919000148773193,-0.0390000008046627,-9.772999763488768,-0.3689999878406524
1621842905443,-2.240000009536743,5.8379998207092285,-6.505000114440918,-0.0780000016093254,-9.720999717712402,-0.4390000104904174
1621842905453,-2.1700000762939453,5.870999813079834,-6.285999774932861,-0.1180000007152557,-9.727999687194824,-0.4009999930858612
1621842905463,-2.450000047683716,6.118000030517578,-6.881999969482422,-0.1570000052452087,-9.779999732971191,-0.3300000131130218
1621842905473,-2.6600000858306885,7.703999996185303,-6.603000164031982,-0.2349999994039535,-9.812000274658203,-0.3759999871253967
1621842905483,-2.940000057220459,8.770000457763672,-6.201000213623047,-0.2750000059604644,-9.812000274658203,-0.3759999871253967
1621842905493,-2.869999885559082,10.630999565124512,-5.873000144958496,-0.2750000059604644,-9.812000274658203,-0.3759999871253967
1621842905503,-3.009999990463257,12.001999855041504,-5.986999988555908,-0.2750000059604644,-9.772999763488768,-0.3689999878406524
1621842905513,-3.0799999237060547,13.02400016784668,-5.736000061035156,-0.2349999994039535,-9.772999763488768,-0.3689999878406524
1621842905523,-3.1500000953674316,13.968999862670898,-5.853000164031982,-0.1959999948740005,-9.727999687194824,-0.4009999930858612
1621842905533,-3.0799999237060547,14.666000366210938,-5.375,-0.1959999948740005,-9.767000198364256,-0.4079999923706054
1621842905543,-3.2200000286102295,14.72700023651123,-5.71999979019165,-0.1570000052452087,-9.767000198364256,-0.4079999923706054
1621842905553,-3.2899999618530273,14.649999618530272,-6.089000225067139,-0.0780000016093254,-9.767000198364256,-0.4079999923706054
1621842905563,-3.5,13.9399995803833,-5.289999961853027,-0.0780000016093254,-9.772999763488768,-0.3689999878406524
1621842905573,-3.6400001049041744,13.145999908447266,-5.2170000076293945,-0.0390000008046627,-9.80500030517578,-0.414000004529953
1621842905583,-3.7100000381469727,11.986000061035156,-5.492000102996826,0.0,-9.791999816894531,-0.492000013589859
1621842905593,-3.9200000762939458,11.045000076293944,-5.800000190734863,0.0390000008046627,-9.78499984741211,-0.5299999713897705
1621842905603,-3.9549999237060542,10.357500076293944,-6.134500026702881,0.0390000008046627,-9.73900032043457,-0.5619999766349792
1621842905613,-3.990000009536743,9.670000076293944,-6.468999862670898,0.0780000016093254,-9.777999877929688,-0.5690000057220459
1621842905623,-4.269999980926514,8.376999855041504,-7.195000171661377,0.1180000007152557,-9.81700038909912,-0.5759999752044677
1621842905633,-4.760000228881836,7.168000221252441,-7.195000171661377,0.1180000007152557,-9.732000350952148,-0.6010000109672546
1621842905643,-4.409999847412109,5.586999893188477,-6.691999912261963,0.1180000007152557,-9.687000274658203,-0.6330000162124633
1621842905653,-3.6400001049041744,4.138999938964844,-5.73799991607666,0.0780000016093254,-9.571000099182127,-0.6119999885559082
1621842905663,-3.0799999237060547,3.0409998893737793,-5.150000095367432,0.0780000016093254,-9.526000022888184,-0.6439999938011169
1621842905673,-2.309999942779541,2.4730000495910645,-4.752999782562256,0.0390000008046627,-9.538999557495115,-0.5669999718666076
1621842905683,-1.2599999904632568,2.0840001106262207,-4.964000225067139,0.0,-9.54599952697754,-0.527999997138977
1621842905693,-0.1400000005960464,1.649999976158142,-5.323999881744385,0.0,-9.526000022888184,-0.6439999938011169
1621842905703,0.9800000190734864,1.5160000324249268,-5.775000095367432,-0.0390000008046627,-9.564000129699709,-0.6510000228881835
1621842905713,1.6100000143051147,1.366000056266785,-5.730000019073486,-0.0780000016093254,-9.602999687194824,-0.6579999923706054
1621842905723,2.450000047683716,1.8519999980926511,-6.071000099182129,-0.1180000007152557,-9.687000274658203,-0.6330000162124633
1621842905733,2.5899999141693115,1.9329999685287476,-6.126999855041504,-0.1570000052452087,-9.732000350952148,-0.6010000109672546
1621842905743,2.1700000762939453,2.197000026702881,-6.010000228881836,-0.1570000052452087,-9.73900032043457,-0.5619999766349792
1621842905753,2.1700000762939453,2.5209999084472656,-6.236999988555908,-0.1180000007152557,-9.78499984741211,-0.5299999713897705
1621842905763,1.9600000381469729,2.7850000858306885,-6.11899995803833,-0.1570000052452087,-9.829999923706056,-0.4990000128746032
1621842905773,1.9600000381469729,3.546999931335449,-6.410999774932861,-0.1570000052452087,-9.829999923706056,-0.4990000128746032
1621842905783,1.75,4.046000003814697,-6.821000099182129,-0.1180000007152557,-9.79800033569336,-0.453000009059906
1621842905793,1.4700000286102295,4.552999973297119,-6.874000072479248,-0.1570000052452087,-9.760000228881836,-0.4460000097751617
1621842905803,1.0499999523162842,4.876999855041504,-7.10099983215332,-0.1570000052452087,-9.791999816894531,-0.492000013589859
1621842905813,0.9800000190734864,5.322999954223633,-6.809000015258789,-0.1570000052452087,-9.760000228881836,-0.4460000097751617
1621842905823,0.8399999737739563,5.729000091552734,-7.0929999351501465,-0.1570000052452087,-9.760000228881836,-0.4460000097751617
1621842905833,0.699999988079071,5.850500106811523,-7.177999973297119,-0.1180000007152557,-9.79800033569336,-0.453000009059906
1621842905843,0.5600000023841857,5.9720001220703125,-7.263000011444091,-0.1180000007152557,-9.753000259399414,-0.4850000143051147
1621842905853,0.0700000002980232,6.386000156402588,-7.190000057220459,-0.0390000008046627,-9.78499984741211,-0.5299999713897705
1621842905863,-0.209999993443489,6.620999813079834,-6.508999824523926,-0.0390000008046627,-9.753000259399414,-0.4850000143051147
1621842905873,-0.2800000011920929,6.89300012588501,-6.034999847412109,-0.0390000008046627,-9.753000259399414,-0.4850000143051147
1621842905883,-0.209999993443489,7.1479997634887695,-6.27400016784668,-0.0390000008046627,-9.753000259399414,-0.4850000143051147
1621842905893,0.0700000002980232,7.116000175476074,-6.493000030517578,-0.0390000008046627,-9.71399974822998,-0.4779999852180481
1621842905903,0.0,7.297999858856201,-6.318999767303467,0.0,-9.71399974822998,-0.4779999852180481
1621842905913,0.0,7.561999797821045,-6.201000213623047,0.0,-9.70699977874756,-0.5170000195503234
1621842905923,0.6299999952316284,7.581999778747559,-5.913000106811523,0.0,-9.668999671936035,-0.5099999904632568
1621842905933,1.2599999904632568,7.241000175476073,-5.190999984741211,-0.0390000008046627,-9.637000083923342,-0.4639999866485595
1621842905943,1.4700000286102295,7.197000026702881,-5.341000080108643,-0.0390000008046627,-9.637000083923342,-0.4639999866485595
1621842905953,1.8899999856948853,7.059000015258789,-5.366000175476074,-0.0390000008046627,-9.637000083923342,-0.4639999866485595
1621842905963,2.0999999046325684,7.244999885559082,-5.617000102996826,-0.0390000008046627,-9.668999671936035,-0.5099999904632568
1621842905973,2.5199999809265137,7.432000160217285,-5.86899995803833,-0.0780000016093254,-9.675999641418455,-0.4709999859333038
1621842905983,3.009999990463257,7.6020002365112305,-5.625,-0.0780000016093254,-9.682000160217283,-0.4329999983310699
1621842905993,2.869999885559082,7.550000190734864,-6.131999969482422,-0.0780000016093254,-9.734999656677246,-0.3619999885559082
1621842906003,3.0799999237060547,7.390999794006347,-6.443999767303467,-0.0780000016093254,-9.696000099182127,-0.3549999892711639
1621842906013,3.1500000953674316,7.265999794006347,-6.538000106811523,-0.0390000008046627,-9.710000038146973,-0.277999997138977
1621842906023,3.1500000953674316,7.244999885559082,-6.826000213623047,-0.0390000008046627,-9.786999702453612,-0.2919999957084655
1621842906033,3.0799999237060547,7.119999885559082,-6.919000148773193,-0.0390000008046627,-9.793999671936035,-0.2529999911785125
1621842906043,2.6600000858306885,6.892000198364258,-7.243000030517577,-0.0390000008046627,-9.83199977874756,-0.2599999904632568
1621842906053,2.380000114440918,6.517000198364258,-7.131500244140625,-0.0780000016093254,-9.83199977874756,-0.2599999904632568
1621842906063,2.0999999046325684,6.142000198364258,-7.019999980926514,-0.0390000008046627,-9.86400032043457,-0.3050000071525573
1621842906071,,,,,,
1621842906073,1.75,5.703999996185303,-6.954999923706055,-0.0780000016093254,-9.80500030517578,-0.414000004529953
1621842906083,1.0499999523162842,4.7270002365112305,-7.056000232696533,-0.0780000016093254,-9.85099983215332,-0.3829999864101409
1621842906093,0.0700000002980232,4.138999938964844,-6.947000026702881,-0.0780000016093254,-9.812000274658203,-0.3759999871253967
1621842906103,-0.209999993443489,3.8310000896453857,-7.21400022506714,-0.0780000016093254,-9.779999732971191,-0.3300000131130218
1621842906113,-0.6299999952316284,3.566999912261963,-7.331999778747559,-0.1180000007152557,-9.734999656677246,-0.3619999885559082
1621842906123,-0.9800000190734864,3.2019999027252197,-7.681000232696533,-0.1180000007152557,-9.70300006866455,-0.31700000166893
1621842906133,-1.1200000047683716,3.0199999809265137,-7.855000019073486,-0.1570000052452087,-9.748000144958496,-0.2849999964237213
1621842906143,-0.9800000190734864,3.1449999809265137,-8.970000267028809,-0.1180000007152557,-9.741999626159668,-0.3240000009536743
1621842906153,-0.7699999809265136,3.3320000171661377,-9.222000122070312,-0.1570000052452087,-9.741999626159668,-0.3240000009536743
1621842906163,-0.8399999737739563,3.9560000896453857,-9.538000106811523,-0.1570000052452087,-9.696000099182127,-0.3549999892711639
1621842906173,-0.699999988079071,4.105999946594238,-9.583000183105469,-0.1570000052452087,-9.619000434875488,-0.3420000076293945
1621842906183,-0.5600000023841857,4.459000110626221,-9.16499996185303,-0.1570000052452087,-9.619000434875488,-0.3420000076293945
1621842906193,0.1400000005960464,4.876999855041504,-8.309000015258789,-0.1570000052452087,-9.619000434875488,-0.3420000076293945
1621842906203,0.9800000190734864,4.938000202178955,-7.44600009918213,-0.1180000007152557,-9.656999588012695,-0.3490000069141387
1621842906213,1.4700000286102295,5.064000129699707,-7.3520002365112305,-0.0780000016093254,-9.696000099182127,-0.3549999892711639
1621842906223,1.8200000524520872,5.181000232696533,-7.616000175476073,-0.0390000008046627,-9.734999656677246,-0.3619999885559082
1621842906233,2.1700000762939453,5.1529998779296875,-8.26099967956543,-0.0780000016093254,-9.70300006866455,-0.31700000166893
1621842906243,2.1700000762939453,4.693999767303467,-8.484000205993652,-0.0780000016093254,-9.748000144958496,-0.2849999964237213
1621842906253,2.1700000762939453,4.788000106811523,-8.609000205993652,-0.0780000016093254,-9.717000007629396,-0.2399999946355819
1621842906263,2.0299999713897705,4.670000076293945,-8.345999717712402,-0.0390000008046627,-9.70300006866455,-0.31700000166893
1621842906273,1.9950000047683716,4.53849983215332,-8.404500007629395,0.0,-9.741999626159668,-0.3240000009536743
1621842906283,1.9600000381469729,4.4070000648498535,-8.463000297546387,0.0,-9.696000099182127,-0.3549999892711639
1621842906293,1.8200000524520872,4.061999797821045,-8.52400016784668,-0.0390000008046627,-9.727999687194824,-0.4009999930858612
1621842906303,2.240000009536743,3.559000015258789,-8.897000312805176,-0.0390000008046627,-9.734999656677246,-0.3619999885559082
1621842906313,2.240000009536743,3.8550000190734863,-8.560999870300293,-0.0390000008046627,-9.734999656677246,-0.3619999885559082
1621842906323,2.0999999046325684,3.900000095367432,-8.41100025177002,-0.0390000008046627,-9.696000099182127,-0.3549999892711639
1621842906333,2.380000114440918,4.3420000076293945,-8.901000022888184,0.0,-9.70300006866455,-0.31700000166893
1621842906343,3.009999990463257,3.86299991607666,-8.204000473022461,0.0,-9.656999588012695,-0.3490000069141387
1621842906353,3.6400001049041744,3.700999975204468,-8.09000015258789,0.0,-9.619000434875488,-0.3420000076293945
1621842906363,3.9200000762939458,3.884000062942505,-7.915999889373779,0.0,-9.663999557495115,-0.3100000023841857
1621842906373,4.550000190734863,3.9530000686645503,-7.90399980545044,-0.0390000008046627,-9.651000022888184,-0.3869999945163726
1621842906383,5.110000133514404,3.684999942779541,-7.59600019454956,-0.0390000008046627,-9.656999588012695,-0.3490000069141387
1621842906393,5.389999866485596,3.5799999237060547,-7.401000022888184,0.0,-9.656999588012695,-0.3490000069141387
1621842906403,5.949999809265137,3.072999954223633,-7.348000049591064,0.0390000008046627,-9.663999557495115,-0.3100000023841857
1621842906413,6.230000019073486,2.747999906539917,-7.120999813079834,0.0390000008046627,-9.62600040435791,-0.3030000030994415
1621842906423,6.650000095367432,2.2049999237060547,-6.861000061035156,0.0390000008046627,-9.67099952697754,-0.2709999978542327
1621842906433,7.070000171661377,1.5399999618530271,-7.120999813079834,0.0390000008046627,-9.67099952697754,-0.2709999978542327
1621842906443,7.489999771118165,0.944000005722046,-7.368000030517577,0.0390000008046627,-9.663999557495115,-0.3100000023841857
1621842906453,7.699999809265136,0.6230000257492065,-7.566999912261963,0.0390000008046627,-9.67099952697754,-0.2709999978542327
1621842906463,7.630000114440918,-0.1669999957084655,-7.919000148773193,0.0780000016093254,-9.755000114440918,-0.2460000067949295
1621842906473,7.489999771118165,-0.6050000190734863,-7.854000091552734,0.0780000016093254,-9.800999641418455,-0.2150000035762786
1621842906483,7.279999732971192,-0.9455000162124632,-7.736499786376954,0.0780000016093254,-9.845999717712402,-0.1829999983310699
1621842906493,7.070000171661377,-1.2860000133514404,-7.618999958038329,0.0780000016093254,-9.83899974822998,-0.221000000834465
1621842906503,6.579999923706055,-2.299999952316284,-7.513999938964843,0.0780000016093254,-9.89099979400635,-0.1509999930858612
1621842906513,5.670000076293945,-3.2170000076293945,-7.959000110626221,0.0390000008046627,-9.845999717712402,-0.1829999983310699
1621842906523,4.690000057220459,-3.7560000419616695,-8.12600040435791,0.1180000007152557,-9.859999656677246,-0.1049999967217445
1621842906533,4.130000114440918,-4.692999839782715,-7.651000022888184,0.0780000016093254,-9.821000099182127,-0.0989999994635581
1621842906543,3.9200000762939458,-5.040999889373779,-7.28599977493286,0.0390000008046627,-9.821000099182127,-0.0989999994635581
1621842906553,3.359999895095825,-5.88100004196167,-7.362999916076661,0.0390000008046627,-9.821000099182127,-0.0989999994635581
1621842906563,3.359999895095825,-6.169000148773193,-7.342999935150147,0.0390000008046627,-9.781999588012695,-0.0920000001788139
1621842906573,3.359999895095825,-6.769000053405762,-7.164000034332275,0.0780000016093254,-9.737000465393066,-0.123999997973442
1621842906583,3.5,-7.276000022888184,-7.111000061035156,0.0390000008046627,-9.697999954223633,-0.1169999986886978
1621842906593,3.7799999713897705,-7.681000232696533,-6.828000068664551,0.0390000008046627,-9.65999984741211,-0.1099999994039535
1621842906603,3.990000009536743,-7.880000114440918,-6.506999969482422,0.0390000008046627,-9.666999816894531,-0.0710000023245811
1621842906613,4.619999885559082,-8.682999610900879,-6.790999889373779,0.0390000008046627,-9.666999816894531,-0.0710000023245811
1621842906623,4.900000095367432,-8.954000473022461,-7.264999866485595,0.0,-9.666999816894531,-0.0710000023245811
1621842906633,5.179999828338623,-9.505999565124512,-7.362999916076661,0.0390000008046627,-9.67300033569336,-0.032999999821186
1621842906643,5.320000171661377,-10.12600040435791,-7.472000122070312,0.0780000016093254,-9.711999893188477,-0.0399999991059303
1621842906653,5.460000038146973,-10.439000129699709,-7.314000129699707,0.0390000008046627,-9.711999893188477,-0.0399999991059303
1621842906663,5.670000076293945,-11.225000381469728,-6.883999824523926,0.0390000008046627,-9.788999557495115,-0.0529999993741512
1621842906672,5.670000076293945,-11.696000099182127,-7.038000106811523,0.0,-9.79599952697754,-0.0149999996647238
1621842906682,5.425000190734863,-11.696000099182127,-7.038000106811523,0.0390000008046627,-9.82800006866455,-0.0599999986588954
1621842906693,5.179999828338623,-11.696000099182127,-7.038000106811523,0.0390000008046627,-9.803000450134276,0.0240000002086162
1621842906702,4.96999979019165,-12.486000061035156,-7.390999794006347,0.0390000008046627,-9.840999603271484,0.0170000009238719
1621842906712,4.760000228881836,-12.680999755859377,-7.495999813079834,0.0390000008046627,-9.763999938964846,0.0309999994933605
1621842906722,4.480000019073486,-13.062000274658203,-7.349999904632568,0.0390000008046627,-9.777999877929688,0.1080000028014183
1621842906732,4.059999942779541,-13.661999702453612,-7.171000003814697,-0.0390000008046627,-9.746000289916992,0.1539999991655349
1621842906742,3.849999904632568,-13.788000106811523,-6.056000232696533,-0.0780000016093254,-9.753000259399414,0.19200000166893
1621842906752,3.7100000381469727,-13.682000160217283,-5.043000221252441,-0.1180000007152557,-9.80500030517578,0.2630000114440918
1621842906762,3.849999904632568,-13.649999618530272,-4.823999881744385,-0.1570000052452087,-9.80500030517578,0.2630000114440918
1621842906772,3.849999904632568,-13.508000373840332,-5.224999904632568,-0.1180000007152557,-9.812000274658203,0.3009999990463256
1621842906782,3.2899999618530273,-12.765999794006348,-5.804999828338623,-0.1180000007152557,-9.80500030517578,0.2630000114440918
1621842906792,3.1500000953674316,-12.222999572753906,-6.065000057220459,-0.1180000007152557,-9.812000274658203,0.3009999990463256
1621842906802,2.380000114440918,-11.975000381469728,-6.660999774932861,-0.1180000007152557,-9.812000274658203,0.3009999990463256
1621842906812,1.8899999856948853,-11.687000274658203,-6.681000232696533,-0.1570000052452087,-9.85099983215332,0.2949999868869781
1621842906822,1.8899999856948853,-11.074999809265137,-6.927999973297119,-0.1570000052452087,-9.88199996948242,0.248999997973442
1621842906832,1.399999976158142,-10.94499969482422,-7.261000156402587,-0.1959999948740005,-9.92099952697754,0.2419999986886978
1621842906842,0.0,-9.744999885559082,-7.618000030517577,-0.1959999948740005,-9.965999603271484,0.2739999890327453
1621842906852,-1.1200000047683716,-8.484000205993652,-8.319999694824219,-0.1959999948740005,-10.005000114440918,0.2669999897480011
1621842906862,-2.6600000858306885,-8.123000144958496,-8.753999710083008,-0.1959999948740005,-10.050999641418455,0.2989999949932098
1621842906872,-4.269999980926514,-7.579999923706055,-9.012999534606934,-0.1959999948740005,-10.043999671936035,0.2599999904632568
1621842906882,-5.144999980926514,-7.210999965667725,-9.09000015258789,-0.1570000052452087,-10.076000213623049,0.2150000035762786
1621842906892,-6.019999980926514,-6.8420000076293945,-9.166999816894531,-0.1180000007152557,-10.08199977874756,0.2540000081062316
1621842906902,-7.699999809265136,-6.723999977111816,-9.430999755859377,-0.1180000007152557,-10.08199977874756,0.2540000081062316
1621842906912,-9.65999984741211,-6.368000030517578,-9.439000129699709,-0.1180000007152557,-10.043999671936035,0.2599999904632568
1621842906922,-11.829999923706056,-5.698999881744385,-9.604999542236328,-0.0780000016093254,-9.960000038146973,0.2349999994039535
1621842906932,-12.949999809265137,-5.369999885559082,-10.258000373840332,-0.0390000008046627,-9.906999588012695,0.1650000065565109
1621842906942,-13.720000267028809,-5.11899995803833,-10.071999549865724,-0.0390000008046627,-9.869000434875488,0.1720000058412551
1621842906952,-14.279999732971191,-5.158999919891357,-9.439000129699709,-0.0390000008046627,-9.822999954223633,0.1400000005960464
1621842906962,-14.489999771118164,-4.947999954223633,-9.82900047302246,-0.0390000008046627,-9.701000213623049,0.1220000013709068
1621842906972,-14.420000076293944,-4.303999900817871,-9.857000350952148,-0.0390000008046627,-9.694000244140623,0.0829999968409538
1621842906982,-14.0,-4.077000141143799,-9.532999992370604,-0.0390000008046627,-9.687000274658203,0.0450000017881393
1621842906992,-13.510000228881836,-3.444000005722046,-9.491999626159668,0.0,-9.635000228881836,-0.0260000005364418
1621842907002,-12.670000076293944,-3.066999912261963,-9.213000297546388,0.0390000008046627,-9.628000259399414,-0.0649999976158142
1621842907012,-12.109999656677246,-2.7339999675750732,-9.083000183105469,0.0,-9.58199977874756,-0.096000000834465
1621842907022,-11.0600004196167,-1.9110000133514404,-8.51099967956543,0.0,-9.576000213623049,-0.135000005364418
1621842907032,-9.9399995803833,-1.5499999523162842,-7.736999988555909,0.0390000008046627,-9.607000350952148,-0.1800000071525573
1621842907042,-8.75,-1.116000056266785,-7.375999927520752,0.0780000016093254,-9.569000244140623,-0.1739999949932098
1621842907052,-7.699999809265136,-0.649999976158142,-6.796000003814697,0.0390000008046627,-9.522999763488768,-0.2049999982118606
1621842907062,-6.300000190734863,-0.0209999997168779,-6.329999923706055,0.0,-9.477999687194824,-0.2370000034570694
1621842907072,-5.494999885559082,0.3114999830722808,-6.199999809265137,0.0390000008046627,-9.517000198364256,-0.2440000027418136
1621842907079,,,,,,
1621842907082,-4.690000057220459,0.6439999938011169,-6.070000171661377,0.0390000008046627,-9.517000198364256,-0.2440000027418136
1621842907092,-3.2200000286102295,0.7530000209808348,-5.48199987411499,0.0,-9.446000099182127,-0.19200000166893
1621842907102,-1.8899999856948853,1.52400004863739,-5.418000221252441,0.0,-9.477999687194824,-0.2370000034570694
1621842907112,-0.0700000002980232,1.962000012397766,-5.482999801635742,0.0,-9.517000198364256,-0.2440000027418136
1621842907122,1.6100000143051147,2.2170000076293945,-5.7220001220703125,0.0,-9.55500030517578,-0.2509999871253967
1621842907132,2.7300000190734863,2.7320001125335693,-5.418000221252441,-0.0390000008046627,-9.569000244140623,-0.1739999949932098
1621842907142,3.7100000381469727,3.299999952316284,-5.815000057220459,-0.0390000008046627,-9.569000244140623,-0.1739999949932098
1621842907152,4.480000019073486,4.041999816894531,-6.394999980926514,-0.0780000016093254,-9.61400032043457,-0.1420000046491622
1621842907162,5.460000038146973,5.0229997634887695,-6.71999979019165,-0.1180000007152557,-9.607000350952148,-0.1800000071525573
1621842907172,5.880000114440918,6.057000160217285,-7.745999813079834,-0.0780000016093254,-9.69200038909912,-0.1550000011920929
1621842907182,6.510000228881836,7.191999912261963,-8.541000366210938,-0.1180000007152557,-9.737000465393066,-0.123999997973442
1621842907192,6.579999923706055,8.125,-8.59000015258789,-0.1180000007152557,-9.776000022888184,-0.1299999952316284
1621842907202,6.71999979019165,8.83899974822998,-8.605999946594238,-0.1180000007152557,-9.821000099182127,-0.0989999994635581
1621842907212,6.510000228881836,9.597000122070312,-8.472000122070312,-0.1180000007152557,-9.859999656677246,-0.1049999967217445
1621842907222,5.880000114440918,10.092000007629396,-8.456000328063965,-0.0780000016093254,-9.897999763488768,-0.1120000034570694
1621842907232,5.179999828338623,10.651000022888184,-9.210000038146973,-0.0390000008046627,-9.97599983215332,-0.1260000020265579
1621842907242,4.199999809265137,11.312000274658203,-9.734000205993652,0.0,-10.013999938964844,-0.1330000013113021
1621842907252,3.009999990463257,11.73799991607666,-9.729999542236328,0.0390000008046627,-10.065999984741213,-0.061999998986721
1621842907262,1.5399999618530271,11.710000038146973,-9.166000366210936,0.0780000016093254,-9.98900032043457,-0.0489999987185001
1621842907272,0.8399999737739563,11.90049934387207,-8.635000228881836,0.0780000016093254,-9.918999671936035,0.0040000001899898
1621842907282,0.1400000005960464,12.090999603271484,-8.104000091552734,0.0780000016093254,-9.918999671936035,0.0040000001899898
1621842907292,-0.5600000023841857,12.505000114440918,-6.822000026702881,0.0780000016093254,-9.880000114440918,0.0099999997764825
1621842907302,-1.2599999904632568,11.901000022888184,-6.2179999351501465,0.0780000016093254,-9.840999603271484,0.0170000009238719
1621842907312,-2.0299999713897705,11.887999534606934,-6.14900016784668,0.0780000016093254,-9.840999603271484,0.0170000009238719
1621842907322,-2.5199999809265137,12.479999542236328,-6.684000015258789,0.1180000007152557,-9.82800006866455,-0.0599999986588954
1621842907332,-2.869999885559082,12.321999549865724,-6.997000217437744,0.1180000007152557,-9.82800006866455,-0.0599999986588954
1621842907342,-3.2200000286102295,12.114999771118164,-7.0329999923706055,0.1180000007152557,-9.814000129699709,-0.1369999945163726
1621842907352,-3.0799999237060547,11.953000068664553,-6.919000148773193,0.1180000007152557,-9.737000465393066,-0.123999997973442
1621842907362,-3.430000066757202,12.06700038909912,-6.756999969482422,0.0780000016093254,-9.737000465393066,-0.123999997973442
1621842907372,-3.359999895095825,11.868000030517578,-6.436999797821045,0.1180000007152557,-9.737000465393066,-0.123999997973442
1621842907382,-3.1500000953674316,11.52299976348877,-6.498000144958496,0.1180000007152557,-9.737000465393066,-0.123999997973442
1621842907392,-2.5899999141693115,11.097999572753906,-6.501999855041504,0.1180000007152557,-9.69200038909912,-0.1550000011920929
1621842907402,-2.0999999046325684,10.684000015258787,-6.574999809265137,0.1180000007152557,-9.65999984741211,-0.1099999994039535
1621842907412,-1.75,10.204999923706056,-7.085000038146973,0.1570000052452087,-9.61400032043457,-0.1420000046491622
1621842907422,-1.2599999904632568,9.836000442504885,-7.007999897003174,0.1180000007152557,-9.607000350952148,-0.1800000071525573
1621842907432,-0.699999988079071,9.767000198364256,-7.020999908447266,0.1570000052452087,-9.6850004196167,-0.1940000057220459
1621842907442,-0.2800000011920929,9.147000312805178,-7.130000114440918,0.1570000052452087,-9.678000450134276,-0.2329999953508377
1621842907452,-0.209999993443489,8.737000465393066,-7.629000186920166,0.1959999948740005,-9.729999542236328,-0.1620000004768371
1621842907462,0.1049999967217445,8.534500122070312,-7.486999988555909,0.1570000052452087,-9.722999572753906,-0.2010000050067901
1621842907472,0.4199999868869781,8.331999778747559,-7.344999790191651,0.1959999948740005,-9.729999542236328,-0.1620000004768371
1621842907482,0.5600000023841857,7.906000137329101,-7.348999977111816,0.1570000052452087,-9.729999542236328,-0.1620000004768371
1621842907492,0.2800000011920929,7.394999980926514,-6.869999885559082,0.1180000007152557,-9.729999542236328,-0.1620000004768371
1621842907502,0.3499999940395355,7.33900022506714,-6.951000213623047,0.1180000007152557,-9.697999954223633,-0.1169999986886978
1621842907512,0.2800000011920929,7.249000072479248,-7.250999927520752,0.0780000016093254,-9.697999954223633,-0.1169999986886978
1621842907522,0.4900000095367431,7.355000019073486,-7.44600009918213,0.1180000007152557,-9.737000465393066,-0.123999997973442
1621842907532,0.9800000190734864,7.342999935150147,-7.376999855041504,0.1180000007152557,-9.737000465393066,-0.123999997973442
1621842907542,1.190000057220459,7.098999977111816,-7.206999778747559,0.1180000007152557,-9.744000434875488,-0.0850000008940696
1621842907552,1.2599999904632568,7.116000175476074,-6.493000030517578,0.1180000007152557,-9.744000434875488,-0.0850000008940696
1621842907562,1.5399999618530271,6.961999893188477,-6.0229997634887695,0.1180000007152557,-9.75100040435791,-0.0460000000894069
1621842907572,1.3300000429153442,6.925000190734863,-5.815999984741211,0.1180000007152557,-9.821000099182127,-0.0989999994635581
1621842907582,1.0499999523162842,6.556000232696533,-5.738999843597412,0.0780000016093254,-9.82800006866455,-0.0599999986588954
1621842907592,0.9100000262260436,6.151000022888184,-5.454999923706055,0.0780000016093254,-9.847999572753906,0.0560000017285346
1621842907602,0.4900000095367431,5.701000213623047,-5.321000099182129,0.0390000008046627,-9.880000114440918,0.0099999997764825
1621842907612,0.0700000002980232,5.298999786376953,-5.4629998207092285,0.0780000016093254,-9.835000038146973,-0.0209999997168779
1621842907622,-0.3499999940395355,5.428999900817871,-5.795000076293945,0.0780000016093254,-9.82800006866455,-0.0599999986588954
1621842907632,-0.6299999952316284,4.783999919891357,-5.767000198364258,0.0780000016093254,-9.82800006866455,-0.0599999986588954
1621842907642,-1.2599999904632568,4.808000087738037,-5.90500020980835,0.0780000016093254,-9.835000038146973,-0.0209999997168779
1621842907652,-1.190000057220459,4.48799991607666,-6.103000164031982,0.0390000008046627,-9.79599952697754,-0.0149999996647238
1621842907662,-1.4000000953674316,4.228499889373779,-6.042500019073486,0.0390000008046627,-9.79599952697754,-0.0149999996647238
1621842907672,-1.6100000143051147,3.9690001010894775,-5.98199987411499,0.0390000008046627,-9.75699996948242,-0.0080000003799796
1621842907682,-2.1700000762939453,3.786999940872192,-6.156000137329102,0.0390000008046627,-9.788999557495115,-0.0529999993741512
1621842907692,-2.1700000762939453,3.559000015258789,-6.480000019073486,0.0390000008046627,-9.788999557495115,-0.0529999993741512
1621842907702,-2.0299999713897705,3.4260001182556152,-6.929999828338623,0.0,-9.75699996948242,-0.0080000003799796
1621842907712,-1.9600000381469729,3.4170000553131104,-7.2870001792907715,0.0390000008046627,-9.788999557495115,-0.0529999993741512
1621842907722,-2.5199999809265137,3.2920000553131104,-7.381000041961671,0.0390000008046627,-9.788999557495115,-0.0529999993741512
1621842907732,-2.5899999141693115,3.2309999465942383,-7.035999774932861,0.0390000008046627,-9.788999557495115,-0.0529999993741512
1621842907742,-2.7300000190734863,3.003999948501587,-7.360000133514405,0.0,-9.75100040435791,-0.0460000000894069
1621842907752,-3.009999990463257,3.0929999351501465,-8.269000053405762,-0.0390000008046627,-9.776000022888184,-0.1299999952316284
1621842907762,-3.2200000286102295,3.502000093460083,-8.977999687194824,0.0390000008046627,-9.814000129699709,-0.1369999945163726
1621842907772,-3.2899999618530273,3.490000009536743,-8.909000396728516,0.0390000008046627,-9.814000129699709,-0.1369999945163726
1621842907782,-3.569999933242798,3.555000066757202,-8.470999717712402,0.0390000008046627,-9.76900005340576,-0.1689999997615814
1621842907792,-3.569999933242798,3.546999931335449,-7.619999885559082,0.0390000008046627,-9.729999542236328,-0.1620000004768371
1621842907802,-2.869999885559082,3.713000059127808,-6.951000213623047,0.0780000016093254,-9.652999877929688,-0.1490000039339065
1621842907812,-2.0299999713897705,3.927999973297119,-6.557000160217285,0.0780000016093254,-9.652999877929688,-0.1490000039339065
1621842907822,-1.2599999904632568,4.252999782562256,-6.784999847412109,0.0780000016093254,-9.65999984741211,-0.1099999994039535
1621842907832,-0.4900000095367431,4.061999797821045,-7.315999984741211,0.0780000016093254,-9.69200038909912,-0.1550000011920929
1621842907842,-0.4199999868869781,3.964999914169311,-7.973000049591064,0.1180000007152557,-9.69200038909912,-0.1550000011920929
1621842907852,-0.4199999868869781,3.6559998989105225,-8.239999771118164,0.1180000007152557,-9.737000465393066,-0.123999997973442
1621842907862,-0.1400000005960464,3.072000026702881,-8.555999755859375,0.1570000052452087,-9.69200038909912,-0.1550000011920929
1621842907872,-0.2100000083446502,2.9730000495910645,-8.395999908447266,0.1570000052452087,-9.729999542236328,-0.1620000004768371
1621842907882,-0.2800000011920929,2.874000072479248,-8.236000061035156,0.1180000007152557,-9.67099952697754,-0.2709999978542327
1621842907892,-0.3499999940395355,2.5940001010894775,-7.859000205993653,0.1180000007152557,-9.729999542236328,-0.1620000004768371
1621842907902,-0.5600000023841857,2.5820000171661377,-7.789999961853027,0.0780000016093254,-9.76900005340576,-0.1689999997615814
1621842907912,-0.6299999952316284,2.7679998874664307,-8.041000366210938,0.0390000008046627,-9.722999572753906,-0.2010000050067901
1621842907922,-0.4900000095367431,3.2060000896453857,-8.105999946594238,0.0780000016093254,-9.762000083923342,-0.2080000042915344
1621842907932,-0.0700000002980232,3.125,-8.050000190734863,0.0780000016093254,-9.729999542236328,-0.1620000004768371
1621842907942,0.3499999940395355,3.502000093460083,-7.769999980926514,0.0780000016093254,-9.69200038909912,-0.1550000011920929
1621842907952,0.9100000262260436,3.6480000019073486,-7.388999938964843,0.0780000016093254,-9.6850004196167,-0.1940000057220459
1621842907962,1.1200000047683716,3.5190000534057617,-7.056000232696533,0.1180000007152557,-9.6850004196167,-0.1940000057220459
1621842907972,1.5399999618530271,3.624000072479248,-7.250999927520752,0.1180000007152557,-9.645999908447264,-0.1870000064373016
1621842907982,2.0999999046325684,3.6480000019073486,-7.388999938964843,0.1570000052452087,-9.652999877929688,-0.1490000039339065
1621842907992,2.309999942779541,4.061999797821045,-7.315999984741211,0.1570000052452087,-9.652999877929688,-0.1490000039339065
1621842908002,2.450000047683716,3.4660000801086426,-6.355000019073486,0.1959999948740005,-9.652999877929688,-0.1490000039339065
1621842908012,2.6600000858306885,2.9149999618530273,-6.452000141143799,0.1959999948740005,-9.69200038909912,-0.1550000011920929
1621842908022,2.7300000190734863,2.4079999923706055,-6.39900016784668,0.1959999948740005,-9.737000465393066,-0.123999997973442
1621842908032,2.5899999141693115,2.1480000019073486,-6.941999912261963,0.1570000052452087,-9.75100040435791,-0.0460000000894069
1621842908042,2.309999942779541,1.7350000143051147,-7.014999866485596,0.1570000052452087,-9.788999557495115,-0.0529999993741512
1621842908052,2.380000114440918,1.559999942779541,-6.833000183105469,0.1570000052452087,-9.788999557495115,-0.0529999993741512
1621842908062,2.309999942779541,1.008999943733215,-6.929999828338623,0.1180000007152557,-9.788999557495115,-0.0529999993741512
1621842908072,1.8899999856948853,0.9399999976158142,-6.941999912261963,0.0780000016093254,-9.821000099182127,-0.0989999994635581
1621842908082,1.8899999856948853,0.8550000190734863,-6.460000038146973,0.0780000016093254,-9.788999557495115,-0.0529999993741512
1621842908090,,,,,,
1621842908092,1.7149999141693115,1.1730000972747805,-6.652500152587891,0.0780000016093254,-9.781999588012695,-0.0920000001788139
1621842908102,1.5399999618530271,1.491000056266785,-6.84499979019165,0.0780000016093254,-9.821000099182127,-0.0989999994635581
1621842908112,1.1200000047683716,1.491000056266785,-6.84499979019165,0.0390000008046627,-9.82800006866455,-0.0599999986588954
1621842908122,0.699999988079071,1.8480000495910645,-6.853000164031982,0.0390000008046627,-9.781999588012695,-0.0920000001788139
1621842908132,0.8399999737739563,2.2290000915527344,-6.999000072479248,0.0390000008046627,-9.82800006866455,-0.0599999986588954
1621842908142,0.3499999940395355,2.5460000038146973,-6.375,0.0390000008046627,-9.788999557495115,-0.0529999993741512
1621842908152,0.3499999940395355,2.821000099182129,-6.326000213623047,0.0390000008046627,-9.821000099182127,-0.0989999994635581
1621842908162,0.2800000011920929,3.377000093460083,-6.65500020980835,0.0390000008046627,-9.744000434875488,-0.0850000008940696
1621842908172,0.4900000095367431,3.365000009536743,-6.585999965667725,0.1180000007152557,-9.72599983215332,0.0379999987781047
1621842908182,0.8399999737739563,3.203000068664551,-6.4720001220703125,0.0390000008046627,-9.75699996948242,-0.0080000003799796
1621842908192,1.0499999523162842,3.2709999084472656,-6.460000038146973,0.0780000016093254,-9.763999938964846,0.0309999994933605
1621842908202,1.1200000047683716,3.288000106811523,-6.954999923706055,0.0780000016093254,-9.75699996948242,-0.0080000003799796
1621842908212,1.1200000047683716,3.138000011444092,-6.909999847412109,0.0780000016093254,-9.788999557495115,-0.0529999993741512
1621842908222,0.9100000262260436,3.250999927520752,-6.748000144958496,0.0780000016093254,-9.79599952697754,-0.0149999996647238
1621842908232,0.5600000023841857,3.5840001106262207,-6.618000030517578,0.0780000016093254,-9.79599952697754,-0.0149999996647238
1621842908242,0.3499999940395355,3.7539999485015874,-6.375,0.0780000016093254,-9.803000450134276,0.0240000002086162
1621842908252,0.0,3.802999973297119,-6.651000022888184,0.0390000008046627,-9.803000450134276,0.0240000002086162
1621842908262,-0.0700000002980232,3.875999927520752,-7.064000129699707,0.0390000008046627,-9.79599952697754,-0.0149999996647238
1621842908272,-0.5600000023841857,4.151000022888184,-7.015999794006348,0.0390000008046627,-9.82800006866455,-0.0599999986588954
1621842908282,-0.9100000262260436,4.447000026702881,-6.678999900817871,0.0780000016093254,-9.835000038146973,-0.0209999997168779
1621842908292,-1.190000057220459,4.244999885559082,-5.933000087738037,0.0390000008046627,-9.788999557495115,-0.0529999993741512
1621842908302,-0.9450000524520874,4.222499847412109,-5.404000282287598,0.0780000016093254,-9.704999923706056,-0.0780000016093254
1621842908312,-0.699999988079071,4.199999809265137,-4.875,0.1180000007152557,-9.647999763488768,0.0509999990463256
1621842908322,-0.3499999940395355,4.144000053405762,-3.746999979019165,0.0780000016093254,-9.687000274658203,0.0450000017881393
1621842908332,0.3499999940395355,3.61299991607666,-3.556999921798706,0.0390000008046627,-9.68000030517578,0.006000000052154
1621842908342,1.2599999904632568,3.183000087738037,-4.3429999351501465,0.0390000008046627,-9.68000030517578,0.006000000052154
1621842908352,1.399999976158142,3.259000062942505,-5.183000087738037,0.0390000008046627,-9.68000030517578,0.006000000052154
1621842908362,1.6100000143051147,2.7769999504089355,-5.26800012588501,0.0390000008046627,-9.718999862670898,-0.0010000000474974
1621842908372,1.8899999856948853,2.7079999446868896,-5.28000020980835,0.0,-9.72599983215332,0.0379999987781047
1621842908382,2.0299999713897705,2.562000036239624,-5.660999774932861,0.0,-9.72599983215332,0.0379999987781047
1621842908392,1.6100000143051147,2.0190000534057617,-5.4019999504089355,0.0,-9.718999862670898,-0.0010000000474974
1621842908402,1.5399999618530271,1.8079999685287476,-5.01200008392334,0.0,-9.72599983215332,0.0379999987781047
1621842908412,1.2599999904632568,1.8559999465942385,-5.288000106811523,0.0,-9.763999938964846,0.0309999994933605
1621842908421,1.1200000047683716,1.7920000553131104,-5.72599983215332,0.0,-9.8100004196167,0.0630000010132789
1621842908431,1.4700000286102295,1.9579999446868896,-6.264999866485596,0.0,-9.822999954223633,0.1400000005960464
1621842908441,1.1200000047683716,2.200999975204468,-6.435999870300293,0.0390000008046627,-9.770999908447264,0.0700000002980232
1621842908452,1.1200000047683716,2.436000108718872,-5.754000186920166,0.0,-9.72599983215332,0.0379999987781047
1621842908461,1.2599999904632568,2.375,-5.409999847412109,0.0390000008046627,-9.732000350952148,0.0759999975562095
1621842908471,1.2599999904632568,2.562000036239624,-5.660999774932861,0.0390000008046627,-9.777999877929688,0.1080000028014183
1621842908481,1.190000057220459,2.562000036239624,-5.660999774932861,0.0390000008046627,-9.815999984741213,0.101000003516674
1621842908491,1.0499999523162842,2.378999948501587,-5.835000038146973,0.0390000008046627,-9.777999877929688,0.1080000028014183
1621842908501,1.190000057220459,2.2209999561309814,-4.939000129699707,0.0780000016093254,-9.73900032043457,0.1150000020861625
1621842908511,1.0499999523162842,1.6289999485015867,-4.4039998054504395,0.0780000016093254,-9.770999908447264,0.0700000002980232
1621842908521,1.1200000047683716,1.5134999752044678,-4.353499889373779,0.0390000008046627,-9.770999908447264,0.0700000002980232
1621842908531,1.190000057220459,1.3980000019073486,-4.302999973297119,0.0390000008046627,-9.815999984741213,0.101000003516674
1621842908541,1.2599999904632568,1.2280000448226929,-4.546000003814697,0.0,-9.815999984741213,0.101000003516674
1621842908551,1.1200000047683716,0.887000024318695,-5.0320000648498535,0.0,-9.815999984741213,0.101000003516674
1621842908561,0.9800000190734864,0.9160000085830688,-5.5960001945495605,0.0,-9.732000350952148,0.0759999975562095
1621842908571,0.4900000095367431,0.8389999866485595,-5.965000152587891,0.0,-9.770999908447264,0.0700000002980232
1621842908581,0.0700000002980232,0.8259999752044677,-5.895999908447266,0.0,-9.770999908447264,0.0700000002980232
1621842908591,0.3499999940395355,0.8349999785423278,-5.539000034332275,-0.0390000008046627,-9.777999877929688,0.1080000028014183
1621842908601,0.1400000005960464,1.0740000009536743,-5.283999919891357,-0.0390000008046627,-9.777999877929688,0.1080000028014183
1621842908611,0.5600000023841857,1.0740000009536743,-5.283999919891357,-0.0390000008046627,-9.73900032043457,0.1150000020861625
1621842908621,0.5600000023841857,1.843999981880188,-5.218999862670898,0.0,-9.732000350952148,0.0759999975562095
1621842908631,0.3499999940395355,2.2249999046325684,-5.364999771118164,-0.0390000008046627,-9.72599983215332,0.0379999987781047
1621842908641,0.4199999868869781,2.23799991607666,-5.434000015258789,0.0,-9.72599983215332,0.0379999987781047
1621842908651,0.9800000190734864,2.0999999046325684,-5.458000183105469,0.0,-9.694000244140623,0.0829999968409538
1621842908661,1.190000057220459,2.177000045776367,-5.089000225067139,0.0,-9.694000244140623,0.0829999968409538
1621842908671,1.2599999904632568,2.513000011444092,-5.385000228881836,-0.0390000008046627,-9.72599983215332,0.0379999987781047
1621842908681,1.5399999618530271,2.615000009536743,-5.1539998054504395,0.0,-9.687000274658203,0.0450000017881393
1621842908691,1.6799999475479126,2.549999952316284,-5.5920000076293945,-0.0390000008046627,-9.647999763488768,0.0509999990463256
1621842908701,1.8200000524520872,2.306999921798706,-5.421999931335449,-0.0390000008046627,-9.732000350952148,0.0759999975562095
1621842908711,1.4700000286102295,2.2049999237060547,-5.6529998779296875,-0.0390000008046627,-9.770999908447264,0.0700000002980232
1621842908721,1.399999976158142,2.513000011444092,-6.593999862670898,-0.0390000008046627,-9.815999984741213,0.101000003516674
1621842908731,0.9800000190734864,2.5329999923706055,-6.306000232696533,-0.0390000008046627,-9.815999984741213,0.101000003516674
1621842908741,0.8399999737739563,2.7850000858306885,-6.11899995803833,-0.0390000008046627,-9.815999984741213,0.101000003516674
1621842908751,0.1400000005960464,3.0079998970031734,-6.578000068664551,0.0,-9.8100004196167,0.0630000010132789
1621842908761,0.0,3.0910000801086426,-6.847499847412109,-0.0390000008046627,-9.8100004196167,0.0630000010132789
1621842908771,-0.1400000005960464,3.174000024795532,-7.117000102996826,0.0,-9.854999542236328,0.0949999988079071
1621842908781,-0.2800000011920929,3.3480000495910645,-7.298999786376954,-0.0390000008046627,-9.815999984741213,0.101000003516674
1621842908791,-0.2800000011920929,3.8589999675750737,-7.777999877929688,-0.0390000008046627,-9.777999877929688,0.1080000028014183
1621842908801,-0.209999993443489,3.9690001010894775,-7.190000057220459,-0.0780000016093254,-9.70699977874756,0.1599999964237213
1621842908811,0.209999993443489,4.078000068664551,-6.6020002365112305,-0.0390000008046627,-9.70699977874756,0.1599999964237213
1621842908821,0.5600000023841857,3.864000082015991,-5.7870001792907715,0.0,-9.701000213623049,0.1220000013709068
1621842908831,0.9800000190734864,3.6319999694824214,-5.685999870300293,-0.0390000008046627,-9.732000350952148,0.0759999975562095
1621842908841,1.2599999904632568,3.441999912261963,-6.2170000076293945,0.0,-9.770999908447264,0.0700000002980232
1621842908851,1.1200000047683716,3.413000106811523,-6.861999988555908,0.0,-9.78499984741211,0.1469999998807907
1621842908861,1.190000057220459,3.0360000133514404,-7.140999794006348,0.0,-9.791000366210936,0.1850000023841857
1621842908871,1.399999976158142,3.003999948501587,-7.360000133514405,0.0,-9.73900032043457,0.1150000020861625
1621842908881,1.2599999904632568,2.861999988555908,-6.959000110626221,-0.0390000008046627,-9.777999877929688,0.1080000028014183
1621842908891,1.1200000047683716,2.6670000553131104,-7.064000129699707,-0.0390000008046627,-9.777999877929688,0.1080000028014183
1621842908901,0.9100000262260436,2.796999931335449,-7.396999835968018,-0.0390000008046627,-9.822999954223633,0.1400000005960464
1621842908911,0.5600000023841857,3.1659998893737793,-7.473999977111816,-0.0390000008046627,-9.822999954223633,0.1400000005960464
1621842908921,0.4900000095367431,3.515000104904175,-7.83900022506714,-0.0390000008046627,-9.815999984741213,0.101000003516674
1621842908931,0.4900000095367431,3.7660000324249263,-7.651999950408936,-0.0390000008046627,-9.746000289916992,0.1539999991655349
1621842908941,0.7699999809265136,3.880000114440918,-7.489999771118165,0.0,-9.746000289916992,0.1539999991655349
1621842908951,0.3499999940395355,4.21999979019165,-7.004000186920166,0.0,-9.753000259399414,0.19200000166893
1621842908961,0.5600000023841857,4.196000099182129,-6.866000175476074,-0.0390000008046627,-9.746000289916992,0.1539999991655349
1621842908971,0.699999988079071,4.013000011444092,-7.039999961853027,-0.0390000008046627,-9.746000289916992,0.1539999991655349
1621842908981,0.1400000005960464,4.058000087738037,-6.889999866485596,0.0,-9.78499984741211,0.1469999998807907
1621842908991,0.1050000041723251,4.179500102996826,-6.974999904632568,0.0,-9.746000289916992,0.1539999991655349
1621842909001,0.0700000002980232,4.301000118255615,-7.059999942779541,0.0390000008046627,-9.753000259399414,0.19200000166893
1621842909011,0.0700000002980232,3.7090001106262207,-6.525000095367432,0.0390000008046627,-9.746000289916992,0.1539999991655349
1621842909021,0.2800000011920929,3.461999893188477,-5.928999900817871,0.0,-9.746000289916992,0.1539999991655349
1621842909031,0.4199999868869781,3.1170001029968266,-5.989999771118164,0.0,-9.777999877929688,0.1080000028014183
1621842909041,0.2800000011920929,3.177999973297119,-6.334000110626221,0.0,-9.815999984741213,0.101000003516674
1621842909051,0.2800000011920929,2.7320001125335693,-6.625999927520752,0.0,-9.815999984741213,0.101000003516674
1621842909061,0.2800000011920929,2.5940001010894775,-6.651000022888184,0.0390000008046627,-9.78499984741211,0.1469999998807907
1621842909071,0.4199999868869781,2.549999952316284,-6.801000118255615,0.0,-9.777999877929688,0.1080000028014183
1621842909081,0.1400000005960464,2.578000068664551,-6.156000137329102,0.0,-9.746000289916992,0.1539999991655349
1621842909091,0.3499999940395355,2.8010001182556152,-6.613999843597412,-0.0390000008046627,-9.746000289916992,0.1539999991655349
1621842909097,,,,,,
1621842909101,0.209999993443489,2.7769999504089355,-6.47599983215332,-0.0390000008046627,-9.746000289916992,0.1539999991655349
1621842909111,0.2800000011920929,2.6710000038146973,-6.2820000648498535,-0.1180000007152557,-9.701000213623049,0.1220000013709068
1621842909121,0.2800000011920929,2.9800000190734863,-6.013999938964844,-0.0780000016093254,-9.746000289916992,0.1539999991655349
1621842909131,0.2800000011920929,3.36899995803833,-5.802999973297119,-0.0390000008046627,-9.746000289916992,0.1539999991655349
1621842909141,0.2800000011920929,3.450000047683716,-5.860000133514404,-0.0390000008046627,-9.70699977874756,0.1599999964237213
1621842909151,0.4900000095367431,3.486000061035156,-6.066999912261963,-0.0780000016093254,-9.746000289916992,0.1539999991655349
1621842909161,0.3499999940395355,3.6689999103546143,-5.892000198364258,-0.0780000016093254,-9.746000289916992,0.1539999991655349
1621842909171,0.8399999737739563,3.6689999103546143,-5.892000198364258,-0.0390000008046627,-9.73900032043457,0.1150000020861625
1621842909181,1.0499999523162842,3.6689999103546143,-5.892000198364258,0.0,-9.746000289916992,0.1539999991655349
1621842909191,0.9800000190734864,3.5309998989105225,-5.916999816894531,-0.0390000008046627,-9.746000289916992,0.1539999991655349
1621842909201,1.190000057220459,3.5350000858306885,-6.3420000076293945,0.0,-9.746000289916992,0.1539999991655349
1621842909211,1.3300000429153442,3.6530001163482666,-6.605999946594238,0.0,-9.78499984741211,0.1469999998807907
1621842909221,1.190000057220459,3.1579999923706055,-6.622000217437744,0.0,-9.791000366210936,0.1850000023841857
1621842909231,1.1200000047683716,2.950999975204468,-6.6585001945495605,0.0,-9.791000366210936,0.1850000023841857
1621842909241,1.0499999523162842,2.74399995803833,-6.695000171661377,0.0780000016093254,-9.822999954223633,0.1400000005960464
1621842909251,0.9100000262260436,2.4119999408721924,-6.824999809265137,0.0390000008046627,-9.78499984741211,0.1469999998807907
1621842909261,0.699999988079071,2.236999988555908,-6.642000198364258,0.0390000008046627,-9.777999877929688,0.1080000028014183
1621842909271,0.699999988079071,2.0179998874664307,-6.610000133514404,0.1180000007152557,-9.777999877929688,0.1080000028014183
1621842909281,0.9800000190734864,1.1430000066757202,-6.480000019073486,0.1180000007152557,-9.746000289916992,0.1539999991655349
1621842909291,0.699999988079071,-0.1270000040531158,-6.135000228881836,0.1180000007152557,-9.701000213623049,0.1220000013709068
1621842909301,1.190000057220459,-1.0390000343322754,-5.797999858856201,0.1180000007152557,-9.661999702453612,0.1289999932050705
1621842909311,1.8899999856948853,-2.0160000324249268,-4.690999984741211,0.0780000016093254,-9.623000144958496,0.135000005364418
1621842909321,2.869999885559082,-2.7699999809265137,-4.041999816894531,0.0780000016093254,-9.623000144958496,0.135000005364418
1621842909331,3.569999933242798,-3.013000011444092,-3.871999979019165,0.0,-9.597999572753906,0.2189999967813491
1621842909341,4.059999942779541,-3.6540000438690186,-4.269000053405762,0.0,-9.637000083923342,0.2129999995231628
1621842909351,4.480000019073486,-3.9300000667572026,-4.317999839782715,0.0390000008046627,-9.675999641418455,0.2060000002384185
1621842909361,4.900000095367432,-4.541999816894531,-4.071000099182129,0.0,-9.720999717712402,0.2380000054836273
1621842909371,4.96999979019165,-4.679999828338623,-4.09499979019165,0.0,-9.720999717712402,0.2380000054836273
1621842909381,4.619999885559082,-4.914999961853027,-3.568000078201294,-0.0390000008046627,-9.760000228881836,0.231000006198883
1621842909391,4.269999980926514,-5.283999919891357,-3.490999937057495,-0.0780000016093254,-9.836999893188477,0.2169999927282333
1621842909401,4.059999942779541,-5.048999786376953,-4.01800012588501,-0.1180000007152557,-9.85099983215332,0.2949999868869781
1621842909411,3.430000066757202,-4.703999996185303,-3.9570000171661377,-0.1180000007152557,-9.888999938964846,0.2879999876022338
1621842909421,2.799999952316284,-4.360000133514404,-3.8959999084472656,-0.1570000052452087,-9.888999938964846,0.2879999876022338
1621842909431,2.450000047683716,-3.503999948501587,-4.314000129699707,-0.1570000052452087,-9.857000350952148,0.3330000042915344
1621842909441,2.309999942779541,-3.253000020980835,-4.127999782562256,-0.0780000016093254,-9.779999732971191,0.3470000028610229
1621842909451,1.9600000381469729,-3.2125000953674316,-4.156000137329102,-0.1180000007152557,-9.819000244140623,0.3400000035762786
1621842909461,1.6100000143051147,-3.171999931335449,-4.184000015258789,-0.0780000016093254,-9.819000244140623,0.3400000035762786
1621842909471,1.75,-2.9040000438690186,-4.493000030517578,-0.1570000052452087,-9.779999732971191,0.3470000028610229
1621842909481,1.6100000143051147,-2.566999912261963,-4.789000034332275,-0.1180000007152557,-9.779999732971191,0.3470000028610229
1621842909491,1.0499999523162842,-2.288000106811523,-5.165999889373779,-0.1180000007152557,-9.741000175476074,0.3540000021457672
1621842909501,0.9800000190734864,-1.861999988555908,-5.1620001792907715,-0.1180000007152557,-9.741000175476074,0.3540000021457672
1621842909511,1.0499999523162842,-2.384999990463257,-4.613999843597412,-0.0780000016093254,-9.793999671936035,0.4239999949932098
1621842909521,1.0499999523162842,-2.7579998970031734,-4.111000061035156,0.0,-9.741000175476074,0.3540000021457672
1621842909531,1.0499999523162842,-3.5079998970031734,-3.888000011444092,0.0780000016093254,-9.772999763488768,0.3079999983310699
1621842909541,1.0499999523162842,-4.230000019073486,-4.229000091552734,0.1959999948740005,-9.772999763488768,0.3079999983310699
1621842909551,0.8399999737739563,-6.415999889373779,-4.329999923706055,0.3919999897480011,-9.812000274658203,0.3009999990463256
1621842909561,0.209999993443489,-10.036999702453612,-4.755000114440918,0.5879999995231628,-9.779999732971191,0.3470000028610229
1621842909571,-0.4900000095367431,-15.19499969482422,-4.5269999504089355,0.7850000262260437,-9.819000244140623,0.3400000035762786
1621842909581,-0.7699999809265136,-21.31800079345703,-4.46999979019165,0.9020000100135804,-9.819000244140623,0.3400000035762786
1621842909591,-1.1200000047683716,-28.0,-4.866000175476074,1.0590000152587893,-9.826000213623049,0.3790000081062316
1621842909601,-1.4700000286102295,-36.17499923706055,-5.668000221252441,1.1770000457763672,-9.786999702453612,0.3849999904632568
1621842909611,-2.240000009536743,-44.47600173950195,-6.563000202178955,1.215999960899353,-9.762000083923342,0.4690000116825103
1621842909621,-2.6600000858306885,-53.404998779296875,-6.716000080108643,1.1770000457763672,-9.722999572753906,0.4760000109672546
1621842909631,-2.6600000858306885,-61.832000732421875,-7.703999996185303,1.0590000152587893,-9.65999984741211,0.5669999718666076
1621842909641,-2.6600000858306885,-69.31300354003906,-8.8100004196167,0.981000006198883,-9.704999923706056,0.5989999771118164
1621842909651,-2.5899999141693115,-75.58200073242188,-9.133000373840332,0.8629999756813049,-9.718999862670898,0.6759999990463256
1621842909661,-2.5199999809265137,-78.28500366210938,-9.32550048828125,0.7059999704360961,-9.718999862670898,0.6759999990463256
1621842909671,-2.450000047683716,-80.98799896240233,-9.517999649047852,0.5490000247955322,-9.68000030517578,0.6830000281333923
1621842909681,-2.309999942779541,-84.91699981689453,-10.211000442504885,0.3529999852180481,-9.68000030517578,0.6830000281333923
1621842909691,-2.309999942779541,-87.5,-10.880000114440918,0.2349999994039535,-9.763999938964846,0.7080000042915344
1621842909701,-2.309999942779541,-89.61299896240233,-11.394000053405762,0.0780000016093254,-9.763999938964846,0.7080000042915344
1621842909711,-2.309999942779541,-91.03199768066406,-11.005000114440918,-0.1180000007152557,-9.732000350952148,0.7530000209808348
1621842909721,-2.5199999809265137,-91.16200256347656,-10.671999931335447,-0.2750000059604644,-9.732000350952148,0.7530000209808348
1621842909731,-2.6600000858306885,-90.0469970703125,-10.546999931335447,-0.3919999897480011,-9.732000350952148,0.7530000209808348
1621842909741,-2.5899999141693115,-87.36199951171875,-10.854999542236328,-0.5490000247955322,-9.763999938964846,0.7080000042915344
1621842909751,-2.6600000858306885,-84.23600006103516,-10.446000099182127,-0.6280000209808348,-9.803000450134276,0.7009999752044677
1621842909761,-2.6600000858306885,-79.73899841308594,-10.151000022888184,-0.7450000047683715,-9.835000038146973,0.656000018119812
1621842909771,-2.869999885559082,-75.36699676513672,-9.949000358581545,-0.7850000262260437,-9.835000038146973,0.656000018119812
1621842909781,-3.5,-70.62699890136719,-9.824000358581545,-0.9020000100135804,-9.897999763488768,0.5649999976158142
1621842909791,-4.199999809265137,-65.6760025024414,-10.088000297546388,-0.8240000009536743,-9.897999763488768,0.5649999976158142
1621842909801,-4.900000095367432,-60.53799819946289,-10.602999687194824,-0.8629999756813049,-9.93000030517578,0.5189999938011169
1621842909811,-5.670000076293945,-55.040000915527344,-10.345000267028809,-0.8629999756813049,-9.897999763488768,0.5649999976158142
1621842909821,-5.53000020980835,-50.08100128173828,-10.251999855041504,-0.8629999756813049,-9.814000129699709,0.5400000214576721
1621842909831,-5.320000171661377,-45.055999755859375,-9.722000122070312,-0.8240000009536743,-9.744000434875488,0.5920000076293945
1621842909841,-4.96999979019165,-40.4379997253418,-8.906999588012695,-0.7850000262260437,-9.666000366210936,0.606000006198883
1621842909851,-4.269999980926514,-35.604000091552734,-8.907999992370605,-0.7059999704360961,-9.697999954223633,0.5600000023841857
1621842909861,-3.9200000762939458,-31.597999572753903,-9.053999900817873,-0.6280000209808348,-9.729999542236328,0.5149999856948853
1621842909871,-3.6750001907348633,-29.945499420166016,-9.15399932861328,-0.6280000209808348,-9.729999542236328,0.5149999856948853
1621842909881,-3.430000066757202,-28.292999267578125,-9.253999710083008,-0.5099999904632568,-9.722999572753906,0.4760000109672546
1621842909891,-3.2200000286102295,-24.777000427246097,-9.842000007629396,-0.3919999897480011,-9.755000114440918,0.4309999942779541
1621842909901,-3.430000066757202,-21.724000930786133,-10.227999687194824,-0.2750000059604644,-9.793999671936035,0.4239999949932098
1621842909911,-3.7100000381469727,-19.018999099731445,-10.248000144958496,-0.3140000104904174,-9.83199977874756,0.4169999957084655
1621842909921,-3.9200000762939458,-16.420000076293945,-10.074000358581545,-0.3140000104904174,-9.800999641418455,0.4629999995231628
1621842909931,-3.990000009536743,-14.097000122070312,-9.949000358581545,-0.2750000059604644,-9.762000083923342,0.4690000116825103
1621842909941,-3.849999904632568,-11.829999923706056,-9.904999732971191,-0.2750000059604644,-9.76900005340576,0.5080000162124633
1621842909951,-3.430000066757202,-9.30799961090088,-10.100000381469728,-0.2349999994039535,-9.722999572753906,0.4760000109672546
1621842909961,-3.0799999237060547,-6.445000171661377,-9.80799961090088,-0.1959999948740005,-9.762000083923342,0.4690000116825103
1621842909971,-2.6600000858306885,-3.8450000286102295,-9.633999824523924,-0.1570000052452087,-9.762000083923342,0.4690000116825103
1621842909981,-2.7300000190734863,-1.50600004196167,-10.003000259399414,-0.1180000007152557,-9.793999671936035,0.4239999949932098
1621842909991,-2.940000057220459,0.096000000834465,-10.218999862670898,-0.0390000008046627,-9.793999671936035,0.4239999949932098
1621842910001,-2.869999885559082,0.9599999785423278,-10.279999732971191,0.0,-9.83199977874756,0.4169999957084655
1621842910011,-3.2200000286102295,1.8559999465942385,-10.121999740600586,0.0390000008046627,-9.83199977874756,0.4169999957084655
1621842910021,-3.2899999618530273,2.8010001182556152,-10.23900032043457,0.0390000008046627,-9.715999603271484,0.4379999935626983
1621842910031,-3.569999933242798,3.5829999446868896,-10.243000030517578,0.0,-9.678000450134276,0.4440000057220459
1621842910041,-3.1500000953674316,4.301000118255615,-9.47700023651123,0.0,-9.638999938964846,0.4510000050067901
1621842910051,-2.240000009536743,5.172999858856201,-9.180999755859377,0.0,-9.638999938964846,0.4510000050067901
1621842910061,-1.75,6.0329999923706055,-8.815999984741211,0.0390000008046627,-9.67099952697754,0.4059999883174896
1621842910071,-1.6100000143051147,6.444499969482422,-8.530500411987305,0.0780000016093254,-9.710000038146973,0.3989999890327453
1621842910081,-1.4700000286102295,6.855999946594238,-8.244999885559082,0.1959999948740005,-9.722999572753906,0.4760000109672546
1621842910091,-1.190000057220459,7.224999904632568,-8.321999549865723,0.2750000059604644,-9.793999671936035,0.4239999949932098
1621842910101,-1.0499999523162842,7.306000232696533,-8.378999710083008,0.2750000059604644,-9.793999671936035,0.4239999949932098
1621842910105,,,,,,
1621842910111,-1.4700000286102295,6.660999774932861,-8.350000381469727,0.3140000104904174,-9.786999702453612,0.3849999904632568
1621842910121,-1.8200000524520872,5.696000099182129,-8.520000457763672,0.3529999852180481,-9.786999702453612,0.3849999904632568
1621842910130,-2.1700000762939453,5.076000213623047,-8.630000114440918,0.3140000104904174,-9.748000144958496,0.3919999897480011
1621842910140,-2.380000114440918,4.078000068664551,-9.01900005340576,0.2750000059604644,-9.748000144958496,0.3919999897480011
1621842910150,-2.7300000190734863,3.697000026702881,-8.873000144958496,0.2750000059604644,-9.722999572753906,0.4760000109672546
1621842910160,-2.380000114440918,3.486000061035156,-8.484000205993652,0.2349999994039535,-9.715999603271484,0.4379999935626983
1621842910170,-2.309999942779541,3.8310000896453857,-8.42300033569336,0.1959999948740005,-9.755000114440918,0.4309999942779541
1621842910180,-2.6600000858306885,4.309000015258789,-7.9120001792907715,0.1959999948740005,-9.715999603271484,0.4379999935626983
1621842910190,-2.309999942779541,4.5929999351501465,-7.506000041961671,0.1959999948740005,-9.678000450134276,0.4440000057220459
1621842910200,-1.9600000381469729,5.428999900817871,-7.004000186920166,0.1959999948740005,-9.678000450134276,0.4440000057220459
1621842910210,-1.5399999618530271,6.072999954223633,-7.0320000648498535,0.2349999994039535,-9.715999603271484,0.4379999935626983
1621842910220,-1.190000057220459,6.418000221252441,-6.9710001945495605,0.2349999994039535,-9.715999603271484,0.4379999935626983
1621842910230,-0.7699999809265136,7.001999855041504,-6.65500020980835,0.1959999948740005,-9.710000038146973,0.3989999890327453
1621842910240,-0.6299999952316284,7.164000034332275,-6.769000053405762,0.2349999994039535,-9.70300006866455,0.3600000143051147
1621842910250,-0.7699999809265136,7.021999835968018,-6.367000102996826,0.2750000059604644,-9.741000175476074,0.3540000021457672
1621842910260,-0.9099999666213988,6.890500068664551,-6.426000118255615,0.3140000104904174,-9.741000175476074,0.3540000021457672
1621842910270,-1.0499999523162842,6.758999824523926,-6.485000133514404,0.3140000104904174,-9.772999763488768,0.3079999983310699
1621842910280,-1.2599999904632568,6.5970001220703125,-6.370999813079834,0.3529999852180481,-9.826000213623049,0.3790000081062316
1621842910290,-1.6799999475479126,6.36899995803833,-6.696000099182129,0.3529999852180481,-9.786999702453612,0.3849999904632568
1621842910300,-1.6799999475479126,6.068999767303467,-6.605999946594238,0.3140000104904174,-9.819000244140623,0.3400000035762786
1621842910310,-1.8899999856948853,5.205999851226807,-6.545000076293945,0.2750000059604644,-9.79800033569336,0.2240000069141387
1621842910320,-2.450000047683716,4.771999835968018,-6.906000137329102,0.2750000059604644,-9.80500030517578,0.2630000114440918
1621842910330,-2.450000047683716,4.369999885559082,-7.047999858856201,0.2750000059604644,-9.772999763488768,0.3079999983310699
1621842910340,-2.5899999141693115,3.884000062942505,-6.706999778747559,0.2750000059604644,-9.812000274658203,0.3009999990463256
1621842910350,-3.1500000953674316,3.7939999103546143,-7.007999897003174,0.2750000059604644,-9.85099983215332,0.2949999868869781
1621842910360,-3.5,3.7739999294281006,-7.295000076293945,0.2349999994039535,-9.85099983215332,0.2949999868869781
1621842910370,-3.990000009536743,4.13100004196167,-7.30399990081787,0.2349999994039535,-9.843999862670898,0.2560000121593475
1621842910380,-4.619999885559082,4.750999927520752,-7.193999767303467,0.2750000059604644,-9.836999893188477,0.2169999927282333
1621842910390,-4.619999885559082,4.7270002365112305,-7.056000232696533,0.2349999994039535,-9.79800033569336,0.2240000069141387
1621842910400,-4.409999847412109,5.254000186920166,-6.821000099182129,0.1959999948740005,-9.727999687194824,0.2759999930858612
1621842910410,-3.2200000286102295,5.315000057220459,-5.958000183105469,0.1959999948740005,-9.612000465393066,0.2969999909400939
1621842910420,-2.5199999809265137,5.498000144958496,-5.7829999923706055,0.1959999948740005,-9.651000022888184,0.2899999916553497
1621842910430,-1.75,5.440999984741211,-5.863999843597412,0.2750000059604644,-9.663999557495115,0.367000013589859
1621842910440,-1.6100000143051147,5.826000213623047,-6.435999870300293,0.2349999994039535,-9.656999588012695,0.3289999961853027
1621842910450,-1.5049999952316284,5.671999931335449,-6.569999694824219,0.2349999994039535,-9.675999641418455,0.2060000002384185
1621842910460,-1.399999976158142,5.51800012588501,-6.703999996185303,0.2750000059604644,-9.675999641418455,0.2060000002384185
1621842910470,-1.0499999523162842,5.7129998207092285,-6.5980000495910645,0.2349999994039535,-9.70699977874756,0.1599999964237213
1621842910480,-1.0499999523162842,5.541999816894531,-6.8420000076293945,0.2750000059604644,-9.71399974822998,0.1990000009536743
1621842910490,-0.8399999737739563,5.064000129699707,-6.144000053405762,0.2750000059604644,-9.746000289916992,0.1539999991655349
1621842910500,-1.190000057220459,4.938000202178955,-6.236999988555908,0.2349999994039535,-9.720999717712402,0.2380000054836273
1621842910510,-1.399999976158142,4.548999786376953,-6.447999954223633,0.1959999948740005,-9.760000228881836,0.231000006198883
1621842910520,-1.1200000047683716,4.495999813079834,-6.954999923706055,0.2349999994039535,-9.76599979400635,0.2689999938011169
1621842910530,-1.1200000047683716,4.2769999504089355,-6.921999931335449,0.2349999994039535,-9.727999687194824,0.2759999930858612
1621842910540,-0.8399999737739563,3.7739999294281006,-7.295000076293945,0.2349999994039535,-9.734999656677246,0.3149999976158142
1621842910550,-0.6299999952316284,3.7660000324249263,-7.651999950408936,0.1959999948740005,-9.734999656677246,0.3149999976158142
1621842910560,-0.4199999868869781,3.8510000705718994,-8.135000228881836,0.1959999948740005,-9.741000175476074,0.3540000021457672
1621842910570,-0.6299999952316284,4.269000053405762,-8.48799991607666,0.1959999948740005,-9.734999656677246,0.3149999976158142
1621842910580,-0.8399999737739563,4.394000053405762,-8.394000053405762,0.1959999948740005,-9.76599979400635,0.2689999938011169
1621842910590,-0.699999988079071,4.888999938964844,-8.378000259399414,0.1570000052452087,-9.80500030517578,0.2630000114440918
1621842910600,-0.9100000262260436,5.1570000648498535,-8.687000274658203,0.1570000052452087,-9.79800033569336,0.2240000069141387
1621842910610,-1.0499999523162842,5.488999843597412,-8.557000160217285,0.1959999948740005,-9.80500030517578,0.2630000114440918
1621842910620,-1.1200000047683716,5.5254998207092285,-8.159500122070312,0.1959999948740005,-9.79800033569336,0.2240000069141387
1621842910630,-1.190000057220459,5.561999797821045,-7.762000083923339,0.2349999994039535,-9.843999862670898,0.2560000121593475
1621842910640,-1.1200000047683716,5.428999900817871,-7.004000186920166,0.2750000059604644,-9.80500030517578,0.2630000114440918
1621842910650,-1.190000057220459,5.160999774932861,-6.696000099182129,0.2750000059604644,-9.812000274658203,0.3009999990463256
1621842910660,-1.2599999904632568,5.0229997634887695,-6.71999979019165,0.2750000059604644,-9.85099983215332,0.2949999868869781
1621842910670,-1.2599999904632568,4.5970001220703125,-6.723999977111816,0.2750000059604644,-9.836999893188477,0.2169999927282333
1621842910680,-1.6799999475479126,4.196000099182129,-6.866000175476074,0.2750000059604644,-9.836999893188477,0.2169999927282333
1621842910690,-1.8899999856948853,4.021999835968018,-6.683000087738037,0.2750000059604644,-9.79800033569336,0.2240000069141387
1621842910700,-2.309999942779541,3.911999940872192,-6.063000202178955,0.2750000059604644,-9.76599979400635,0.2689999938011169
1621842910710,-2.0299999713897705,4.000999927520752,-5.763000011444092,0.2349999994039535,-9.76599979400635,0.2689999938011169
1621842910720,-1.8899999856948853,4.098999977111816,-5.105999946594238,0.1959999948740005,-9.760000228881836,0.231000006198883
1621842910730,-1.8200000524520872,4.5289998054504395,-5.5279998779296875,0.1959999948740005,-9.720999717712402,0.2380000054836273
1621842910740,-1.5399999618530271,4.4720001220703125,-5.609000205993652,0.2349999994039535,-9.696000099182127,0.3219999969005584
1621842910750,-1.3300000429153442,4.507999897003174,-5.815000057220459,0.2349999994039535,-9.689000129699709,0.2829999923706054
1621842910760,-1.190000057220459,4.15500020980835,-6.232999801635742,0.1570000052452087,-9.734999656677246,0.3149999976158142
1621842910770,-1.0499999523162842,4.447000026702881,-6.678999900817871,0.1959999948740005,-9.727999687194824,0.2759999930858612
1621842910780,-0.9800000190734864,4.659999847412109,-6.677000045776367,0.1959999948740005,-9.70699977874756,0.1599999964237213
1621842910790,-0.9100000262260436,4.873000144958496,-6.675000190734863,0.1570000052452087,-9.71399974822998,0.1990000009536743
1621842910800,-0.7699999809265136,4.815999984741211,-6.75600004196167,0.1570000052452087,-9.791000366210936,0.1850000023841857
1621842910810,-0.5600000023841857,5.0920000076293945,-6.708000183105469,0.1570000052452087,-9.791000366210936,0.1850000023841857
1621842910820,-0.699999988079071,5.4079999923706055,-7.291999816894531,0.1570000052452087,-9.71399974822998,0.1990000009536743
1621842910830,-0.5600000023841857,5.245999813079834,-7.177999973297119,0.1959999948740005,-9.760000228881836,0.231000006198883
1621842910840,-0.3499999940395355,5.214000225067139,-7.396999835968018,0.1959999948740005,-9.760000228881836,0.231000006198883
1621842910850,-0.0700000002980232,5.732999801635742,-7.519000053405762,0.1959999948740005,-9.760000228881836,0.231000006198883
1621842910860,-0.1400000005960464,5.480999946594238,-7.704999923706055,0.1959999948740005,-9.720999717712402,0.2380000054836273
1621842910870,0.209999993443489,5.3429999351501465,-7.730000019073486,0.1959999948740005,-9.79800033569336,0.2240000069141387
1621842910880,0.0,5.375999927520752,-7.511000156402587,0.1959999948740005,-9.80500030517578,0.2630000114440918
1621842910890,-0.4199999868869781,5.433000087738037,-7.429999828338623,0.1959999948740005,-9.772999763488768,0.3079999983310699
1621842910900,-0.4900000095367431,5.339000225067139,-7.30399990081787,0.1959999948740005,-9.76599979400635,0.2689999938011169
1621842910910,-0.4900000095367431,5.327000141143799,-7.235000133514405,0.1570000052452087,-9.76599979400635,0.2689999938011169
1621842910920,-0.4900000095367431,5.257999897003174,-7.247000217437744,0.1570000052452087,-9.76599979400635,0.2689999938011169
1621842910930,-0.2800000011920929,5.375999927520752,-7.511000156402587,0.1959999948740005,-9.772999763488768,0.3079999983310699
1621842910940,-0.5600000023841857,5.61899995803833,-7.681000232696533,0.1959999948740005,-9.76599979400635,0.2689999938011169
1621842910950,-0.6649999618530273,5.598999977111816,-7.364500045776368,0.1959999948740005,-9.80500030517578,0.2630000114440918
1621842910960,-0.7699999809265136,5.578999996185303,-7.047999858856201,0.1959999948740005,-9.76599979400635,0.2689999938011169
1621842910970,-0.5600000023841857,5.635000228881836,-6.9670000076293945,0.1959999948740005,-9.727999687194824,0.2759999930858612
1621842910980,-0.4900000095367431,6.060999870300293,-6.9629998207092285,0.1959999948740005,-9.760000228881836,0.231000006198883
1621842910990,-0.9100000262260436,6.068999767303467,-6.605999946594238,0.1959999948740005,-9.79800033569336,0.2240000069141387
1621842911000,-1.1200000047683716,5.806000232696533,-6.723999977111816,0.1959999948740005,-9.80500030517578,0.2630000114440918
1621842911010,-1.6799999475479126,6.017000198364258,-7.11299991607666,0.2349999994039535,-9.836999893188477,0.2169999927282333
1621842911020,-2.1700000762939453,6.1539998054504395,-7.089000225067139,0.1959999948740005,-9.79800033569336,0.2240000069141387
1621842911030,-2.380000114440918,6.166999816894531,-7.1579999923706055,0.2349999994039535,-9.720999717712402,0.2380000054836273
1621842911040,-2.1700000762939453,6.348999977111816,-6.984000205993652,0.2349999994039535,-9.637000083923342,0.2129999995231628
