timestamp,gyro_x,gyro_y,gyro_z,acc_x,acc_y,acc_z
1621583988635,0.0,0.0,0.0,0.0,0.0,0.0
1621583988644,-2.799999952316284,15.378999710083008,-11.43299961090088,0.6280000209808348,-7.934000015258789,5.690999984741211
1621583988654,-2.869999885559082,14.815999984741213,-10.253000259399414,0.5879999995231628,-7.849999904632568,5.665999889373779
1621583988664,-2.799999952316284,14.49899959564209,-9.668999671936035,0.5879999995231628,-7.849999904632568,5.665999889373779
1621583988674,-2.869999885559082,14.041000366210936,-9.892000198364256,0.6280000209808348,-7.914000034332275,5.574999809265137
1621583988684,-3.2200000286102295,13.331000328063965,-10.302000045776367,0.5490000247955322,-7.952000141143799,5.567999839782715
1621583988694,-3.569999933242798,13.031000137329102,-10.211999893188477,0.5099999904632568,-7.94600009918213,5.53000020980835
1621583988704,-3.7100000381469727,12.630000114440918,-10.354000091552734,0.4709999859333038,-7.829999923706055,5.550000190734863
1621583988714,-3.849999904632568,12.515999794006348,-10.515999794006348,0.5099999904632568,-7.751999855041504,5.564000129699707
1621583988724,-3.7799999713897705,12.281000137329102,-9.98900032043457,0.5099999904632568,-7.797999858856201,5.5960001945495605
1621583988734,-3.6400001049041744,12.296999931335447,-9.274999618530272,0.5099999904632568,-7.875,5.581999778747559
1621583988744,-3.570000171661377,12.331500053405762,-9.268999099731444,0.5099999904632568,-7.868000030517577,5.543000221252441
1621583988754,-3.5,12.366000175476074,-9.262999534606934,0.5490000247955322,-7.888999938964843,5.658999919891357
1621583988764,-2.940000057220459,12.229000091552734,-9.288000106811523,0.5099999904632568,-7.8520002365112305,5.90500020980835
1621583988774,-2.7300000190734863,12.156000137329102,-8.87399959564209,0.5099999904632568,-7.84600019454956,5.866000175476074
1621583988784,-2.240000009536743,12.329999923706056,-9.057000160217283,0.4309999942779541,-7.883999824523927,5.859000205993652
1621583988794,-1.8200000524520872,12.086999893188477,-8.88599967956543,0.4309999942779541,-7.84600019454956,5.866000175476074
1621583988804,-1.6799999475479126,12.41100025177002,-9.11299991607666,0.4309999942779541,-7.84600019454956,5.866000175476074
1621583988814,-1.6100000143051147,12.29300022125244,-8.850000381469727,0.4709999859333038,-7.915999889373779,5.814000129699707
1621583988824,-1.6799999475479126,12.69499969482422,-8.708000183105469,0.5099999904632568,-7.960999965667725,5.8460001945495605
1621583988834,-2.309999942779541,12.751999855041504,-8.626999855041504,0.5490000247955322,-8.083999633789062,5.863999843597412
1621583988844,-3.009999990463257,12.687000274658203,-7.855999946594238,0.5490000247955322,-8.07699966430664,5.824999809265137
1621583988854,-3.7799999713897705,12.14799976348877,-6.814000129699707,0.5490000247955322,-7.954999923706055,5.807000160217285
1621583988864,-4.199999809265137,11.230999946594238,-6.052000045776367,0.5490000247955322,-7.960999965667725,5.8460001945495605
1621583988874,-3.9200000762939458,11.029000282287598,-6.513999938964844,0.5879999995231628,-7.940999984741211,5.730000019073486
1621583988884,-3.430000066757202,10.55799961090088,-6.668000221252441,0.5879999995231628,-7.9089999198913565,5.775000095367432
1621583988894,-2.940000057220459,9.637999534606934,-6.688000202178955,0.5490000247955322,-7.804999828338623,5.633999824523926
1621583988904,-2.799999952316284,8.543000221252441,-6.526000022888184,0.6280000209808348,-7.849999904632568,5.665999889373779
1621583988914,-2.5899999141693115,7.686999797821045,-7.315999984741211,0.6669999957084655,-7.842999935150147,5.626999855041504
1621583988924,-2.6600000858306885,7.00600004196167,-7.080999851226807,0.6669999957084655,-7.811999797821045,5.672999858856201
1621583988934,-2.380000114440918,6.203000068664551,-6.156000137329102,0.6280000209808348,-7.901999950408936,5.736000061035156
1621583988944,-2.309999942779541,5.995999813079834,-6.192999839782715,0.5879999995231628,-7.973000049591064,5.684000015258789
1621583988954,-1.8899999856948853,5.843999862670898,-5.935500144958496,0.5879999995231628,-7.934000015258789,5.690999984741211
1621583988964,-1.4700000286102295,5.691999912261963,-5.677999973297119,0.5099999904632568,-7.915999889373779,5.814000129699707
1621583988974,-0.9100000262260436,5.697000026702881,-4.894999980926514,0.5099999904632568,-7.954999923706055,5.807000160217285
1621583988984,-0.7699999809265136,5.7129998207092285,-4.181000232696533,0.5490000247955322,-7.986000061035157,5.761000156402588
1621583988994,-1.0499999523162842,5.729000091552734,-4.676000118255615,0.5490000247955322,-8.050000190734863,5.671000003814697
1621583989004,-1.9600000381469729,5.6479997634887695,-4.61899995803833,0.4709999859333038,-8.064000129699707,5.748000144958496
1621583989014,-2.940000057220459,5.894999980926514,-4.006999969482422,0.4709999859333038,-8.01099967956543,5.677000045776367
1621583989024,-3.5,6.146999835968018,-3.821000099182129,0.5099999904632568,-8.01099967956543,5.677000045776367
1621583989034,-3.9200000762939458,6.361999988555908,-3.427000045776367,0.5099999904632568,-8.005000114440918,5.638999938964844
1621583989044,-4.269999980926514,6.394000053405762,-3.2079999446868896,0.4709999859333038,-7.921000003814697,5.613999843597412
1621583989054,-3.2899999618530273,6.61299991607666,-4.448999881744385,0.4709999859333038,-7.881999969482423,5.620999813079834
1621583989064,-2.450000047683716,7.362999916076661,-4.671999931335449,0.5099999904632568,-7.842999935150147,5.626999855041504
1621583989074,-1.9600000381469729,7.655000209808349,-5.118000030517578,0.4709999859333038,-7.811999797821045,5.672999858856201
1621583989084,-1.0499999523162842,8.10099983215332,-6.034999847412109,0.5099999904632568,-7.842999935150147,5.626999855041504
1621583989094,-0.699999988079071,8.197999954223633,-6.585999965667725,0.5099999904632568,-7.881999969482423,5.620999813079834
1621583989104,-0.7699999809265136,8.185999870300293,-6.51800012588501,0.5490000247955322,-7.959000110626221,5.60699987411499
1621583989114,-1.399999976158142,7.103000164031982,-6.423999786376953,0.5879999995231628,-7.959000110626221,5.60699987411499
1621583989124,-2.450000047683716,6.665999889373779,-6.359000205993652,0.5879999995231628,-8.043000221252441,5.631999969482422
1621583989134,-2.799999952316284,5.97599983215332,-6.480999946594238,0.6280000209808348,-8.03600025177002,5.5929999351501465
1621583989144,-2.7649998664855957,5.811999797821045,-6.758500099182129,0.5879999995231628,-7.959000110626221,5.60699987411499
1621583989154,-2.7300000190734863,5.6479997634887695,-7.035999774932861,0.5879999995231628,-7.959000110626221,5.60699987411499
1621583989164,-2.309999942779541,6.145999908447266,-7.44600009918213,0.5879999995231628,-7.927000045776368,5.6519999504089355
1621583989174,-1.9600000381469729,6.110000133514404,-8.446999549865723,0.5099999904632568,-7.849999904632568,5.665999889373779
1621583989184,-0.8399999737739563,6.446000099182129,-8.743000030517578,0.5490000247955322,-7.875,5.581999778747559
1621583989194,0.1400000005960464,6.328999996185303,-8.479999542236328,0.4709999859333038,-7.836999893188477,5.589000225067139
1621583989204,1.1200000047683716,6.73799991607666,-7.980999946594238,0.4709999859333038,-7.875,5.581999778747559
1621583989214,1.4700000286102295,6.90500020980835,-7.311999797821045,0.4309999942779541,-7.959000110626221,5.60699987411499
1621583989224,1.5399999618530271,7.244999885559082,-6.826000213623047,0.4709999859333038,-8.03600025177002,5.5929999351501465
1621583989234,1.0499999523162842,7.954999923706055,-6.415999889373779,0.4309999942779541,-8.074999809265137,5.586999893188477
1621583989244,0.5600000023841857,8.510000228881836,-6.744999885559082,0.4309999942779541,-8.081999778747559,5.625
1621583989254,0.2800000011920929,8.835000038146973,-6.9720001220703125,0.4709999859333038,-8.074999809265137,5.586999893188477
1621583989264,-0.3499999940395355,9.616999626159668,-6.97599983215332,0.4709999859333038,-8.03600025177002,5.5929999351501465
1621583989274,-0.5600000023841857,9.491999626159668,-7.068999767303467,0.4709999859333038,-7.998000144958496,5.599999904632568
1621583989284,-0.4199999868869781,9.597000122070312,-7.263999938964843,0.4709999859333038,-7.959000110626221,5.60699987411499
1621583989294,0.0700000002980232,9.585000038146973,-7.195000171661377,0.4309999942779541,-7.914000034332275,5.574999809265137
1621583989304,0.8399999737739563,9.265000343322754,-7.394000053405762,0.4709999859333038,-7.868000030517577,5.543000221252441
1621583989314,1.75,9.215999603271484,-7.118000030517578,0.4709999859333038,-7.829999923706055,5.550000190734863
1621583989324,2.940000057220459,9.184000015258787,-7.336999893188477,0.3529999852180481,-7.829999923706055,5.550000190734863
1621583989334,3.3949999809265137,9.327499389648438,-7.347000122070312,0.3529999852180481,-7.842999935150147,5.626999855041504
1621583989344,3.849999904632568,9.470999717712402,-7.35699987411499,0.3919999897480011,-7.881999969482423,5.620999813079834
1621583989354,4.269999980926514,9.31700038909912,-6.88700008392334,0.3919999897480011,-7.888999938964843,5.658999919891357
1621583989364,4.409999847412109,9.093999862670898,-6.427999973297119,0.3919999897480011,-7.973000049591064,5.684000015258789
1621583989374,4.130000114440918,8.206000328063965,-6.230000019073486,0.4309999942779541,-7.973000049591064,5.684000015258789
1621583989384,3.569999933242798,7.686999797821045,-6.107999801635742,0.3919999897480011,-8.043000221252441,5.631999969482422
1621583989394,3.5,7.505000114440918,-6.2820000648498535,0.3919999897480011,-8.050000190734863,5.671000003814697
1621583989404,3.1500000953674316,7.314000129699707,-6.813000202178955,0.3529999852180481,-8.126999855041504,5.6570000648498535
1621583989414,2.380000114440918,7.359000205993653,-6.663000106811523,0.3529999852180481,-8.08899974822998,5.664000034332275
1621583989424,1.3300000429153442,7.256999969482423,-6.894000053405762,0.3140000104904174,-8.081999778747559,5.625
1621583989434,0.4900000095367431,7.480000019073486,-7.353000164031982,0.3529999852180481,-8.074999809265137,5.586999893188477
1621583989444,-0.209999993443489,7.881999969482423,-7.210999965667725,0.3919999897480011,-8.043000221252441,5.631999969482422
1621583989454,-0.2800000011920929,7.994999885559082,-7.048999786376953,0.3529999852180481,-8.01099967956543,5.677000045776367
1621583989464,-0.3499999940395355,7.633999824523927,-7.822999954223632,0.3919999897480011,-7.927000045776368,5.6519999504089355
1621583989474,0.6299999952316284,7.455999851226807,-8.42300033569336,0.3529999852180481,-7.842999935150147,5.626999855041504
1621583989484,1.399999976158142,7.630000114440918,-8.605999946594238,0.3529999852180481,-7.842999935150147,5.626999855041504
1621583989494,2.0999999046325684,7.967000007629395,-8.902000427246094,0.3919999897480011,-7.836999893188477,5.589000225067139
1621583989504,2.6600000858306885,7.974999904632568,-8.545000076293945,0.3529999852180481,-7.875,5.581999778747559
1621583989514,3.009999990463257,8.0600004196167,-7.818999767303467,0.3140000104904174,-7.914000034332275,5.574999809265137
1621583989524,3.2899999618530273,8.13700008392334,-7.449999809265136,0.3919999897480011,-7.94600009918213,5.53000020980835
1621583989534,3.3249998092651367,8.082500457763672,-7.139999866485596,0.3919999897480011,-7.959000110626221,5.60699987411499
1621583989544,3.359999895095825,8.027999877929688,-6.829999923706055,0.3919999897480011,-7.959000110626221,5.60699987411499
1621583989554,2.940000057220459,7.297999858856201,-6.318999767303467,0.4709999859333038,-7.914000034332275,5.574999809265137
1621583989564,3.009999990463257,6.710000038146973,-6.209000110626221,0.4309999942779541,-7.952000141143799,5.567999839782715
1621583989574,2.869999885559082,6.215000152587891,-6.224999904632568,0.4709999859333038,-7.914000034332275,5.574999809265137
1621583989584,2.869999885559082,5.363999843597412,-6.232999801635742,0.4309999942779541,-7.914000034332275,5.574999809265137
1621583989594,3.2200000286102295,4.9710001945495605,-6.01800012588501,0.4309999942779541,-7.914000034332275,5.574999809265137
1621583989604,3.2200000286102295,4.642000198364258,-6.573999881744385,0.3919999897480011,-7.914000034332275,5.574999809265137
1621583989614,2.869999885559082,4.301000118255615,-7.059999942779541,0.3919999897480011,-7.959000110626221,5.60699987411499
1621583989624,2.240000009536743,4.223999977111816,-7.42899990081787,0.3529999852180481,-7.991000175476073,5.561999797821045
1621583989634,1.6799999475479126,4.085999965667725,-7.453999996185303,0.3919999897480011,-7.998000144958496,5.599999904632568
1621583989644,1.2599999904632568,4.434999942779541,-7.818999767303467,0.3919999897480011,-8.043000221252441,5.631999969482422
1621583989654,0.6299999952316284,4.918000221252441,-7.734000205993653,0.3529999852180481,-8.043000221252441,5.631999969482422
1621583989664,0.4199999868869781,5.501999855041504,-7.416999816894531,0.3919999897480011,-8.005000114440918,5.638999938964844
1621583989674,0.0700000002980232,5.88700008392334,-6.781000137329102,0.3919999897480011,-8.08899974822998,5.664000034332275
1621583989684,-0.3499999940395355,6.665999889373779,-6.359000205993652,0.4309999942779541,-8.057000160217285,5.709000110626221
1621583989694,-0.7699999809265136,6.855999946594238,-5.828000068664551,0.4309999942779541,-8.08899974822998,5.664000034332275
1621583989704,-1.2599999904632568,6.665999889373779,-5.151000022888184,0.3919999897480011,-8.050000190734863,5.671000003814697
1621583989714,-1.4700000286102295,6.815999984741211,-5.195000171661377,0.3919999897480011,-8.081999778747559,5.625
1621583989724,-1.6100000143051147,7.034999847412109,-5.228000164031982,0.3919999897480011,-8.03600025177002,5.5929999351501465
1621583989734,-1.75,7.0914998054504395,-5.147000312805176,0.3919999897480011,-7.991000175476073,5.561999797821045
1621583989744,-1.8899999856948853,7.1479997634887695,-5.065999984741211,0.4309999942779541,-7.94600009918213,5.53000020980835
1621583989754,-1.9600000381469729,7.144000053405762,-4.639999866485596,0.3919999897480011,-7.94600009918213,5.53000020980835
1621583989764,-1.6100000143051147,6.743000030517578,-4.7820000648498535,0.3529999852180481,-7.94600009918213,5.53000020980835
1621583989774,-1.399999976158142,6.507999897003174,-4.255000114440918,0.3529999852180481,-7.939000129699707,5.491000175476074
1621583989784,-1.1200000047683716,6.1020002365112305,-3.9709999561309814,0.3919999897480011,-7.94600009918213,5.53000020980835
1621583989794,-1.399999976158142,5.997000217437744,-3.776000022888184,0.3529999852180481,-7.907000064849853,5.5370001792907715
1621583989804,-1.0499999523162842,5.789999961853027,-3.812000036239624,0.3529999852180481,-7.921000003814697,5.613999843597412
1621583989814,-0.9100000262260436,6.1020002365112305,-3.9709999561309814,0.3529999852180481,-7.914000034332275,5.574999809265137
1621583989824,-0.5600000023841857,6.0980000495910645,-4.752999782562256,0.3529999852180481,-7.914000034332275,5.574999809265137
1621583989834,-0.1400000005960464,5.340000152587891,-4.88700008392334,0.3529999852180481,-7.998000144958496,5.599999904632568
1621583989844,0.1400000005960464,4.663000106811523,-5.077000141143799,0.3919999897480011,-8.005000114440918,5.638999938964844
1621583989854,0.0700000002980232,4.540999889373779,-5.5970001220703125,0.3529999852180481,-7.991000175476073,5.561999797821045
1621583989864,-0.2800000011920929,4.11899995803833,-6.026000022888184,0.3140000104904174,-7.998000144958496,5.599999904632568
1621583989874,-0.3499999940395355,4.123000144958496,-6.452000141143799,0.3140000104904174,-7.959000110626221,5.60699987411499
1621583989884,-0.209999993443489,4.39900016784668,-6.4029998779296875,0.3140000104904174,-7.875,5.581999778747559
1621583989894,-0.0700000002980232,4.698999881744385,-6.493000030517578,0.2750000059604644,-7.868000030517577,5.543000221252441
1621583989904,0.4900000095367431,5.039999961853027,-6.00600004196167,0.2750000059604644,-7.900000095367432,5.498000144958496
1621583989914,1.3300000429153442,4.763999938964844,-6.054999828338623,0.2750000059604644,-7.932000160217285,5.452000141143799
1621583989924,1.399999976158142,5.214000225067139,-6.189000129699707,0.2349999994039535,-7.932000160217285,5.452000141143799
1621583989934,1.75,5.234000205993652,-5.901000022888184,0.2349999994039535,-7.984000205993653,5.5229997634887695
1621583989944,2.0999999046325684,5.254000186920166,-5.61299991607666,0.2750000059604644,-7.984000205993653,5.5229997634887695
1621583989954,2.240000009536743,5.343999862670898,-5.313000202178955,0.2349999994039535,-7.914000034332275,5.574999809265137
1621583989964,2.5199999809265137,5.701000213623047,-5.321000099182129,0.2349999994039535,-7.991000175476073,5.561999797821045
1621583989974,2.6600000858306885,6.5279998779296875,-5.175000190734863,0.2349999994039535,-8.01099967956543,5.677000045776367
1621583989984,2.309999942779541,6.640999794006348,-5.013000011444092,0.2349999994039535,-8.050000190734863,5.671000003814697
1621583989994,1.8200000524520872,6.482999801635742,-5.324999809265137,0.3140000104904174,-8.126999855041504,5.6570000648498535
1621583990004,0.9800000190734864,6.271999835968018,-4.935999870300293,0.4309999942779541,-8.166000366210938,5.650000095367432
1621583990014,-0.2800000011920929,5.709000110626221,-3.7560000419616695,0.3919999897480011,-8.126999855041504,5.6570000648498535
1621583990024,-1.2599999904632568,5.372000217437744,-3.4600000381469727,0.3919999897480011,-8.043000221252441,5.631999969482422
1621583990034,-1.8899999856948853,4.309999942779541,-3.078000068664551,0.3919999897480011,-8.050000190734863,5.671000003814697
1621583990044,-2.5199999809265137,3.9089999198913574,-3.2200000286102295,0.3919999897480011,-8.005000114440918,5.638999938964844
1621583990054,-3.2899999618530273,3.121999979019165,-2.7899999618530273,0.3140000104904174,-7.973000049591064,5.684000015258789
1621583990064,-3.2899999618530273,2.7330000400543213,-3.000999927520752,0.3919999897480011,-7.934000015258789,5.690999984741211
1621583990074,-3.2200000286102295,2.424000024795532,-3.2690000534057617,0.3919999897480011,-7.895999908447266,5.697999954223633
1621583990084,-2.869999885559082,1.9780000448226929,-3.561000108718872,0.3529999852180481,-7.940999984741211,5.730000019073486
1621583990094,-2.799999952316284,1.8159999847412107,-3.447000026702881,0.2750000059604644,-7.901999950408936,5.736000061035156
1621583990104,-2.5899999141693115,1.565000057220459,-3.6329998970031734,0.3140000104904174,-7.947999954223632,5.76800012588501
1621583990114,-2.450000047683716,1.434999942779541,-3.3010001182556152,0.2750000059604644,-7.980000019073486,5.7230000495910645
1621583990124,-2.5199999809265137,0.9480000138282776,-2.9600000381469727,0.2750000059604644,-8.064000129699707,5.748000144958496
1621583990134,-2.65999984741211,0.8144999742507933,-2.805999994277954,0.3140000104904174,-8.071000099182129,5.785999774932861
1621583990144,-2.799999952316284,0.6809999942779541,-2.6519999504089355,0.3140000104904174,-8.07699966430664,5.824999809265137
1621583990154,-3.2200000286102295,0.3889999985694885,-2.2060000896453857,0.2750000059604644,-8.07699966430664,5.824999809265137
1621583990164,-3.7799999713897705,0.101000003516674,-2.186000108718872,0.2750000059604644,-8.038999557495117,5.831999778747559
1621583990174,-4.269999980926514,-0.1340000033378601,-1.6579999923706057,0.3140000104904174,-8.0,5.839000225067139
1621583990184,-4.619999885559082,-0.2840000092983245,-1.6139999628067017,0.3140000104904174,-8.0,5.839000225067139
1621583990194,-4.619999885559082,-0.6169999837875366,-1.74399995803833,0.3529999852180481,-8.083999633789062,5.863999843597412
1621583990204,-4.690000057220459,-0.6330000162124633,-1.2489999532699585,0.3529999852180481,-8.13599967956543,5.934000015258789
1621583990214,-5.039999961853027,-1.1230000257492063,-0.4819999933242797,0.3919999897480011,-8.13599967956543,5.934000015258789
1621583990224,-5.110000133514404,-1.440000057220459,0.1019999980926513,0.4309999942779541,-8.142999649047852,5.9730000495910645
1621583990234,-6.159999847412109,-2.4170000553131104,1.2089999914169312,0.3919999897480011,-8.142999649047852,5.9730000495910645
1621583990244,-7.769999980926514,-3.625,2.4170000553131104,0.4309999942779541,-8.142999649047852,5.9730000495910645
1621583990254,-8.329999923706055,-4.488999843597412,2.4779999256134033,0.3529999852180481,-8.163999557495117,6.089000225067139
1621583990264,-9.449999809265137,-6.005000114440918,2.2109999656677246,0.3919999897480011,-8.079999923706055,6.064000129699707
1621583990273,-10.079999923706056,-7.002999782562256,1.8220000267028809,0.3919999897480011,-8.125,6.0960001945495605
1621583990283,-11.130000114440918,-7.902999877929688,2.0889999866485596,0.3919999897480011,-8.170000076293945,6.126999855041504
1621583990293,-11.899999618530272,-8.616999626159668,2.1059999465942383,0.4309999942779541,-8.163999557495117,6.089000225067139
1621583990303,-12.739999771118164,-9.39099979400635,2.4670000076293945,0.4709999859333038,-8.20199966430664,6.081999778747559
1621583990313,-13.720000267028809,-10.659999847412108,2.812000036239624,0.4709999859333038,-8.248000144958496,6.113999843597412
1621583990323,-15.470000267028809,-11.767000198364258,3.0429999828338623,0.4709999859333038,-8.331999778747559,6.138999938964844
1621583990333,-16.450000762939453,-12.343000411987305,3.0834999084472656,0.5490000247955322,-8.383999824523926,6.209000110626221
1621583990343,-17.43000030517578,-12.918999671936035,3.124000072479248,0.6280000209808348,-8.42300033569336,6.202000141143799
1621583990353,-19.739999771118164,-15.42099952697754,3.60700011253357,0.6669999957084655,-8.376999855041504,6.171000003814697
1621583990363,-22.1200008392334,-18.113000869750977,4.767000198364258,0.7059999704360961,-8.35200023651123,6.255000114440918
1621583990373,-23.59000015258789,-20.68400001525879,5.23799991607666,0.7850000262260437,-8.345000267028809,6.216000080108643
1621583990383,-24.36000061035156,-23.756999969482425,5.335999965667725,0.8240000009536743,-8.314000129699707,6.261000156402588
1621583990393,-24.63999938964844,-26.75,5.376999855041504,0.8629999756813049,-8.359000205993652,6.293000221252441
1621583990403,-25.270000457763672,-30.334999084472656,5.953000068664551,1.0199999809265137,-8.404000282287598,6.324999809265137
1621583990413,-25.899999618530273,-34.54800033569336,7.270999908447266,1.2549999952316284,-8.534000396728516,6.381999969482422
1621583990423,-27.93000030517578,-40.14300155639648,8.772000312805176,1.4119999408721924,-8.572999954223633,6.375
1621583990433,-30.450000762939453,-46.54999923706055,10.840999603271484,1.491000056266785,-8.527000427246094,6.3429999351501465
1621583990443,-32.54999923706055,-53.09400177001953,12.88599967956543,1.5299999713897705,-8.513999938964844,6.265999794006348
1621583990453,-34.720001220703125,-60.125,14.062999725341797,1.491000056266785,-8.42300033569336,6.202000141143799
1621583990463,-36.400001525878906,-66.26499938964844,14.614999771118164,1.4119999408721924,-8.293000221252441,6.145999908447266
1621583990473,-37.2400016784668,-71.56400299072266,15.244999885559082,1.2549999952316284,-8.163999557495117,6.089000225067139
1621583990483,-37.16999816894531,-75.50599670410156,15.82900047302246,1.0980000495910645,-8.149999618530273,6.011000156402588
1621583990493,-37.16999816894531,-78.42900085449219,15.881999969482422,0.981000006198883,-8.130000114440918,5.895999908447266
1621583990503,-37.52000045776367,-80.36799621582033,16.39299964904785,0.8629999756813049,-8.140999794006348,5.734000205993652
1621583990513,-37.029998779296875,-81.37699890136719,17.281999588012695,0.7450000047683715,-8.121000289916992,5.618000030517578
1621583990523,-36.78499984741211,-81.55549621582033,17.889999389648438,0.5490000247955322,-8.04800033569336,5.432000160217285
1621583990533,-36.540000915527344,-81.73400115966797,18.49799919128418,0.5490000247955322,-7.949999809265136,5.329999923706055
1621583990543,-35.90999984741211,-80.75299835205078,18.173999786376953,0.4709999859333038,-7.954999923706055,5.130000114440918
1621583990553,-34.720001220703125,-79.4749984741211,18.18600082397461,0.4309999942779541,-7.947999954223632,5.091000080108643
1621583990563,-33.459999084472656,-77.87000274658203,17.545000076293945,0.3140000104904174,-8.057000160217285,5.0320000648498535
1621583990573,-32.27000045776367,-75.29499816894531,16.648000717163086,0.2349999994039535,-8.126999855041504,4.980000019073486
1621583990583,-31.149999618530273,-72.18499755859375,15.135000228881836,0.1570000052452087,-8.190999984741211,4.888999938964844
1621583990593,-30.309999465942383,-68.61699676513672,13.845000267028809,0.0390000008046627,-8.208999633789062,4.765999794006348
1621583990603,-29.469999313354492,-63.9010009765625,12.899999618530272,0.0,-8.149999618530273,4.6570000648498535
1621583990613,-28.350000381469727,-59.16899871826172,12.66800022125244,0.0,-8.13700008392334,4.579999923706055
1621583990623,-26.950000762939453,-54.257999420166016,11.828000068664553,-0.0390000008046627,-8.154999732971191,4.456999778747559
1621583990633,-25.270000457763672,-48.8489990234375,11.786999702453612,0.0390000008046627,-8.32800006866455,4.307000160217285
1621583990643,-23.65999984741211,-43.19200134277344,12.357999801635742,0.1570000052452087,-8.359000205993652,4.26200008392334
1621583990653,-22.190000534057617,-37.74599838256836,12.109000205993652,0.3140000104904174,-8.352999687194824,4.2230000495910645
1621583990663,-21.420000076293945,-33.86199951171875,11.444000244140623,0.4709999859333038,-8.345999717712402,4.184999942779541
1621583990673,-21.06999969482422,-30.5,11.326000213623049,0.5879999995231628,-8.447999954223633,4.086999893188477
1621583990683,-20.510000228881836,-28.038999557495117,11.475000381469728,0.7450000047683715,-8.472999572753906,4.002999782562256
1621583990693,-20.299999237060547,-26.113000869750977,11.032999992370604,0.8629999756813049,-8.491000175476074,3.880000114440918
1621583990703,-19.459999084472656,-24.742000579833984,10.918999671936035,0.9409999847412108,-8.477999687194824,3.802999973297119
1621583990713,-18.34000015258789,-24.15399932861328,10.8100004196167,0.9409999847412108,-8.555000305175781,3.7890000343322754
1621583990723,-17.56999969482422,-23.76499938964844,10.416500091552734,0.9409999847412108,-8.593000411987305,3.7820000648498535
1621583990733,-16.799999237060547,-23.375999450683594,10.02299976348877,0.8629999756813049,-8.748000144958496,3.755000114440918
1621583990743,-15.399999618530272,-22.93400001525879,8.324000358581543,0.8240000009536743,-8.987000465393066,3.753000020980835
1621583990753,-14.699999809265137,-22.135000228881836,6.617000102996826,0.7450000047683715,-9.071000099182127,3.7780001163482666
1621583990763,-14.140000343322754,-20.590999603271484,5.111999988555908,0.6669999957084655,-9.154999732971191,3.802999973297119
1621583990773,-13.649999618530272,-18.405000686645508,4.005000114440918,0.5879999995231628,-9.192999839782717,3.7960000038146977
1621583990783,-13.369999885559082,-15.91100025177002,3.1649999618530273,0.5490000247955322,-9.14099979400635,3.7260000705718994
1621583990793,-13.300000190734863,-12.842000007629396,2.2850000858306885,0.5099999904632568,-9.133999824523924,3.687000036239624
1621583990803,-13.649999618530272,-9.35099983215332,1.8339999914169312,0.4709999859333038,-9.121000289916992,3.6099998950958256
1621583990813,-14.420000076293944,-5.247000217437744,2.3450000286102295,0.4709999859333038,-9.029999732971191,3.5460000038146973
1621583990823,-14.909999847412108,-1.3539999723434448,2.0360000133514404,0.4709999859333038,-8.984000205993652,3.513999938964844
1621583990833,-15.329999923706056,2.640000104904175,0.75,0.4709999859333038,-9.05500030517578,3.461999893188477
1621583990843,-15.329999923706056,6.422999858856201,-0.1469999998807907,0.4309999942779541,-9.163999557495115,3.4030001163482666
1621583990853,-15.960000038146973,10.413000106811523,-1.006999969482422,0.4309999942779541,-9.125,3.4100000858306885
1621583990863,-17.5,14.524999618530272,-2.556999921798706,0.3919999897480011,-9.163999557495115,3.4030001163482666
1621583990873,-19.31999969482422,18.35199928283691,-4.51200008392334,0.2750000059604644,-9.149999618530272,3.325999975204468
1621583990883,-21.280000686645508,22.788000106811523,-6.288000106811523,0.1959999948740005,-9.137000083923342,3.247999906539917
1621583990893,-23.309999465942383,27.608999252319336,-7.42899990081787,0.1180000007152557,-9.130000114440918,3.2100000381469727
1621583990903,-25.1299991607666,32.87300109863281,-9.059000015258787,0.0,-9.07800006866455,3.138999938964844
1621583990913,-26.670000076293945,39.10100173950195,-10.520000457763672,-0.0780000016093254,-9.012000083923342,2.9920001029968266
1621583990923,-27.299999237060547,42.37300109863281,-10.937999725341797,-0.0780000016093254,-9.04300022125244,2.946000099182129
1621583990933,-27.93000030517578,45.64500045776367,-11.355999946594238,0.0,-9.029999732971191,2.86899995803833
1621583990943,-29.1200008392334,52.06399917602539,-12.28600025177002,0.0390000008046627,-9.067999839782717,2.861999988555908
1621583990953,-30.65999984741211,58.36600112915039,-12.95199966430664,0.0780000016093254,-9.093999862670898,2.7780001163482666
1621583990963,-32.27000045776367,64.42400360107422,-13.446999549865724,0.0780000016093254,-9.196000099182127,2.680000066757202
1621583990973,-33.38999938964844,70.22200012207031,-14.486000061035156,0.1180000007152557,-9.26599979400635,2.628000020980835
1621583990983,-34.58000183105469,75.86699676513672,-16.26300048828125,0.1570000052452087,-9.336999893188477,2.575999975204468
1621583990993,-36.2599983215332,81.36100006103516,-17.9950008392334,0.1180000007152557,-9.368000030517578,2.5299999713897705
1621583991003,-37.65999984741211,86.55899810791016,-20.06399917602539,0.0780000016093254,-9.439000129699709,2.4779999256134033
1621583991013,-38.91999816894531,92.34500122070312,-22.242000579833984,0.0390000008046627,-9.425000190734863,2.4010000228881836
1621583991023,-40.040000915527344,98.1959991455078,-23.982999801635746,0.0,-9.48900032043457,2.309999942779541
1621583991033,-41.02000045776367,104.39199829101562,-25.66200065612793,-0.0390000008046627,-9.572999954223633,2.3350000381469727
1621583991043,-41.29999923706055,110.29599761962892,-26.895999908447266,-0.0390000008046627,-9.642999649047852,2.2829999923706055
1621583991053,-41.790000915527344,116.3219985961914,-28.819000244140625,0.0,-9.906999588012695,2.196000099182129
1621583991063,-41.790000915527344,122.7480010986328,-30.600000381469727,-0.0780000016093254,-10.074999809265137,2.246000051498413
1621583991073,-41.369998931884766,128.3520050048828,-30.535999298095703,-0.1959999948740005,-10.074999809265137,2.246000051498413
1621583991083,-41.58000183105469,134.3419952392578,-31.042999267578125,-0.2349999994039535,-9.836999893188477,2.249000072479248
1621583991093,-41.86000061035156,140.87399291992188,-33.01900100708008,-0.2349999994039535,-9.482000350952148,2.2709999084472656
1621583991103,-42.06999969482422,147.32899475097656,-35.36399841308594,-0.1570000052452087,-9.012000083923342,2.313999891281128
1621583991113,-41.93000030517578,153.31399536132812,-37.862998962402344,-0.1180000007152557,-8.631999969482422,2.4210000038146973
1621583991123,-40.31999969482422,158.2969970703125,-39.11600112915039,-0.1180000007152557,-8.329999923706055,2.513999938964844
1621583991133,-37.310001373291016,162.46200561523435,-40.15900039672851,-0.1180000007152557,-8.27299976348877,2.6440000534057617
1621583991143,-33.66999816894531,166.33399963378906,-41.9640007019043,-0.0780000016093254,-8.357000350952148,2.6689999103546143
1621583991153,-32.095001220703125,167.92550659179688,-42.92749786376953,0.0390000008046627,-8.51200008392334,2.6419999599456787
1621583991163,-30.520000457763672,169.51699829101562,-43.89099884033203,0.1570000052452087,-8.737000465393066,2.562000036239624
1621583991173,-28.420000076293945,172.00599670410156,-45.51300048828125,0.3529999852180481,-9.031999588012695,2.430000066757202
1621583991183,-28.06999969482422,173.01600646972656,-46.4010009765625,0.5099999904632568,-9.25,2.312000036239624
1621583991193,-28.979999542236328,172.57000732421875,-45.48500061035156,0.6280000209808348,-9.314000129699709,2.2209999561309814
1621583991203,-30.729999542236328,171.35400390625,-43.42399978637695,0.8629999756813049,-9.33899974822998,2.13700008392334
1621583991213,-32.619998931884766,169.10000610351562,-41.12099838256836,1.0590000152587893,-9.20300006866455,2.0420000553131104
1621583991223,-34.22999954223633,165.5760040283203,-39.680999755859375,1.1380000114440918,-9.196000099182127,2.003000020980835
1621583991233,-34.650001525878906,160.68600463867188,-37.345001220703125,1.2549999952316284,-9.279999732971191,2.0280001163482666
1621583991243,-34.15999984741211,155.281005859375,-35.3120002746582,1.215999960899353,-9.312000274658203,1.9830000400543213
1621583991253,-32.689998626708984,149.45399475097656,-32.500999450683594,1.2940000295639038,-9.343999862670898,1.937000036239624
1621583991263,-30.170000076293945,143.46600341796875,-29.57699966430664,1.3339999914169312,-9.291000366210936,1.8669999837875368
1621583991273,-26.950000762939453,137.10800170898435,-26.575000762939453,1.4119999408721924,-9.20699977874756,1.8420000076293943
1621583991283,-23.239999771118164,130.45799255371094,-23.128000259399418,1.4119999408721924,-9.154999732971191,1.7710000276565552
1621583991293,-18.969999313354492,123.65799713134766,-19.635000228881836,1.4509999752044678,-9.116000175476074,1.7779999971389773
1621583991303,-14.699999809265137,116.7490005493164,-16.731000900268555,1.4509999752044678,-9.102999687194824,1.7009999752044678
1621583991313,-10.359999656677246,109.71399688720705,-13.920000076293944,1.4119999408721924,-9.135000228881836,1.656000018119812
1621583991323,-6.440000057220459,103.13700103759766,-12.093999862670898,1.4119999408721924,-9.288999557495115,1.628000020980835
1621583991333,-3.1500000953674316,96.8280029296875,-10.57699966430664,1.3339999914169312,-9.321000099182127,1.5829999446868896
1621583991343,-0.5600000023841857,90.19000244140624,-9.614999771118164,1.2940000295639038,-9.307000160217283,1.50600004196167
1621583991353,1.4700000286102295,83.86799621582033,-9.237000465393066,1.215999960899353,-9.33199977874756,1.4220000505447388
1621583991363,2.0999999046325684,77.875,-8.303000450134277,1.215999960899353,-9.40999984741211,1.4079999923706057
1621583991373,2.2049999237060547,75.02249908447266,-7.846500396728516,1.1770000457763672,-9.557000160217283,1.3420000076293943
1621583991383,2.309999942779541,72.16999816894531,-7.389999866485595,1.0980000495910645,-9.628000259399414,1.2899999618530271
1621583991393,1.9600000381469729,66.20500183105469,-7.019999980926514,1.0199999809265137,-9.704999923706056,1.2760000228881836
1621583991403,0.699999988079071,60.426998138427734,-6.9019999504089355,0.981000006198883,-9.737000465393066,1.2309999465942385
1621583991413,-0.9100000262260436,55.15900039672851,-6.053999900817871,0.8629999756813049,-9.897999763488768,1.2419999837875366
1621583991423,-2.7300000190734863,50.755001068115234,-6.474999904632568,0.7850000262260437,-9.968999862670898,1.190000057220459
1621583991433,-5.320000171661377,46.391998291015625,-7.527999877929688,0.7059999704360961,-10.038999557495115,1.1380000114440918
1621583991443,-8.050000190734863,42.417999267578125,-8.371000289916992,0.6669999957084655,-10.109000205993652,1.0850000381469729
1621583991453,-10.220000267028809,38.93899917602539,-9.197999954223633,0.5490000247955322,-10.064000129699709,1.0529999732971191
1621583991463,-12.31999969482422,36.01100158691406,-9.928000450134276,0.4709999859333038,-10.024999618530272,1.059999942779541
1621583991473,-14.210000038146973,34.465999603271484,-10.840000152587892,0.3140000104904174,-9.979999542236328,1.0279999971389773
1621583991483,-15.470000267028809,33.59400177001953,-11.13599967956543,0.2750000059604644,-9.895999908447264,1.003000020980835
1621583991493,-16.799999237060547,33.090999603271484,-11.508999824523926,0.1959999948740005,-9.895999908447264,1.003000020980835
1621583991503,-17.709999084472656,32.79100036621094,-11.418999671936035,0.2349999994039535,-9.928000450134276,0.9580000042915344
1621583991513,-18.969999313354492,32.1870002746582,-10.8149995803833,0.2349999994039535,-9.9350004196167,0.996999979019165
1621583991523,-20.3700008392334,31.197999954223633,-9.638999938964846,0.3140000104904174,-9.9350004196167,0.996999979019165
1621583991533,-21.559999465942383,29.92099952697754,-8.442999839782715,0.2349999994039535,-9.88199996948242,0.9259999990463256
1621583991543,-23.030000686645508,29.05299949645996,-7.955999851226807,0.1570000052452087,-9.92099952697754,0.9190000295639038
1621583991553,-24.709999084472656,28.5049991607666,-8.479000091552734,0.0390000008046627,-9.92099952697754,0.9190000295639038
1621583991563,-26.25,28.30299949645996,-8.940999984741211,-0.0390000008046627,-9.913999557495115,0.8809999823570251
1621583991573,-27.719999313354492,28.812999725341797,-9.420000076293944,-0.1180000007152557,-9.939000129699709,0.7969999909400939
1621583991583,-29.61000061035156,29.486000061035156,-10.01200008392334,-0.2349999994039535,-9.925000190734863,0.7189999818801879
1621583991593,-31.079999923706055,31.01099967956543,-10.595999717712402,-0.3140000104904174,-9.82800006866455,0.6169999837875366
1621583991603,-31.850000381469727,32.952999114990234,-11.532999992370604,-0.3529999852180481,-9.776000022888184,0.5469999909400939
1621583991613,-31.920000076293945,33.701499938964844,-11.54300022125244,-0.3919999897480011,-9.645999908447264,0.4900000095367431
1621583991623,-31.989999771118164,34.45000076293945,-11.553000450134276,-0.3529999852180481,-9.484999656677246,0.4790000021457672
1621583991633,-31.43000030517578,36.196998596191406,-11.38700008392334,-0.3919999897480011,-9.373000144958496,0.2989999949932098
1621583991643,-30.309999465942383,37.36100006103515,-11.538000106811523,-0.3529999852180481,-9.237000465393066,0.2039999961853027
1621583991653,-28.559999465942383,38.52899932861328,-12.11400032043457,-0.2750000059604644,-9.17099952697754,0.0560000017285346
1621583991663,-26.11000061035156,39.67599868774414,-12.97700023651123,-0.1180000007152557,-9.20300006866455,0.0099999997764825
1621583991673,-23.520000457763672,39.194000244140625,-11.854000091552734,0.0390000008046627,-9.18299961090088,-0.1059999987483024
1621583991683,-20.440000534057617,37.678001403808594,-9.704999923706056,0.2750000059604644,-9.3100004196167,-0.2870000004768371
1621583991693,-17.290000915527344,35.14799880981445,-6.241000175476074,0.4309999942779541,-9.380000114440918,-0.3400000035762786
1621583991703,-14.5600004196167,31.70599937438965,-2.440999984741211,0.5879999995231628,-9.404999732971191,-0.4239999949932098
1621583991713,-12.31999969482422,26.986000061035156,1.3470000028610227,0.7450000047683715,-9.508000373840332,-0.5210000276565551
1621583991723,-10.010000228881836,22.25900077819824,4.7779998779296875,0.8629999756813049,-9.57800006866455,-0.5740000009536743
1621583991733,-8.399999618530273,16.69099998474121,8.131999969482422,0.981000006198883,-9.602999687194824,-0.6579999923706054
1621583991743,-6.71999979019165,10.572999954223633,11.388999938964844,0.981000006198883,-9.642000198364256,-0.6639999747276306
1621583991753,-4.619999885559082,4.965000152587891,15.37600040435791,0.9020000100135804,-9.487000465393066,-0.637000024318695
1621583991763,-2.5899999141693115,-0.7480000257492065,18.349000930786133,0.7850000262260437,-9.333000183105469,-0.6100000143051147
1621583991773,-0.0700000002980232,-6.310999870300293,21.277000427246097,0.5879999995231628,-9.26900005340576,-0.5189999938011169
1621583991783,2.0999999046325684,-10.928999900817873,22.8799991607666,0.3140000104904174,-9.244000434875488,-0.4350000023841857
1621583991793,3.569999933242798,-14.45699977874756,23.53700065612793,0.1570000052452087,-9.746000289916992,-0.5239999890327453
1621583991803,4.059999942779541,-17.20599937438965,24.61599922180176,-0.2750000059604644,-10.80500030517578,-0.3919999897480011
1621583991813,2.380000114440918,-20.400999069213867,24.19499969482422,-0.3529999852180481,-10.359999656677246,-0.4329999983310699
1621583991823,0.209999993443489,-22.72100067138672,21.22699928283691,-0.4309999942779541,-9.83899974822998,-0.221000000834465
1621583991833,-0.7349999547004699,-23.24650001525879,20.174999237060547,-0.5490000247955322,-9.35099983215332,-0.0560000017285346
1621583991843,-1.6799999475479126,-23.77199935913086,19.12299919128418,-0.6280000209808348,-9.152999877929688,0.1790000051259994
1621583991853,-2.6600000858306885,-23.934999465942383,14.402999877929688,-0.6669999957084655,-9.135000228881836,0.3009999990463256
1621583991863,-1.1200000047683716,-23.79800033569336,5.9679999351501465,-0.5879999995231628,-9.154999732971191,0.4169999957084655
1621583991873,1.5399999618530271,-22.79700088500977,-1.319000005722046,-0.5490000247955322,-9.246000289916992,0.481000006198883
1621583991883,3.6400001049041744,-20.993999481201172,-5.90500020980835,-0.3919999897480011,-9.406999588012695,0.492000013589859
1621583991893,4.409999847412109,-19.802000045776367,-10.244000434875488,-0.3140000104904174,-9.593999862670898,0.4189999997615814
1621583991903,3.849999904632568,-18.208999633789062,-12.024999618530272,-0.2750000059604644,-9.663999557495115,0.367000013589859
1621583991913,2.240000009536743,-16.33099937438965,-12.190999984741213,-0.1570000052452087,-9.710000038146973,0.3989999890327453
1621583991923,0.4199999868869781,-13.987000465393066,-12.986000061035156,0.0390000008046627,-9.67099952697754,0.4059999883174896
1621583991933,-0.8399999737739563,-11.586999893188477,-13.699999809265137,0.1570000052452087,-9.63199996948242,0.4129999876022338
1621583991943,-1.399999976158142,-9.449999809265137,-14.531999588012695,0.3140000104904174,-9.54800033569336,0.3880000114440918
1621583991952,-0.8399999737739563,-7.114999771118164,-15.684000015258787,0.4709999859333038,-9.425999641418455,0.3689999878406524
1621583991962,0.2800000011920929,-5.181000232696533,-16.97800064086914,0.5879999995231628,-9.404999732971191,0.2540000081062316
1621583991972,2.0999999046325684,-2.9749999046325684,-17.797000885009766,0.7059999704360961,-9.437000274658203,0.2080000042915344
1621583991982,4.130000114440918,-0.9509999752044676,-17.582000732421875,0.8629999756813049,-9.57800006866455,0.1040000021457672
1621583991992,5.670000076293945,0.7839999794960022,-16.138999938964844,0.981000006198883,-9.68000030517578,0.006000000052154
1621583992002,7.139999866485596,1.8229999542236328,-15.173999786376951,1.1380000114440918,-9.866000175476074,-0.06700000166893
1621583992012,8.960000038146973,2.572999954223633,-14.189000129699709,1.2940000295639038,-10.027999877929688,-0.0549999997019767
1621583992022,10.079999923706056,3.0230000019073486,-13.11400032043457,1.3730000257492063,-9.982000350952148,-0.0869999974966049
1621583992032,10.010000228881836,2.496000051498413,-12.140999794006348,1.569000005722046,-9.878000259399414,-0.2280000001192092
1621583992042,11.409999847412108,1.5520000457763672,-10.8149995803833,1.687000036239624,-9.737000465393066,-0.123999997973442
1621583992052,13.020000457763672,-0.0989999994635581,-9.116000175476074,1.72599995136261,-9.621000289916992,-0.1030000001192092
1621583992062,13.720000267028809,-1.215999960899353,-7.820000171661377,1.7649999856948853,-9.512000083923342,-0.0439999997615814
1621583992072,14.420000076293944,-2.3329999446868896,-6.52400016784668,1.8040000200271609,-9.44200038909912,0.0080000003799796
1621583992082,15.68000030517578,-5.605000019073486,-3.688999891281128,1.8040000200271609,-9.33199977874756,0.06700000166893
1621583992092,17.010000228881836,-9.100000381469728,-1.6050000190734863,1.72599995136261,-9.197999954223633,0.209999993443489
1621583992102,18.6200008392334,-12.371999740600586,0.0219999998807907,1.6080000400543213,-9.17300033569336,0.2939999997615814
1621583992112,20.579999923706055,-15.494000434875488,0.395000010728836,1.491000056266785,-9.154999732971191,0.4169999957084655
1621583992122,22.329999923706055,-17.81399917602539,-0.1560000032186508,1.3730000257492063,-9.329999923706056,0.5059999823570251
1621583992132,23.940000534057617,-20.01099967956543,-0.1879999935626983,1.1770000457763672,-9.652999877929688,0.5289999842643737
1621583992142,24.43000030517578,-21.458999633789062,-0.4429999887943267,1.0199999809265137,-9.89099979400635,0.5260000228881835
1621583992152,23.309999465942383,-22.573999404907227,-0.5690000057220459,0.8629999756813049,-10.04599952697754,0.4990000128746032
1621583992162,21.13999938964844,-23.048999786376953,-1.5049999952316284,0.7450000047683715,-10.0600004196167,0.5759999752044677
1621583992172,18.969999313354492,-22.792999267578125,-1.7450000047683716,0.5879999995231628,-9.982000350952148,0.5899999737739563
1621583992182,17.360000610351562,-22.02300071716309,-2.888000011444092,0.5490000247955322,-9.975000381469728,0.5509999990463256
1621583992192,16.729999542236328,-20.875999450683594,-3.752000093460083,0.5099999904632568,-9.75699996948242,0.6690000295639038
1621583992202,16.520000457763672,-19.68400001525879,-4.466000080108643,0.5490000247955322,-9.531999588012695,0.7490000128746032
1621583992212,17.639999389648438,-18.621000289916992,-4.8470001220703125,0.5490000247955322,-9.40999984741211,0.731000006198883
1621583992222,19.25,-17.461999893188477,-5.78000020980835,0.5099999904632568,-9.215999603271484,0.7649999856948853
1621583992232,21.350000381469727,-16.167999267578125,-7.47100019454956,0.5099999904632568,-9.05500030517578,0.7530000209808348
1621583992242,24.219999313354492,-14.76099967956543,-9.0,0.5490000247955322,-8.939000129699707,0.7739999890327453
1621583992252,27.510000228881836,-13.022000312805176,-10.39900016784668,0.5879999995231628,-8.906999588012695,0.8190000057220459
1621583992262,30.3799991607666,-10.979000091552734,-12.312999725341797,0.5879999995231628,-8.87600040435791,0.865000009536743
1621583992272,32.83000183105469,-9.109000205993652,-14.045000076293944,0.7059999704360961,-8.979999542236328,1.00600004196167
1621583992282,33.775001525878906,-8.08549976348877,-14.611000061035156,0.7450000047683715,-9.109999656677246,1.062000036239624
1621583992292,34.720001220703125,-7.061999797821045,-15.177000045776367,0.8629999756813049,-9.291000366210936,1.190000057220459
1621583992302,35.70000076293945,-5.921999931335449,-15.189000129699709,0.9020000100135804,-9.375,1.2150000333786013
1621583992312,36.119998931884766,-5.123000144958496,-14.479999542236328,0.981000006198883,-9.58199977874756,1.2580000162124634
1621583992322,35.70000076293945,-4.705999851226807,-13.62399959564209,1.0980000495910645,-9.763999938964846,1.3849999904632568
1621583992332,33.880001068115234,-4.130000114440918,-13.664999961853027,1.1380000114440918,-9.939000129699709,1.4739999771118164
1621583992342,31.36000061035156,-4.230999946594238,-13.895999908447266,1.215999960899353,-10.121000289916992,1.60099995136261
1621583992352,27.510000228881836,-4.040999889373779,-14.572999954223633,1.215999960899353,-10.199999809265137,1.825999975204468
1621583992362,23.450000762939453,-3.7650001049041744,-14.52400016784668,1.2549999952316284,-10.265999794006348,1.9739999771118164
1621583992372,19.31999969482422,-3.8299999237060542,-13.753999710083008,1.2940000295639038,-10.29300022125244,2.128000020980835
1621583992382,16.239999771118164,-3.509000062942505,-12.347000122070312,1.2549999952316284,-10.267999649047852,2.211999893188477
1621583992392,13.300000190734863,-3.2249999046325684,-10.732999801635742,1.2549999952316284,-10.314000129699709,2.24399995803833
1621583992402,10.010000228881836,-2.7669999599456787,-9.302000045776367,1.2549999952316284,-10.359000205993652,2.2760000228881836
1621583992412,6.71999979019165,-2.559999942779541,-8.057000160217285,1.1770000457763672,-10.345999717712402,2.1989998817443848
1621583992422,3.5,-1.7769999504089355,-6.853000164031982,1.1770000457763672,-10.300000190734863,2.1670000553131104
1621583992432,0.6299999952316284,-0.9900000095367432,-6.073999881744385,1.1380000114440918,-10.208999633789062,2.1029999256134033
1621583992442,-2.0299999713897705,0.4410000145435333,-5.323999881744385,1.0980000495910645,-10.163999557495115,2.072000026702881
1621583992452,-3.7799999713897705,1.5850000381469729,-4.553999900817871,1.0980000495910645,-10.027999877929688,1.97599995136261
1621583992462,-5.320000171661377,2.5910000801086426,-3.8080000877380367,1.1380000114440918,-10.0,1.8220000267028809
1621583992472,-5.949999809265137,2.938999891281128,-2.9649999141693115,1.0980000495910645,-9.902999877929688,1.718999981880188
1621583992482,-5.880000114440918,2.9839999675750732,-1.6059999465942385,1.1380000114440918,-9.819000244140623,1.694000005722046
1621583992492,-5.53000020980835,2.9030001163482666,-0.3409999907016754,1.0980000495910645,-9.663999557495115,1.7220000028610227
1621583992502,-5.355000019073486,2.818000078201294,0.1415000110864639,1.0980000495910645,-9.619000434875488,1.690000057220459
1621583992512,-5.179999828338623,2.7330000400543213,0.6240000128746032,1.0590000152587893,-9.689000129699709,1.6369999647140503
1621583992522,-5.110000133514404,2.181999921798706,1.7350000143051147,1.0980000495910645,-9.689000129699709,1.6369999647140503
1621583992532,-5.53000020980835,1.256999969482422,2.1410000324249268,1.1380000114440918,-9.71399974822998,1.5529999732971191
1621583992542,-6.369999885559082,-0.0320000015199184,3.4059998989105225,1.1770000457763672,-9.843999862670898,1.6100000143051147
1621583992552,-7.489999771118165,-2.3389999866485596,5.203000068664551,1.1770000457763672,-9.972999572753906,1.6670000553131104
1621583992562,-8.1899995803833,-5.6479997634887695,7.035999774932861,1.1770000457763672,-9.913999557495115,1.5579999685287476
1621583992572,-8.819999694824219,-8.628000259399414,8.217000007629395,1.1380000114440918,-9.875,1.565000057220459
1621583992582,-9.729999542236328,-11.607999801635742,9.397000312805178,1.0590000152587893,-9.829999923706056,1.5329999923706057
1621583992592,-10.010000228881836,-14.288000106811523,10.48799991607666,0.9020000100135804,-9.661999702453612,1.4830000400543213
1621583992602,-9.65999984741211,-16.34000015258789,10.836999893188477,0.7059999704360961,-9.647999763488768,1.406000018119812
1621583992612,-9.170000076293944,-17.69499969482422,10.456000328063965,0.5490000247955322,-9.711999893188477,1.315000057220459
1621583992622,-9.029999732971191,-19.20299911499023,9.336999893188477,0.3919999897480011,-9.711999893188477,1.315000057220459
1621583992632,-8.539999961853027,-20.163999557495117,7.532999992370605,0.2750000059604644,-9.65999984741211,1.24399995803833
1621583992642,-8.539999961853027,-20.70800018310547,6.584000110626221,0.0780000016093254,-9.529999732971191,1.187000036239624
1621583992652,-8.609999656677246,-20.54199981689453,4.835999965667725,0.0,-9.39400005340576,1.0920000076293943
1621583992662,-8.399999618530273,-20.184999465942383,2.4110000133514404,-0.0780000016093254,-9.303000450134276,1.0279999971389773
1621583992672,-7.8400001525878915,-19.281000137329105,0.5099999904632568,-0.1180000007152557,-9.187000274658203,1.0490000247955322
1621583992682,-6.650000095367432,-17.996000289916992,-1.537999987602234,-0.1959999948740005,-9.064000129699709,1.031000018119812
1621583992692,-4.690000057220459,-16.520999908447266,-4.263999938964844,-0.1180000007152557,-8.994000434875488,1.0829999446868896
1621583992702,-2.799999952316284,-15.284000396728516,-6.035999774932861,-0.0780000016093254,-9.04599952697754,1.1529999971389773
1621583992712,-2.1700000762939453,-14.23799991607666,-7.13100004196167,-0.0390000008046627,-9.20699977874756,1.1649999618530271
1621583992722,-2.6600000858306885,-13.083000183105469,-8.845999717712402,0.0,-9.291000366210936,1.190000057220459
1621583992732,-3.1500000953674316,-12.41200065612793,-9.225500106811523,0.0780000016093254,-9.291000366210936,1.190000057220459
1621583992742,-3.6400001049041744,-11.741000175476074,-9.604999542236328,0.1570000052452087,-9.375,1.2150000333786013
1621583992752,-5.880000114440918,-9.892000198364256,-10.416000366210936,0.1959999948740005,-9.428000450134276,1.2849999666213987
1621583992762,-7.489999771118165,-8.736000061035156,-10.92300033569336,0.1959999948740005,-9.357000350952148,1.337000012397766
1621583992772,-7.699999809265136,-6.6479997634887695,-11.479000091552734,0.1959999948740005,-9.324999809265137,1.3830000162124634
1621583992782,-7.210000038146973,-4.458000183105469,-11.803000450134276,0.2750000059604644,-9.293999671936035,1.4279999732971191
1621583992792,-5.739999771118164,-1.8949999809265137,-11.42300033569336,0.3140000104904174,-9.215999603271484,1.4420000314712524
1621583992802,-4.340000152587891,0.2949999868869781,-10.538999557495115,0.3140000104904174,-9.13199996948242,1.4170000553131104
1621583992812,-3.2899999618530273,1.9529999494552612,-9.46500015258789,0.3529999852180481,-9.12600040435791,1.378000020980835
1621583992822,-3.009999990463257,3.880000114440918,-7.489999771118165,0.3919999897480011,-9.248000144958496,1.3969999551773071
1621583992832,-3.7100000381469727,5.355999946594238,-5.381999969482422,0.3529999852180481,-9.324999809265137,1.3830000162124634
1621583992842,-4.829999923706055,6.770999908447266,-4.13700008392334,0.3140000104904174,-9.36400032043457,1.3760000467300415
1621583992852,-6.440000057220459,7.626999855041504,-3.3459999561309814,0.3140000104904174,-9.40999984741211,1.4079999923706057
1621583992862,-8.050000190734863,8.255999565124512,-2.880000114440918,0.3140000104904174,-9.402999877929688,1.36899995803833
1621583992872,-9.59000015258789,9.508999824523924,-2.7300000190734863,0.2349999994039535,-9.402999877929688,1.36899995803833
1621583992882,-10.710000038146973,10.619999885559082,-2.178999900817871,0.1959999948740005,-9.395999908447264,1.3309999704360962
1621583992892,-11.199999809265137,11.42300033569336,-1.8949999809265137,0.0780000016093254,-9.350000381469728,1.2990000247955322
1621583992902,-10.989999771118164,12.54599952697754,-1.412999987602234,0.0780000016093254,-9.189000129699709,1.2869999408721924
1621583992912,-9.800000190734863,13.677000045776367,-1.781999945640564,0.0390000008046627,-9.14400005340576,1.25600004196167
1621583992922,-8.260000228881836,14.503999710083008,-1.6360000371932983,0.0390000008046627,-9.104999542236328,1.2619999647140503
1621583992932,-7.070000171661377,15.194000244140623,-2.7230000495910645,0.0390000008046627,-9.137000083923342,1.2170000076293943
1621583992942,-5.599999904632568,16.041000366210938,-4.705999851226807,0.0780000016093254,-9.329999923706056,1.1829999685287476
1621583992952,-4.760000228881836,16.222999572753906,-5.739999771118164,0.1180000007152557,-9.562000274658203,1.1419999599456787
1621583992962,-4.900000095367432,16.048999786376953,-6.765999794006348,0.1570000052452087,-9.663999557495115,1.0440000295639038
1621583992972,-5.880000114440918,15.828000068664553,-7.125,0.1959999948740005,-9.741000175476074,1.031000018119812
1621583992982,-6.860000133514404,15.607000350952148,-7.484000205993653,0.1959999948740005,-9.727999687194824,0.953000009059906
1621583992992,-10.359999656677246,15.359000205993652,-6.888000011444092,0.1959999948740005,-9.637000083923342,0.8899999856948853
1621583993002,-13.93000030517578,15.12399959564209,-6.360000133514404,0.2349999994039535,-9.50100040435791,0.7940000295639038
1621583993012,-17.989999771118164,14.800000190734863,-6.132999897003174,0.2349999994039535,-9.40999984741211,0.731000006198883
1621583993022,-22.399999618530273,14.20400047302246,-5.171999931335449,0.2750000059604644,-9.234999656677246,0.6420000195503234
1621583993032,-26.11000061035156,13.664999961853027,-4.130000114440918,0.2750000059604644,-9.14400005340576,0.578000009059906
1621583993042,-29.68000030517578,12.967000007629396,-3.4000000953674316,0.2349999994039535,-8.968999862670898,0.4900000095367431
1621583993052,-32.7599983215332,11.673999786376951,-2.9170000553131104,0.1959999948740005,-8.871000289916992,0.3880000114440918
1621583993062,-35.77000045776367,10.312000274658203,-2.447000026702881,0.1570000052452087,-8.644000053405762,0.2280000001192092
1621583993072,-38.779998779296875,8.868000030517578,-1.919000029563904,0.1570000052452087,-8.592000007629395,0.1580000072717666
1621583993082,-40.66999816894531,7.372000217437744,-1.89900004863739,0.1570000052452087,-8.494000434875488,0.0560000017285346
1621583993092,-42.279998779296875,5.7820000648498535,-1.753000020980835,0.0780000016093254,-8.357999801635742,-0.0399999991059303
1621583993102,-43.189998626708984,4.497000217437744,-2.121000051498413,0.0780000016093254,-8.253000259399414,-0.1809999942779541
1621583993112,-42.77000045776367,3.6689999103546143,-2.2669999599456787,0.0780000016093254,-8.717000007629395,-0.2619999945163726
1621583993122,-41.369998931884766,2.634999990463257,-2.450000047683716,0.0,-9.085000038146973,-0.2080000042915344
1621583993132,-39.34000015258789,0.3970000147819519,-4.265999794006348,0.0,-8.779999732971191,-0.3529999852180481
1621583993142,-35.630001068115234,-0.5770000219345092,-6.000999927520752,0.0390000008046627,-8.489999771118164,-0.4210000038146972
1621583993152,-31.989999771118164,-1.5010000467300415,-5.5960001945495605,-0.0390000008046627,-8.180000305175781,-0.367000013589859
1621583993162,-27.299999237060547,-2.181999921798706,-6.568999767303467,-0.0780000016093254,-8.095999717712402,-0.3919999897480011
1621583993172,-21.6299991607666,-3.5250000953674316,-7.019000053405762,-0.1570000052452087,-8.888999938964844,-0.4120000004768371
1621583993182,-16.65999984741211,-3.9670000076293945,-8.944999694824219,-0.3140000104904174,-9.62600040435791,-0.3030000030994415
1621583993192,-12.039999961853027,-5.046000003814697,-14.111000061035156,-0.3140000104904174,-9.94200038909912,-0.3190000057220459
1621583993202,-9.239999771118164,-5.420000076293945,-18.44099998474121,-0.3140000104904174,-9.92300033569336,-0.1959999948740005
1621583993212,-9.135000228881836,-5.479000091552734,-18.91349983215332,-0.1959999948740005,-9.800999641418455,-0.2150000035762786
1621583993222,-9.029999732971191,-5.538000106811523,-19.38599967956543,-0.1180000007152557,-10.218999862670898,-0.328000009059906
1621583993232,-9.65999984741211,-5.89900016784668,-18.95199966430664,0.0,-11.218999862670898,-0.3050000071525573
1621583993242,-8.960000038146973,-7.2849998474121085,-18.343999862670895,0.0780000016093254,-11.987000465393066,-0.2409999966621398
1621583993252,-7.349999904632568,-9.012999534606934,-17.01300048828125,0.1180000007152557,-12.425000190734863,-0.238999992609024
1621583993262,-5.179999828338623,-10.42300033569336,-15.059000015258787,0.0390000008046627,-12.55500030517578,-0.181999996304512
1621583993272,-3.9200000762939458,-10.722999572753906,-12.553000450134276,-0.1959999948740005,-12.071000099182127,-0.2160000056028366
1621583993282,-3.6400001049041744,-9.968999862670898,-9.576000213623049,-0.2750000059604644,-11.807000160217283,-0.1299999952316284
1621583993292,-3.7799999713897705,-8.442999839782715,-5.327000141143799,-0.3529999852180481,-11.536999702453612,-0.0820000022649765
1621583993302,-3.6400001049041744,-5.875999927520752,0.6700000166893005,-0.4309999942779541,-11.196000099182127,0.0170000009238719
1621583993312,-2.940000057220459,-4.264999866485596,5.644999980926514,-0.4709999859333038,-10.822999954223633,0.163000002503395
1621583993322,-0.8399999737739563,-2.999000072479248,9.35099983215332,-0.4709999859333038,-10.475000381469728,0.2240000069141387
1621583993332,1.9600000381469729,-2.305999994277954,12.671999931335447,-0.3529999852180481,-10.373000144958496,0.3219999969005584
1621583993342,4.760000228881836,-2.555999994277954,16.111000061035156,-0.3529999852180481,-10.496000289916992,0.3400000035762786
1621583993352,6.019999980926514,-3.8010001182556152,17.525999069213867,-0.2349999994039535,-10.734000205993652,0.3379999995231628
1621583993362,4.96999979019165,-6.13700008392334,17.469999313354492,-0.1570000052452087,-10.998000144958496,0.2509999871253967
1621583993372,2.309999942779541,-9.571999549865724,15.585000038146973,-0.1570000052452087,-11.152999877929688,0.2240000069141387
1621583993382,-2.0999999046325684,-12.803999900817873,11.744999885559082,-0.2349999994039535,-11.159000396728516,0.2630000114440918
1621583993392,-6.860000133514404,-16.677000045776367,7.507999897003175,-0.3529999852180481,-11.281999588012695,0.2809999883174896
1621583993402,-11.0600004196167,-19.26499938964844,2.431999921798706,-0.5490000247955322,-11.187000274658203,0.4169999957084655
1621583993412,-14.210000038146973,-20.847000122070312,-5.52400016784668,-0.7059999704360961,-10.807000160217283,0.5239999890327453
1621583993422,-15.470000267028809,-21.027000427246097,-15.791000366210938,-0.8629999756813049,-10.458999633789062,0.5849999785423278
1621583993432,-15.470000267028809,-20.59000015258789,-20.085498809814453,-0.981000006198883,-10.125,0.7239999771118164
1621583993442,-15.470000267028809,-20.152999877929688,-24.3799991607666,-1.0199999809265137,-9.89400005340576,0.7649999856948853
1621583993452,-14.489999771118164,-18.458999633789062,-31.97100067138672,-1.0199999809265137,-9.73900032043457,0.7919999957084655
1621583993462,-12.949999809265137,-16.165000915527344,-38.53200149536133,-0.9020000100135804,-9.571000099182127,0.7419999837875366
1621583993472,-11.130000114440918,-13.005999565124512,-43.94599914550781,-0.7850000262260437,-9.487000465393066,0.7170000076293945
1621583993482,-9.449999809265137,-9.527999877929688,-47.952999114990234,-0.6280000209808348,-9.440999984741213,0.6850000023841857
1621583993492,-8.470000267028809,-5.691999912261963,-50.7599983215332,-0.3919999897480011,-9.38199996948242,0.5759999752044677
1621583993502,-8.050000190734863,-1.924999952316284,-51.1619987487793,-0.1959999948740005,-9.362000465393066,0.4600000083446502
1621583993512,-8.539999961853027,0.9950000047683716,-48.37200164794922,0.0,-9.387000083923342,0.3759999871253967
1621583993522,-9.65999984741211,3.4609999656677246,-43.814998626708984,0.1959999948740005,-9.451000213623049,0.2849999964237213
1621583993532,-10.220000267028809,5.189000129699707,-37.89500045776367,0.4709999859333038,-9.496000289916992,0.31700000166893
1621583993542,-11.130000114440918,5.9079999923706055,-31.086000442504883,0.5879999995231628,-9.411999702453612,0.2919999957084655
1621583993552,-11.619999885559082,5.34499979019165,-23.86400032043457,0.8629999756813049,-9.42300033569336,0.1309999972581863
1621583993562,-12.039999961853027,4.315999984741211,-17.222000122070312,1.0199999809265137,-9.447999954223633,0.0469999983906745
1621583993572,-12.18000030517578,2.1760001182556152,-9.92300033569336,1.215999960899353,-9.472999572753906,-0.0370000004768371
1621583993582,-11.6899995803833,-0.7509999871253967,-4.610000133514404,1.3339999914169312,-9.42099952697754,-0.1080000028014183
1621583993592,-11.199999809265137,-5.421999931335449,0.1099999994039535,1.4119999408721924,-9.329999923706056,-0.1710000038146972
1621583993602,-10.43000030517578,-10.86299991607666,4.765999794006348,1.4509999752044678,-9.246000289916992,-0.1959999948740005
1621583993612,-8.960000038146973,-16.48200035095215,8.821999549865723,1.4509999752044678,-9.21399974822998,-0.1509999930858612
1621583993621,-7.139999866485596,-23.21699905395508,10.335000038146973,1.491000056266785,-9.18299961090088,-0.1059999987483024
1621583993631,-6.19499969482422,-26.799999237060547,10.69849967956543,1.5299999713897705,-9.227999687194824,-0.0740000009536743
1621583993641,-5.25,-30.382999420166016,11.062000274658203,1.5299999713897705,-9.326000213623049,0.0289999991655349
1621583993651,-5.039999961853027,-38.26100158691406,11.80500030517578,1.4509999752044678,-9.33199977874756,0.06700000166893
1621583993661,-5.25,-46.66299819946289,11.887999534606934,1.3339999914169312,-9.229999542236328,0.1650000065565109
1621583993671,-5.880000114440918,-55.39400100708008,11.413999557495115,1.1380000114440918,-9.050999641418455,0.2759999930858612
1621583993681,-6.579999923706055,-62.91600036621094,10.940999984741213,0.8629999756813049,-9.071000099182127,0.3919999897480011
1621583993691,-6.929999828338623,-69.11599731445312,9.42099952697754,0.5879999995231628,-9.123000144958496,0.4629999995231628
1621583993701,-7.139999866485596,-73.47599792480469,6.732999801635742,0.3140000104904174,-9.21399974822998,0.5260000228881835
1621583993711,-7.139999866485596,-76.12799835205078,4.843999862670898,0.1570000052452087,-9.29800033569336,0.5509999990463256
1621583993721,-7.070000171661377,-78.43099975585938,3.79800009727478,0.0780000016093254,-9.536999702453612,0.5490000247955322
1621583993731,-6.929999828338623,-80.08999633789062,2.7239999771118164,0.0780000016093254,-9.58199977874756,0.5809999704360961
1621583993741,-7.280000209808349,-82.28800201416016,2.691999912261963,0.1570000052452087,-9.498000144958496,0.5559999942779541
1621583993751,-6.929999828338623,-84.86199951171875,3.5880000591278076,0.2349999994039535,-9.576000213623049,0.5419999957084655
1621583993761,-7.0,-87.2020034790039,5.165999889373779,0.2750000059604644,-9.65999984741211,0.5669999718666076
1621583993771,-6.369999885559082,-89.95899963378906,5.888000011444092,0.3919999897480011,-9.61400032043457,0.5350000262260437
1621583993781,-5.599999904632568,-93.06500244140624,8.184000015258789,0.5879999995231628,-10.225000381469728,0.3880000114440918
1621583993791,-5.599999904632568,-96.9250030517578,13.545000076293944,0.7059999704360961,-11.204999923706056,0.2949999868869781
1621583993801,-5.53000020980835,-102.79499816894533,19.83099937438965,0.8240000009536743,-11.475000381469728,0.2469999939203262
1621583993811,-6.440000057220459,-109.77300262451172,25.13999938964844,0.981000006198883,-11.074999809265137,0.2380000054836273
1621583993821,-5.460000038146973,-115.48999786376952,28.538999557495117,0.981000006198883,-10.612000465393066,0.3199999928474426
1621583993831,-4.269999980926514,-120.13400268554688,26.65399932861328,0.8629999756813049,-10.225000381469728,0.3880000114440918
1621583993841,-2.1700000762939453,-121.9080047607422,23.81800079345703,0.8629999756813049,-9.968999862670898,0.5130000114440918
1621583993851,-0.0700000002980232,-123.68199920654295,20.98200035095215,0.8629999756813049,-9.75100040435791,0.6309999823570251
1621583993861,5.389999866485596,-126.14099884033205,14.36400032043457,0.9020000100135804,-9.526000022888184,0.7099999785423278
1621583993871,11.0600004196167,-127.9459991455078,9.282999992370604,0.9409999847412108,-9.385000228881836,0.8149999976158142
1621583993881,16.729999542236328,-128.87100219726562,6.064000129699707,0.9020000100135804,-9.397999763488768,0.8920000195503234
1621583993891,22.1200008392334,-129.42300415039062,3.549999952316284,0.8240000009536743,-9.397999763488768,0.8920000195503234
1621583993901,26.31999969482422,-128.78599548339844,3.1649999618530273,0.7450000047683715,-9.397999763488768,0.8920000195503234
1621583993911,28.6299991607666,-127.52100372314452,4.453999996185303,0.5879999995231628,-9.520999908447264,0.9100000262260436
1621583993921,29.1200008392334,-125.73999786376952,6.046999931335449,0.3529999852180481,-9.791000366210936,0.8629999756813049
1621583993931,28.06999969482422,-122.89800262451172,7.258999824523927,0.2750000059604644,-9.770999908447264,0.746999979019165
1621583993941,25.549999237060547,-119.44300079345705,8.223999977111816,0.1570000052452087,-9.829999923706056,0.856000006198883
1621583993951,22.190000534057617,-116.00800323486328,8.901000022888184,0.1180000007152557,-9.829999923706056,0.856000006198883
1621583993961,18.479999542236328,-112.1719970703125,9.718999862670898,0.0,-9.79800033569336,0.9010000228881836
1621583993971,15.119999885559082,-108.31999969482422,10.04300022125244,-0.0390000008046627,-9.727999687194824,0.953000009059906
1621583993981,12.600000381469728,-104.38200378417967,9.883999824523924,-0.0390000008046627,-9.720999717712402,0.915000021457672
1621583993991,10.43000030517578,-100.94400024414062,8.927000045776367,0.0,-9.689000129699709,0.9599999785423278
1621583994001,8.680000305175781,-97.27400207519533,7.868000030517577,0.0390000008046627,-9.689000129699709,0.9599999785423278
1621583994011,7.349999904632568,-93.86399841308592,7.473999977111816,0.0390000008046627,-9.597999572753906,0.8970000147819519
1621583994021,6.300000190734863,-91.0739974975586,6.9710001945495605,0.1959999948740005,-9.553000450134276,0.865000009536743
1621583994031,6.090000152587891,-90.27499389648438,7.076499938964844,0.2750000059604644,-9.553000450134276,0.865000009536743
1621583994041,5.880000114440918,-89.47599792480469,7.182000160217285,0.3919999897480011,-9.50100040435791,0.7940000295639038
1621583994051,5.670000076293945,-88.83200073242188,7.1529998779296875,0.4709999859333038,-9.531999588012695,0.7490000128746032
1621583994061,5.389999866485596,-88.6780014038086,6.683000087738037,0.5490000247955322,-9.494000434875488,0.7559999823570251
1621583994071,5.53000020980835,-89.40399932861328,5.559999942779541,0.5099999904632568,-9.454999923706056,0.7630000114440918
1621583994081,5.949999809265137,-90.822998046875,4.741000175476074,0.5099999904632568,-9.447999954223633,0.7239999771118164
1621583994091,7.070000171661377,-92.20999908447264,4.140999794006348,0.4709999859333038,-9.494000434875488,0.7559999823570251
1621583994101,8.470000267028809,-93.0739974975586,2.993000030517578,0.3529999852180481,-9.454999923706056,0.7630000114440918
1621583994111,9.869999885559082,-93.77100372314452,2.515000104904175,0.1959999948740005,-9.416000366210936,0.7689999938011169
1621583994121,11.130000114440918,-93.62899780273438,2.114000082015991,0.0,-9.461999893188477,0.8009999990463256
1621583994131,12.109999656677246,-92.47000122070312,1.180999994277954,-0.1959999948740005,-9.48900032043457,0.955999970436096
1621583994141,13.020000457763672,-89.68399810791016,-0.1049999967217445,-0.5099999904632568,-9.5600004196167,0.902999997138977
1621583994151,13.649999618530272,-85.86900329589844,-1.991000056266785,-0.7450000047683715,-9.630000114440918,0.8510000109672546
1621583994161,13.649999618530272,-80.64199829101562,-4.624000072479248,-0.9409999847412108,-9.668999671936035,0.8439999818801879
1621583994171,14.210000038146973,-74.21099853515625,-6.829999923706055,-1.0590000152587893,-9.675000190734863,0.8830000162124633
1621583994181,13.93000030517578,-67.62200164794922,-8.725000381469727,-1.0590000152587893,-9.637000083923342,0.8899999856948853
1621583994191,13.789999961853027,-61.17499923706055,-10.218000411987305,-1.0199999809265137,-9.637000083923342,0.8899999856948853
1621583994201,13.300000190734863,-54.73199844360352,-10.07699966430664,-0.981000006198883,-9.637000083923342,0.8899999856948853
1621583994211,12.8100004196167,-49.1879997253418,-9.66800022125244,-0.8629999756813049,-9.675000190734863,0.8830000162124633
1621583994221,12.460000038146973,-46.369998931884766,-9.526500701904297,-0.8629999756813049,-9.78499984741211,0.8240000009536743
1621583994231,12.109999656677246,-43.551998138427734,-9.385000228881836,-0.7850000262260437,-9.960000038146973,0.9129999876022338
1621583994241,11.199999809265137,-38.53200149536133,-9.637000083923342,-0.6669999957084655,-10.08199977874756,0.930999994277954
1621583994251,9.729999542236328,-34.02299880981445,-9.41100025177002,-0.5879999995231628,-10.159000396728516,0.9169999957084656
1621583994261,7.280000209808349,-29.76099967956543,-9.796999931335447,-0.5490000247955322,-10.197999954223633,0.9100000262260436
1621583994271,4.690000057220459,-25.957000732421875,-10.406000137329102,-0.4709999859333038,-10.244000434875488,0.9419999718666076
1621583994281,1.5399999618530271,-21.96299934387207,-10.482999801635742,-0.4309999942779541,-10.25,0.981000006198883
1621583994291,-1.399999976158142,-18.049999237060547,-10.503999710083008,-0.3529999852180481,-10.244000434875488,0.9419999718666076
1621583994301,-4.059999942779541,-14.458000183105469,-10.722999572753906,-0.3140000104904174,-10.159000396728516,0.9169999957084656
1621583994311,-5.809999942779541,-12.032999992370604,-10.366999626159668,-0.2349999994039535,-10.036999702453612,0.8989999890327453
1621583994321,-6.510000228881836,-9.527000427246092,-10.06700038909912,-0.1959999948740005,-9.913999557495115,0.8809999823570251
1621583994331,-7.210000038146973,-7.0329999923706055,-9.699000358581545,-0.1180000007152557,-9.822999954223633,0.8169999718666076
1621583994341,-7.349999904632568,-5.158999919891357,-9.439000129699709,-0.0390000008046627,-9.70699977874756,0.8379999995231628
1621583994351,-6.929999828338623,-3.6989998817443848,-9.253000259399414,0.0,-9.616000175476074,0.7739999890327453
1621583994361,-6.230000019073486,-2.361000061035156,-8.376999855041504,0.0390000008046627,-9.571000099182127,0.7419999837875366
1621583994371,-5.039999961853027,-2.288000106811523,-7.583000183105469,0.0390000008046627,-9.526000022888184,0.7099999785423278
1621583994381,-3.849999904632568,-2.187000036239624,-7.35099983215332,-0.0390000008046627,-9.609999656677246,0.7350000143051147
1621583994391,-2.7300000190734863,-2.421999931335449,-8.032999992370605,-0.0780000016093254,-9.609999656677246,0.7350000143051147
1621583994401,-2.5899999141693115,-2.430000066757202,-8.388999938964844,-0.1180000007152557,-9.550999641418455,0.6259999871253967
1621583994411,-2.869999885559082,-2.174999952316284,-9.836999893188477,-0.1180000007152557,-9.68000030517578,0.6830000281333923
1621583994421,-3.359999895095825,-2.2135000228881836,-10.021499633789062,-0.1180000007152557,-9.803000450134276,0.7009999752044677
1621583994431,-3.849999904632568,-2.252000093460083,-10.206000328063965,-0.1180000007152557,-9.880000114440918,0.6880000233650208
1621583994441,-4.829999923706055,-2.6329998970031734,-10.0600004196167,-0.0390000008046627,-9.98900032043457,0.6290000081062316
1621583994451,-5.389999866485596,-3.253000020980835,-8.961000442504883,0.0390000008046627,-10.072999954223633,0.6539999842643737
1621583994461,-6.019999980926514,-4.372000217437744,-7.452000141143799,0.1180000007152557,-10.119000434875488,0.6850000023841857
1621583994471,-6.789999961853027,-6.804999828338623,-5.749000072479248,0.1570000052452087,-10.041000366210936,0.6990000009536743
1621583994481,-7.489999771118165,-9.626999855041506,-4.25600004196167,0.0780000016093254,-9.970999717712402,0.7509999871253967
1621583994491,-7.9099998474121085,-11.958000183105469,-2.322000026702881,-0.0390000008046627,-9.899999618530272,0.8040000200271606
1621583994501,-8.260000228881836,-14.038999557495115,-1.409000039100647,-0.0780000016093254,-9.829999923706056,0.856000006198883
1621583994511,-8.609999656677246,-14.833000183105469,-1.3359999656677246,-0.1959999948740005,-9.836999893188477,0.8939999938011169
1621583994521,-9.029999732971191,-14.80500030517578,-0.6909999847412109,-0.2750000059604644,-9.843999862670898,0.9330000281333924
1621583994531,-9.520000457763674,-13.73799991607666,-0.2899999916553497,-0.3529999852180481,-9.836999893188477,0.8939999938011169
1621583994541,-10.43000030517578,-13.276000022888184,-0.4930000007152557,-0.3140000104904174,-9.89400005340576,0.7649999856948853
1621583994551,-11.970000267028809,-13.230999946594238,-0.3429999947547912,-0.2750000059604644,-9.932000160217283,0.7580000162124633
1621583994561,-13.93000030517578,-13.564000129699709,-0.4729999899864196,-0.2349999994039535,-9.925000190734863,0.7189999818801879
1621583994571,-16.3799991607666,-14.89799976348877,-0.5659999847412109,-0.1570000052452087,-9.911999702453612,0.6420000195503234
1621583994581,-18.6200008392334,-16.55299949645996,-0.8569999933242797,-0.0780000016093254,-9.95699977874756,0.6740000247955322
1621583994591,-21.350000381469727,-19.070999145507812,-1.0880000591278076,-0.0390000008046627,-9.911999702453612,0.6420000195503234
1621583994601,-23.8700008392334,-20.886999130249023,-1.2660000324249268,-0.0390000008046627,-9.781999588012695,0.5849999785423278
1621583994611,-25.549999237060547,-22.06399917602539,-2.25600004196167,-0.1180000007152557,-9.65999984741211,0.5669999718666076
1621583994621,-25.724998474121097,-21.92799949645996,-3.2269999980926514,-0.2750000059604644,-9.536999702453612,0.5490000247955322
1621583994631,-25.899999618530273,-21.79199981689453,-4.197999954223633,-0.3919999897480011,-9.529999732971191,0.5099999904632568
1621583994641,-25.479999542236328,-20.385000228881836,-6.934999942779541,-0.5490000247955322,-9.413999557495115,0.531000018119812
1621583994651,-24.219999313354492,-17.53499984741211,-10.199999809265137,-0.6669999957084655,-9.401000022888184,0.4539999961853027
1621583994661,-22.68000030517578,-13.82900047302246,-12.673999786376951,-0.7850000262260437,-9.347999572753906,0.3829999864101409
1621583994671,-20.86000061035156,-8.906999588012695,-14.791000366210938,-0.7850000262260437,-9.32800006866455,0.2669999897480011
1621583994681,-19.25,-2.934000015258789,-16.01300048828125,-0.8240000009536743,-9.321000099182127,0.2290000021457672
1621583994691,-18.059999465942383,3.634999990463257,-16.98699951171875,-0.7450000047683715,-9.392000198364256,0.1759999990463256
1621583994701,-16.59000015258789,9.604000091552734,-18.99099922180176,-0.7059999704360961,-9.447999954223633,0.0469999983906745
1621583994711,-15.399999618530272,14.74899959564209,-20.357999801635746,-0.5099999904632568,-9.50100040435791,0.1169999986886978
1621583994721,-13.859999656677246,19.56599998474121,-21.07200050354004,-0.3140000104904174,-9.54599952697754,0.1490000039339065
1621583994731,-11.409999847412108,23.26499938964844,-20.277999877929688,-0.1180000007152557,-9.720999717712402,0.2380000054836273
1621583994741,-8.119999885559082,25.929000854492188,-18.45800018310547,0.1180000007152557,-9.857000350952148,0.3330000042915344
1621583994751,-5.25,27.243000030517575,-16.236000061035156,0.2750000059604644,-9.748000144958496,0.3919999897480011
1621583994761,-3.359999895095825,27.895999908447266,-14.699000358581545,0.3529999852180481,-9.46399974822998,0.3630000054836273
1621583994771,-2.450000047683716,27.576000213623047,-12.480999946594238,0.4709999859333038,-9.387000083923342,0.3759999871253967
1621583994781,-2.450000047683716,26.52199935913086,-9.326000213623049,0.5879999995231628,-9.3100004196167,0.3899999856948852
1621583994791,-2.5899999141693115,23.35199928283691,-6.260000228881836,0.6669999957084655,-9.31700038909912,0.4280000030994415
1621583994801,-2.5199999809265137,19.593000411987305,-3.0850000381469727,0.7450000047683715,-9.369000434875488,0.4990000128746032
1621583994811,-2.799999952316284,14.630999565124512,0.8740000128746032,0.7450000047683715,-9.529999732971191,0.5099999904632568
1621583994821,-2.940000057220459,9.428000450134276,4.577000141143799,0.6280000209808348,-9.852999687194824,0.5329999923706054
1621583994831,-3.115000009536743,6.987500190734863,5.923500061035156,0.4309999942779541,-10.182000160217283,0.5939999818801879
1621583994841,-3.2899999618530273,4.546999931335449,7.269999980926514,-0.0780000016093254,-10.312000274658203,0.6510000228881835
1621583994851,-4.409999847412109,0.1879999935626983,8.206999778747559,-0.2750000059604644,-10.27299976348877,0.6579999923706054
1621583994861,-5.320000171661377,-3.0199999809265137,6.646999835968018,-0.4709999859333038,-10.241000175476074,0.7039999961853027
1621583994871,-7.070000171661377,-5.343999862670898,4.104000091552734,-0.5879999995231628,-10.203000068664553,0.7099999785423278
1621583994881,-9.65999984741211,-7.33900022506714,2.118000030517578,-0.6669999957084655,-10.041000366210936,0.6990000009536743
1621583994891,-11.760000228881836,-8.552000045776367,1.3350000381469729,-0.7059999704360961,-9.89400005340576,0.7649999856948853
1621583994901,-13.300000190734863,-9.432000160217283,0.6830000281333923,-0.6669999957084655,-9.777999877929688,0.7850000262260437
1621583994911,-14.420000076293944,-10.449999809265137,0.006000000052154,-0.6669999957084655,-9.699999809265137,0.7990000247955322
1621583994921,-15.329999923706056,-11.119000434875488,0.1720000058412551,-0.7450000047683715,-9.694000244140623,0.7599999904632568
1621583994931,-15.050000190734863,-12.529999732971191,0.9179999828338624,-0.7850000262260437,-9.654999732971191,0.7670000195503234
1621583994941,-14.140000343322754,-13.600000381469728,0.9430000185966492,-0.9020000100135804,-9.732000350952148,0.7530000209808348
1621583994951,-12.670000076293944,-14.090999603271484,0.5009999871253967,-0.981000006198883,-9.79599952697754,0.6629999876022338
1621583994961,-11.199999809265137,-14.017999649047852,0.0869999974966049,-1.0590000152587893,-9.904999732971191,0.6039999723434448
1621583994971,-9.9399995803833,-13.819000244140623,0.975000023841858,-1.0980000495910645,-10.0600004196167,0.5759999752044677
1621583994981,-9.100000381469728,-13.211000442504885,1.1529999971389773,-1.0980000495910645,-10.04599952697754,0.4990000128746032
1621583994991,-8.050000190734863,-13.380999565124512,0.9100000262260436,-1.1380000114440918,-10.053000450134276,0.5379999876022338
1621583995001,-7.559999942779541,-13.564000129699709,0.7360000014305114,-1.215999960899353,-9.982000350952148,0.5899999737739563
1621583995011,-6.510000228881836,-13.121999740600586,0.2450000047683715,-1.2940000295639038,-9.982000350952148,0.5899999737739563
1621583995021,-4.829999923706055,-12.526000022888184,-0.7160000205039978,-1.3339999914169312,-9.949999809265137,0.6349999904632568
1621583995031,-3.1500000953674316,-11.51200008392334,-2.0299999713897705,-1.3339999914169312,-9.835000038146973,0.656000018119812
1621583995041,-2.59000015258789,-11.09850025177002,-2.560999870300293,-1.3339999914169312,-9.82800006866455,0.6169999837875366
1621583995051,-2.0299999713897705,-10.6850004196167,-3.0920000076293945,-1.2549999952316284,-9.82800006866455,0.6169999837875366
1621583995061,-1.4700000286102295,-10.142000198364258,-4.559999942779541,-1.1770000457763672,-9.821000099182127,0.5789999961853027
1621583995071,-2.0299999713897705,-10.199000358581545,-5.849999904632568,-1.1380000114440918,-9.781999588012695,0.5849999785423278
1621583995081,-2.940000057220459,-9.838000297546388,-6.283999919891357,-1.0590000152587893,-9.737000465393066,0.5540000200271606
1621583995091,-4.130000114440918,-10.267999649047852,-5.861999988555908,-1.0590000152587893,-9.645999908447264,0.4900000095367431
1621583995101,-5.880000114440918,-10.130000114440918,-5.8379998207092285,-1.0590000152587893,-9.60099983215332,0.4580000042915344
1621583995111,-7.559999942779541,-9.96399974822998,-5.169000148773193,-1.0199999809265137,-9.51599979400635,0.4329999983310699
1621583995121,-8.399999618530273,-9.553999900817873,-4.670000076293945,-1.0199999809265137,-9.439000129699709,0.4469999969005584
1621583995131,-9.100000381469728,-9.27400016784668,-3.83899998664856,-1.0590000152587893,-9.425999641418455,0.3689999878406524
1621583995141,-9.800000190734863,-9.14400005340576,-2.9630000591278076,-1.0590000152587893,-9.404999732971191,0.2540000081062316
1621583995151,-10.149999618530272,-9.189000129699709,-1.9049999713897705,-1.0590000152587893,-9.411999702453612,0.2919999957084655
1621583995161,-10.56999969482422,-8.916999816894531,-0.2220000028610229,-1.0590000152587893,-9.637000083923342,0.2129999995231628
1621583995171,-10.710000038146973,-9.19200038909912,2.1459999084472656,-1.0199999809265137,-9.727999687194824,0.2759999930858612
1621583995181,-10.56999969482422,-10.282999992370604,5.507999897003174,-0.981000006198883,-9.513999938964846,0.1940000057220459
1621583995191,-10.010000228881836,-12.026000022888184,7.333000183105469,-1.0199999809265137,-9.623000144958496,0.135000005364418
1621583995201,-8.329999923706055,-13.477999687194824,8.711999893188477,-1.0199999809265137,-9.71399974822998,0.1990000009536743
1621583995211,-6.650000095367432,-15.293999671936035,9.741999626159668,-1.0590000152587893,-9.592000007629396,0.1809999942779541
1621583995221,-4.760000228881836,-17.195999145507812,8.838000297546387,-1.0980000495910645,-9.437000274658203,0.2080000042915344
1621583995231,-2.380000114440918,-18.156999588012695,5.824999809265137,-1.215999960899353,-9.276000022888184,0.1969999969005584
1621583995241,-0.4900000095367431,-18.61199951171875,1.5520000457763672,-1.2940000295639038,-9.26900005340576,0.1580000072717666
1621583995251,0.524999976158142,-18.247499465942383,0.0879999995231628,-1.3339999914169312,-9.47599983215332,0.2010000050067901
1621583995261,1.5399999618530271,-17.882999420166016,-1.3760000467300415,-1.3730000257492063,-9.520999908447264,0.2329999953508377
1621583995271,3.7100000381469727,-16.98699951171875,-3.634999990463257,-1.3730000257492063,-9.397999763488768,0.2150000035762786
1621583995281,6.019999980926514,-15.390000343322754,-5.841000080108643,-1.2940000295639038,-9.380000114440918,0.3379999995231628
1621583995290,8.680000305175781,-12.607999801635742,-7.9099998474121085,-1.3339999914169312,-9.270999908447264,0.3970000147819519
1621583995300,11.270000457763672,-10.154999732971191,-9.324999809265137,-1.2549999952316284,-9.095999717712402,0.3079999983310699
1621583995310,13.4399995803833,-7.186999797821045,-10.437000274658203,-1.1380000114440918,-8.947999954223633,0.3740000128746032
1621583995320,15.68000030517578,-3.696000099182129,-10.88700008392334,-1.0199999809265137,-8.954999923706055,0.4129999876022338
1621583995330,17.43000030517578,-0.7149999737739563,-12.067999839782717,-0.8629999756813049,-9.031999588012695,0.3989999890327453
1621583995340,18.899999618530273,1.9529999494552612,-13.090000152587892,-0.6669999957084655,-9.201000213623049,0.4490000009536743
1621583995350,19.809999465942383,3.5789999961853027,-13.442999839782717,-0.4709999859333038,-9.28499984741211,0.4740000069141387
1621583995360,20.09000015258789,4.576000213623047,-14.26200008392334,-0.3529999852180481,-9.39400005340576,0.4149999916553497
1621583995370,20.299999237060547,5.136000156402588,-15.015999794006348,-0.1959999948740005,-9.477999687194824,0.4399999976158142
1621583995380,20.15999984741211,5.297999858856201,-15.130000114440918,-0.0780000016093254,-9.477999687194824,0.4399999976158142
1621583995390,20.15999984741211,5.297999858856201,-15.130000114440918,-0.0390000008046627,-9.477999687194824,0.4399999976158142
1621583995400,20.09000015258789,5.613999843597412,-15.71399974822998,-0.0780000016093254,-9.562000274658203,0.4650000035762786
1621583995410,20.229999542236328,6.927999973297119,-15.909000396728516,-0.0780000016093254,-9.715999603271484,0.4379999935626983
1621583995420,20.649999618530273,8.788999557495117,-15.579999923706056,-0.1570000052452087,-9.800999641418455,0.4629999995231628
1621583995430,21.13999938964844,11.883000373840332,-15.390000343322754,-0.2349999994039535,-9.845999717712402,0.4939999878406524
1621583995440,21.700000762939453,14.996999740600586,-14.911999702453612,-0.3140000104904174,-9.93000030517578,0.5189999938011169
1621583995450,22.399999618530273,19.170000076293945,-14.390000343322754,-0.3919999897480011,-9.93000030517578,0.5189999938011169
1621583995460,22.81999969482422,23.29400062561035,-13.592000007629396,-0.3919999897480011,-10.053000450134276,0.5379999876022338
1621583995470,22.959999084472656,25.947999954223633,-13.124000549316406,-0.4709999859333038,-10.182000160217283,0.5939999818801879
1621583995480,23.100000381469727,28.60199928283691,-12.656000137329102,-0.5490000247955322,-10.234999656677246,0.6650000214576721
1621583995490,23.030000686645508,34.055999755859375,-11.338000297546388,-0.5099999904632568,-10.17099952697754,0.7559999823570251
1621583995500,22.61000061035156,39.36800003051758,-10.828000068664553,-0.4709999859333038,-10.237000465393066,0.9039999842643736
1621583995510,21.90999984741211,44.506000518798835,-11.343999862670898,-0.3919999897480011,-10.225000381469728,1.065000057220459
1621583995520,20.790000915527344,48.61000061035156,-10.833999633789064,-0.2349999994039535,-10.199999809265137,1.14900004863739
1621583995530,19.739999771118164,51.90299987792969,-9.755000114440918,-0.1180000007152557,-10.130000114440918,1.2009999752044678
1621583995540,18.829999923706055,53.69100189208984,-9.013999938964846,0.0390000008046627,-10.053000450134276,1.2150000333786013
1621583995550,17.219999313354492,53.96699905395508,-8.96500015258789,0.2349999994039535,-9.944000244140623,1.27400004863739
1621583995560,15.81999969482422,53.244998931884766,-9.305999755859377,0.3919999897480011,-9.949999809265137,1.312999963760376
1621583995570,13.369999885559082,50.89300155639648,-8.866999626159668,0.5490000247955322,-9.944000244140623,1.27400004863739
1621583995580,10.920000076293944,47.91699981689453,-8.11299991607666,0.6280000209808348,-9.937000274658203,1.2350000143051147
1621583995590,8.470000267028809,44.28799819946289,-6.478000164031982,0.6280000209808348,-9.937000274658203,1.2350000143051147
1621583995600,6.090000152587891,41.42100143432618,-5.135000228881836,0.5879999995231628,-9.871000289916992,1.0880000591278076
1621583995610,3.359999895095825,39.23099899291992,-4.810999870300293,0.5099999904632568,-9.824999809265137,1.055999994277954
1621583995620,0.5600000023841857,37.1349983215332,-4.611999988555908,0.4309999942779541,-9.819000244140623,1.0169999599456787
1621583995630,-2.5899999141693115,35.7239990234375,-5.073999881744385,0.4309999942779541,-9.850000381469728,0.9720000028610228
1621583995640,-6.090000152587891,33.606998443603516,-5.163000106811523,0.3529999852180481,-9.88199996948242,0.9259999990463256
1621583995650,-8.890000343322754,31.59600067138672,-6.65500020980835,0.3140000104904174,-9.946000099182127,0.8349999785423278
1621583995660,-11.340000152587892,28.959999084472656,-7.829999923706055,0.3140000104904174,-9.918999671936035,0.6809999942779541
1621583995670,-13.789999961853027,27.0049991607666,-9.241000175476074,0.2349999994039535,-9.732000350952148,0.7530000209808348
1621583995680,-15.609999656677246,25.176000595092773,-10.559000015258787,0.2750000059604644,-9.550999641418455,0.6259999871253967
1621583995690,-15.504999160766602,24.170000076293945,-11.30500030517578,0.2349999994039535,-9.529999732971191,0.5099999904632568
1621583995700,-15.399999618530272,23.163999557495117,-12.050999641418455,0.1180000007152557,-9.522999763488768,0.4720000028610229
1621583995710,-14.279999732971191,21.58300018310547,-12.755999565124512,-0.0390000008046627,-9.54800033569336,0.3880000114440918
1621583995720,-13.020000457763672,20.155000686645508,-13.932000160217283,-0.1180000007152557,-9.612000465393066,0.2969999909400939
1621583995730,-11.619999885559082,19.742000579833984,-15.213000297546388,-0.2750000059604644,-9.597999572753906,0.2189999967813491
1621583995740,-10.010000228881836,19.98900032043457,-15.809000015258787,-0.3919999897480011,-9.585000038146973,0.1420000046491622
1621583995750,-9.029999732971191,20.87700080871582,-17.215999603271484,-0.3529999852180481,-9.616999626159668,0.0970000028610229
1621583995760,-7.699999809265136,21.94700050354004,-19.65800094604492,-0.3529999852180481,-9.602999687194824,0.0199999995529651
1621583995770,-7.070000171661377,23.52400016784668,-20.94300079345703,-0.2349999994039535,-9.628000259399414,-0.0649999976158142
1621583995780,-5.670000076293945,24.525999069213867,-22.187999725341797,-0.1180000007152557,-9.621000289916992,-0.1030000001192092
1621583995790,-4.409999847412109,25.07699966430664,-22.090999603271484,-0.0390000008046627,-9.529999732971191,-0.1669999957084655
1621583995800,-2.869999885559082,24.79700088500977,-21.714000701904297,0.0390000008046627,-9.46399974822998,-0.3149999976158142
1621583995810,-0.9100000262260436,24.031000137329105,-22.20400047302246,0.1570000052452087,-9.401000022888184,-0.2240000069141387
1621583995820,0.699999988079071,23.086000442504883,-22.086999893188477,0.2349999994039535,-9.329999923706056,-0.1710000038146972
1621583995830,2.5199999809265137,21.61400032043457,-22.20400047302246,0.3919999897480011,-9.29800033569336,-0.1260000020265579
1621583995840,4.130000114440918,19.31100082397461,-22.04199981689453,0.4709999859333038,-9.343999862670898,-0.0939999967813491
1621583995850,5.739999771118164,17.214000701904297,-21.843000411987305,0.5099999904632568,-9.428000450134276,-0.0689999982714653
1621583995860,6.650000095367432,14.805999755859377,-21.48500061035156,0.5490000247955322,-9.512000083923342,-0.0439999997615814
1621583995870,7.559999942779541,12.8149995803833,-21.481000900268555,0.5879999995231628,-9.51900005340576,-0.0049999998882412
1621583995880,8.329999923706055,10.888999938964844,-21.038999557495117,0.5879999995231628,-9.479999542236328,0.0010000000474974
1621583995890,8.890000343322754,9.607000350952148,-20.625,0.5879999995231628,-9.531999588012695,0.0719999969005584
1621583995900,8.854999542236328,8.962499618530273,-19.99250030517578,0.6669999957084655,-9.538999557495115,0.1099999994039535
1621583995910,8.819999694824219,8.317999839782715,-19.36000061035156,0.7450000047683715,-9.571000099182127,0.0649999976158142
1621583995920,9.029999732971191,6.736999988555908,-18.85700035095215,0.8629999756813049,-9.602999687194824,0.0199999995529651
1621583995930,9.029999732971191,4.2270002365112305,-17.52199935913086,1.0590000152587893,-9.647999763488768,0.0509999990463256
1621583995940,8.539999961853027,0.9789999723434448,-16.034000396728516,1.215999960899353,-9.732000350952148,0.0759999975562095
1621583995950,8.050000190734863,-3.0920000076293945,-13.907999992370604,1.3339999914169312,-9.753000259399414,0.19200000166893
1621583995960,6.789999961853027,-7.377999782562256,-12.175999641418455,1.2940000295639038,-9.79800033569336,0.2240000069141387
1621583995970,5.53000020980835,-11.06700038909912,-10.196999549865724,1.1380000114440918,-9.87600040435791,0.209999993443489
1621583995980,4.059999942779541,-13.800000190734863,-9.612000465393066,0.9020000100135804,-9.965999603271484,0.2739999890327453
1621583995990,2.309999942779541,-15.378000259399414,-9.53499984741211,0.7450000047683715,-10.019000053405762,0.3449999988079071
1621583996000,0.6299999952316284,-15.357999801635742,-9.246999740600586,0.5490000247955322,-9.979999542236328,0.3510000109672546
1621583996010,-0.6299999952316284,-13.633999824523926,-8.942999839782715,0.3529999852180481,-9.947999954223633,0.3970000147819519
1621583996020,-2.0299999713897705,-11.116000175476074,-8.713000297546387,0.1959999948740005,-9.871000289916992,0.4099999964237213
1621583996030,-2.869999885559082,-7.985000133514405,-8.729000091552734,0.0780000016093254,-9.793999671936035,0.4239999949932098
1621583996040,-3.1500000953674316,-3.630000114440918,-8.031999588012695,0.0,-9.755000114440918,0.4309999942779541
1621583996050,-3.2899999618530273,0.5669999718666076,-7.6479997634887695,-0.0390000008046627,-9.70300006866455,0.3600000143051147
1621583996060,-3.1500000953674316,5.210000038146973,-6.9710001945495605,0.0,-9.63199996948242,0.4129999876022338
1621583996070,-2.7300000190734863,9.208000183105469,-6.265999794006348,0.0,-9.586999893188477,0.3810000121593475
1621583996080,-1.9600000381469729,12.848999977111816,-5.552999973297119,0.0780000016093254,-9.638999938964846,0.4510000050067901
1621583996090,-1.6100000143051147,15.43299961090088,-4.883999824523926,0.1570000052452087,-9.63199996948242,0.4129999876022338
1621583996100,-1.190000057220459,17.204999923706055,-4.855999946594238,0.3529999852180481,-9.696000099182127,0.3219999969005584
1621583996110,-1.0499999523162842,18.575000762939453,-4.96999979019165,0.4309999942779541,-9.727999687194824,0.2759999930858612
1621583996120,-1.2599999904632568,18.526500701904297,-5.298500061035156,0.5879999995231628,-9.85099983215332,0.2949999868869781
1621583996130,-1.4700000286102295,18.47800064086914,-5.626999855041504,0.6669999957084655,-9.843999862670898,0.2560000121593475
1621583996140,-2.0299999713897705,17.683000564575195,-5.553999900817871,0.7450000047683715,-9.760000228881836,0.231000006198883
1621583996150,-2.5899999141693115,16.368999481201172,-5.359000205993652,0.7450000047683715,-9.791000366210936,0.1850000023841857
1621583996160,-2.6600000858306885,14.645999908447266,-4.453999996185303,0.7059999704360961,-9.836999893188477,0.2169999927282333
1621583996170,-2.309999942779541,12.80500030517578,-3.2860000133514404,0.6280000209808348,-9.720999717712402,0.2380000054836273
1621583996180,-1.2599999904632568,11.6899995803833,-2.203000068664551,0.5099999904632568,-9.689000129699709,0.2829999923706054
1621583996190,0.1400000005960464,10.928000450134276,-1.9110000133514404,0.4309999942779541,-9.80500030517578,0.2630000114440918
1621583996200,1.6100000143051147,10.765999794006348,-0.5889999866485595,0.3529999852180481,-9.906999588012695,0.1650000065565109
1621583996210,2.450000047683716,10.798999786376951,0.8379999995231628,0.2349999994039535,-9.998000144958496,0.2290000021457672
1621583996220,2.5899999141693115,10.680999755859377,1.10099995136261,0.3140000104904174,-10.11400032043457,0.2080000042915344
1621583996230,2.7300000190734863,10.6850004196167,1.883999943733215,0.3140000104904174,-10.29599952697754,0.3350000083446502
1621583996240,1.8200000524520872,9.821999549865724,3.1530001163482666,0.2750000059604644,-10.263999938964844,0.3810000121593475
1621583996250,0.8399999737739563,8.815999984741211,3.615999937057495,0.2750000059604644,-10.3100004196167,0.4129999876022338
1621583996260,-0.4900000095367431,7.875,4.515999794006348,0.3529999852180481,-10.399999618530272,0.4760000109672546
1621583996270,-1.8899999856948853,6.3470001220703125,5.526000022888184,0.3919999897480011,-10.399999618530272,0.4760000109672546
1621583996280,-3.359999895095825,3.661999940872192,5.835000038146973,0.4309999942779541,-10.432000160217283,0.4309999942779541
1621583996290,-4.199999809265137,0.0860000029206275,5.559000015258789,0.5490000247955322,-10.52299976348877,0.4950000047683715
1621583996300,-5.25,-4.302000045776367,5.8520002365112305,0.5879999995231628,-10.536999702453612,0.5720000267028807
1621583996310,-5.389999866485596,-10.17300033569336,4.888000011444092,0.6669999957084655,-10.465999603271484,0.6240000128746032
1621583996320,-4.96999979019165,-15.696000099182127,3.558000087738037,0.6669999957084655,-10.33199977874756,0.7670000195503234
1621583996330,-4.690000057220459,-20.58300018310547,1.843999981880188,0.7450000047683715,-10.244000434875488,0.9419999718666076
1621583996340,-4.480000019073486,-22.78900146484375,1.454999923706055,0.7059999704360961,-10.17300033569336,0.9940000176429749
1621583996350,-4.269999980926514,-24.9950008392334,1.0659999847412107,0.6280000209808348,-10.18000030517578,1.0329999923706057
1621583996360,-4.059999942779541,-28.604000091552734,-0.637000024318695,0.5490000247955322,-10.225000381469728,1.065000057220459
1621583996370,-4.199999809265137,-31.690000534057617,-1.6779999732971191,0.4709999859333038,-10.187000274658203,1.0720000267028809
1621583996380,-5.179999828338623,-33.8390007019043,-1.9859999418258667,0.4309999942779541,-10.078000068664553,1.13100004196167
1621583996390,-6.440000057220459,-35.87099838256836,-2.558000087738037,0.3919999897480011,-9.878000259399414,1.1260000467300415
1621583996400,-7.349999904632568,-37.334999084472656,-3.5269999504089355,0.3919999897480011,-9.729999542236328,1.1920000314712524
1621583996410,-7.9099998474121085,-37.926998138427734,-4.199999809265137,0.3529999852180481,-9.621000289916992,1.2510000467300415
1621583996420,-7.8400001525878915,-38.91600036621094,-4.23199987411499,0.3529999852180481,-9.550000190734863,1.3029999732971191
1621583996430,-6.369999885559082,-39.18399810791016,-5.131999969482422,0.3140000104904174,-9.357000350952148,1.337000012397766
1621583996440,-4.480000019073486,-39.0989990234375,-6.822999954223633,0.2750000059604644,-9.20300006866455,1.3650000095367432
1621583996450,-3.0799999237060547,-38.44200134277344,-8.128999710083008,0.2349999994039535,-9.04800033569336,1.3919999599456787
1621583996460,-1.8899999856948853,-37.4370002746582,-9.800000190734863,0.1570000052452087,-9.04800033569336,1.3919999599456787
1621583996470,-1.6100000143051147,-35.79899978637695,-11.43000030517578,0.0390000008046627,-9.13199996948242,1.4170000553131104
1621583996480,-2.450000047683716,-33.68600082397461,-12.12399959564209,0.0,-9.196000099182127,1.3259999752044678
1621583996490,-3.9200000762939458,-31.013999938964844,-11.154999732971191,0.0,-9.248000144958496,1.3969999551773071
1621583996500,-5.53000020980835,-28.91699981689453,-8.937000274658203,0.0,-9.319000244140623,1.343999981880188
1621583996510,-7.699999809265136,-26.975000381469727,-6.249000072479248,0.0,-9.388999938964846,1.2920000553131104
1621583996520,-9.3100004196167,-25.875,-3.211999893188477,-0.0780000016093254,-9.42099952697754,1.246999979019165
1621583996530,-10.220000267028809,-24.642000198364254,-0.9330000281333924,-0.1180000007152557,-9.413999557495115,1.2079999446868896
1621583996540,-10.220000267028809,-22.88999938964844,1.2239999771118164,-0.2750000059604644,-9.484999656677246,1.156000018119812
1621583996550,-9.800000190734863,-21.78300094604492,1.5970000028610227,-0.3529999852180481,-9.51599979400635,1.1100000143051147
1621583996560,-9.380000114440918,-20.676000595092773,1.9700000286102295,-0.5099999904632568,-9.63199996948242,1.0900000333786013
1621583996570,-8.539999961853027,-18.31599998474121,1.888000011444092,-0.5879999995231628,-9.722999572753906,1.1529999971389773
1621583996580,-8.050000190734863,-15.944000244140623,1.7380000352859497,-0.5490000247955322,-9.762000083923342,1.1469999551773071
1621583996590,-7.349999904632568,-13.357000350952148,0.7720000147819519,-0.4709999859333038,-9.878000259399414,1.1260000467300415
1621583996600,-6.019999980926514,-11.569000244140623,-0.902999997138977,-0.3919999897480011,-9.883999824523924,1.1649999618530271
1621583996610,-4.900000095367432,-10.923999786376951,-2.140000104904175,-0.3529999852180481,-9.76900005340576,1.184999942779541
1621583996620,-3.1500000953674316,-11.229000091552734,-2.8329999446868896,-0.3140000104904174,-9.75699996948242,1.3470000028610227
1621583996630,-0.8399999737739563,-11.56999969482422,-4.5279998779296875,-0.2750000059604644,-9.718999862670898,1.3530000448226929
1621583996640,1.399999976158142,-12.461999893188477,-6.320000171661377,-0.2750000059604644,-9.803000450134276,1.378000020980835
1621583996650,3.0799999237060547,-12.185999870300291,-7.480000019073486,-0.3140000104904174,-9.96399974822998,1.3899999856948853
1621583996660,2.940000057220459,-10.986000061035156,-7.836999893188477,-0.3919999897480011,-10.17099952697754,1.4329999685287476
1621583996670,1.399999976158142,-8.87399959564209,-8.529999732971191,-0.4309999942779541,-10.324999809265137,1.406000018119812
1621583996680,-2.309999942779541,-5.479000091552734,-8.430000305175781,-0.5099999904632568,-10.357000350952148,1.3600000143051147
1621583996690,-6.369999885559082,-1.5499999523162842,-7.736999988555909,-0.5490000247955322,-10.317999839782717,1.3669999837875366
1621583996700,-10.640000343322754,2.569999933242798,-6.513000011444092,-0.5490000247955322,-10.196000099182127,1.3489999771118164
1621583996710,-14.0,6.8480000495910645,-6.184999942779541,-0.3919999897480011,-10.020999908447266,1.2599999904632568
1621583996720,-16.940000534057617,10.583000183105469,-5.5970001220703125,-0.2750000059604644,-9.852999687194824,1.2100000381469729
1621583996730,-18.549999237060547,12.991999626159668,-4.745999813079834,-0.0780000016093254,-9.652999877929688,1.2059999704360962
1621583996740,-19.31999969482422,14.026000022888184,-4.564000129699707,0.1570000052452087,-9.477999687194824,1.1169999837875366
1621583996750,-19.21500015258789,13.86549949645996,-4.059000015258789,0.3529999852180481,-9.303000450134276,1.0279999971389773
1621583996760,-19.11000061035156,13.704999923706056,-3.553999900817871,0.4709999859333038,-9.17300033569336,0.9720000028610228
1621583996770,-18.40999984741211,12.517000198364258,-2.058000087738037,0.5099999904632568,-9.043999671936035,0.915000021457672
1621583996780,-17.780000686645508,11.130999565124512,-1.4490000009536743,0.5879999995231628,-8.939000129699707,0.7739999890327453
1621583996790,-16.450000762939453,9.708000183105469,-0.6340000033378601,0.5879999995231628,-8.970999717712402,0.7279999852180481
1621583996800,-14.699999809265137,8.519000053405762,-0.3459999859333038,0.6669999957084655,-9.017000198364256,0.7599999904632568
1621583996810,-12.8100004196167,6.921999931335449,0.6520000100135803,0.6669999957084655,-9.086999893188477,0.7080000042915344
1621583996820,-10.5,4.882999897003174,2.140000104904175,0.5879999995231628,-9.272999763488768,0.6349999904632568
1621583996830,-8.050000190734863,2.6730000972747803,4.593999862670898,0.5490000247955322,-9.744000434875488,0.5920000076293945
1621583996840,-5.320000171661377,0.0979999974370002,7.907000064849853,0.4309999942779541,-9.776000022888184,0.5469999909400939
1621583996850,-2.5899999141693115,-2.75600004196167,11.597999572753906,0.2349999994039535,-9.253000259399414,0.5189999938011169
1621583996860,-0.1400000005960464,-4.90500020980835,11.289999961853027,0.0390000008046627,-9.097999572753906,0.5469999909400939
1621583996870,2.869999885559082,-4.690999984741211,8.057999610900879,-0.2349999994039535,-9.472999572753906,0.6399999856948853
1621583996880,5.949999809265137,-3.255000114440918,4.756999969482422,-0.4309999942779541,-9.718999862670898,0.6759999990463256
1621583996890,8.75,-1.305999994277954,0.5519999861717224,-0.5099999904632568,-9.763999938964846,0.7080000042915344
1621583996900,11.899999618530272,0.7170000076293945,-4.066999912261963,-0.6280000209808348,-9.725000381469728,0.7149999737739563
1621583996910,13.649999618530272,3.5230000019073486,-8.6899995803833,-0.7450000047683715,-9.694000244140623,0.7599999904632568
1621583996920,13.93000030517578,7.34600019454956,-12.63599967956543,-0.7059999704360961,-9.732000350952148,0.7530000209808348
1621583996930,13.510000228881836,11.064000129699709,-16.38800048828125,-0.6669999957084655,-9.89400005340576,0.7649999856948853
1621583996940,12.109999656677246,15.135000228881836,-19.722000122070312,-0.5490000247955322,-9.970999717712402,0.7509999871253967
1621583996950,11.059999465942385,16.88450050354004,-20.977001190185547,-0.3919999897480011,-10.04800033569336,0.7379999756813049
1621583996960,10.010000228881836,18.63400077819824,-22.23200035095215,-0.2349999994039535,-10.086999893188477,0.731000006198883
1621583996969,7.699999809265136,21.6299991607666,-23.906999588012695,-0.0780000016093254,-10.086999893188477,0.731000006198883
1621583996979,5.179999828338623,25.04800033569336,-25.152999877929688,0.0390000008046627,-10.079999923706056,0.6919999718666076
1621583996989,2.6600000858306885,28.535999298095703,-25.177000045776367,0.0780000016093254,-9.996000289916992,0.6669999957084655
1621583996999,0.6299999952316284,31.511999130249023,-24.724000930786133,0.1959999948740005,-9.996000289916992,0.6669999957084655
1621583997009,-1.399999976158142,34.68299865722656,-22.95599937438965,0.2750000059604644,-9.911999702453612,0.6420000195503234
1621583997019,-3.2899999618530273,36.650001525878906,-19.19700050354004,0.3529999852180481,-9.788999557495115,0.6240000128746032
1621583997029,-4.760000228881836,38.52799987792969,-15.73900032043457,0.4309999942779541,-9.64099979400635,0.6899999976158142
1621583997039,-5.389999866485596,40.31700134277344,-13.788999557495115,0.5490000247955322,-9.440999984741213,0.6850000023841857
1621583997049,-5.599999904632568,41.66299819946289,-12.555999755859377,0.6280000209808348,-9.234999656677246,0.6420000195503234
1621583997059,-5.389999866485596,42.97700119018555,-11.541999816894531,0.7059999704360961,-9.227999687194824,0.6029999852180481
1621583997069,-5.039999961853027,43.301998138427734,-10.560999870300291,0.8629999756813049,-9.357000350952148,0.6600000262260437
1621583997079,-5.460000038146973,42.81999969482422,-8.229000091552734,0.9409999847412108,-9.45300006866455,0.5239999890327453
1621583997089,-6.510000228881836,41.07600021362305,-6.4039998054504395,0.9409999847412108,-9.51599979400635,0.4329999983310699
1621583997099,-7.699999809265136,38.76900100708008,-4.607999801635742,1.0980000495910645,-9.656999588012695,0.3289999961853027
1621583997109,-9.449999809265137,36.56800079345703,-1.7970000505447388,1.0980000495910645,-9.753000259399414,0.19200000166893
1621583997119,-11.829999923706056,33.61199951171875,-0.7549999952316284,1.1380000114440918,-9.862000465393066,0.1330000013113021
1621583997129,-13.649999618530272,30.676000595092773,-1.840999960899353,1.215999960899353,-9.95699977874756,-0.003000000026077
1621583997139,-15.75,27.572999954223633,-3.5969998836517334,1.4119999408721924,-10.23900032043457,-0.2119999974966049
1621583997149,-16.170000076293945,25.82550048828125,-4.367000102996826,1.4509999752044678,-10.270999908447266,-0.2579999864101409
1621583997159,-16.59000015258789,24.07799911499023,-5.13700008392334,1.4509999752044678,-10.00100040435791,-0.209999993443489
1621583997169,-16.100000381469727,19.44700050354004,-7.091000080108643,1.3730000257492063,-9.6850004196167,-0.1940000057220459
1621583997179,-14.699999809265137,14.078000068664553,-7.682000160217285,1.215999960899353,-9.406999588012695,-0.1850000023841857
1621583997189,-12.039999961853027,9.04599952697754,-7.361000061035157,1.0590000152587893,-9.29800033569336,-0.1260000020265579
1621583997199,-8.329999923706055,5.181000232696533,-7.616000175476073,0.9020000100135804,-9.329999923706056,-0.1710000038146972
1621583997209,-4.690000057220459,2.565999984741211,-8.503999710083008,0.7059999704360961,-9.362000465393066,-0.2169999927282333
1621583997219,-2.0299999713897705,0.4449999928474426,-8.166999816894531,0.5490000247955322,-9.362000465393066,-0.2169999927282333
1621583997229,-0.699999988079071,-1.0190000534057615,-7.927000045776368,0.3529999852180481,-9.413999557495115,-0.1459999978542327
1621583997239,0.0,-1.7610000371932983,-7.347000122070312,0.2750000059604644,-9.45300006866455,-0.152999997138977
1621583997249,-0.1400000005960464,-1.7649999856948853,-6.921999931335449,0.1180000007152557,-9.505000114440918,-0.0829999968409538
1621583997259,-1.399999976158142,-0.8889999985694885,-4.635000228881836,0.0390000008046627,-9.472999572753906,-0.0370000004768371
1621583997269,-2.309999942779541,-0.1909999996423721,-2.947999954223633,0.0390000008046627,-9.487000465393066,0.0399999991059303
1621583997279,-3.009999990463257,0.3689999878406524,-1.2849999666213987,0.0390000008046627,-9.454999923706056,0.0850000008940696
1621583997289,-2.5899999141693115,1.3869999647140503,0.6000000238418579,0.0390000008046627,-9.385000228881836,0.1379999965429306
1621583997299,-2.1700000762939453,2.2750000953674316,1.6100000143051147,0.0,-9.437000274658203,0.2080000042915344
1621583997309,-0.4900000095367431,2.328000068664551,2.115999937057495,0.0,-9.482000350952148,0.2399999946355819
1621583997319,1.4700000286102295,2.2709999084472656,2.0350000858306885,0.0,-9.565999984741213,0.2649999856948852
1621583997329,2.450000047683716,2.5429999828338623,1.3009999990463257,0.0,-9.734999656677246,0.3149999976158142
1621583997339,3.5,2.413000106811523,0.4250000119209289,-0.0390000008046627,-9.85099983215332,0.2949999868869781
1621583997349,4.130000114440918,2.7249999046325684,-0.9409999847412108,0.0,-9.895999908447264,0.3260000050067901
1621583997359,4.480000019073486,2.8239998817443848,-1.7055000066757202,0.0,-9.979999542236328,0.3510000109672546
1621583997369,4.829999923706055,2.9230000972747803,-2.4700000286102295,0.0390000008046627,-9.979999542236328,0.3510000109672546
1621583997379,4.96999979019165,2.25,-4.295000076293945,0.0780000016093254,-9.940999984741213,0.3580000102519989
1621583997389,4.900000095367432,1.2970000505447388,-5.742000102996826,0.0780000016093254,-9.826000213623049,0.3790000081062316
1621583997399,5.53000020980835,-0.025000000372529,-5.9039998054504395,0.1570000052452087,-9.83899974822998,0.4560000002384185
1621583997409,6.789999961853027,-1.5740000009536743,-6.389999866485596,0.1570000052452087,-9.776000022888184,0.5469999909400939
1621583997419,8.539999961853027,-2.753999948501587,-6.953999996185303,0.1570000052452087,-9.781999588012695,0.5849999785423278
1621583997429,10.5,-3.8169999122619633,-8.98900032043457,0.1180000007152557,-9.944000244140623,0.597000002861023
1621583997439,11.829999923706056,-4.11299991607666,-10.534000396728516,0.1180000007152557,-10.097999572753906,0.5690000057220459
1621583997449,12.25,-4.190000057220459,-10.902999877929688,0.0780000016093254,-10.130000114440918,0.5239999890327453
1621583997459,10.149999618530272,-4.385000228881836,-9.800000190734863,0.0780000016093254,-10.161999702453612,0.4790000021457672
1621583997469,7.070000171661377,-4.144999980926514,-8.336000442504883,0.0390000008046627,-10.128000259399414,0.2849999964237213
1621583997479,3.9200000762939458,-3.6949999332427974,-6.053999900817871,0.0,-10.095999717712402,0.3310000002384185
1621583997489,0.7699999809265136,-2.984999895095825,-4.435999870300293,0.0,-10.050999641418455,0.2989999949932098
1621583997499,-2.240000009536743,-1.7079999446868896,-4.423999786376953,-0.0390000008046627,-9.965999603271484,0.2739999890327453
1621583997509,-4.829999923706055,-0.6209999918937683,-3.7349998950958256,0.0390000008046627,-9.843999862670898,0.2560000121593475
1621583997519,-6.230000019073486,-0.2720000147819519,-2.8910000324249268,0.0390000008046627,-9.71399974822998,0.1990000009536743
1621583997529,-7.0,-0.8029999732971191,-2.700999975204468,0.1180000007152557,-9.592000007629396,0.1809999942779541
1621583997539,-6.650000095367432,-0.8399999737739563,-2.49399995803833,0.1180000007152557,-9.553000450134276,0.1879999935626983
1621583997549,-5.809999942779541,-1.75600004196167,-1.7309999465942385,0.0780000016093254,-9.50699996948242,0.1560000032186508
1621583997559,-5.110000133514404,-2.5309998989105225,-1.3700000047683716,0.0780000016093254,-9.494000434875488,0.0790000036358833
1621583997569,-4.900000095367432,-3.005000114440918,-1.0985000133514404,0.0780000016093254,-9.526000022888184,0.032999999821186
1621583997579,-4.690000057220459,-3.4790000915527344,-0.8270000219345092,0.0390000008046627,-9.571000099182127,0.0649999976158142
1621583997589,-3.569999933242798,-4.781000137329102,-0.7009999752044677,0.0390000008046627,-9.609999656677246,0.0579999983310699
1621583997599,-3.359999895095825,-6.164000034332275,-0.5180000066757202,0.0390000008046627,-9.602999687194824,0.0199999995529651
1621583997609,-2.799999952316284,-8.053000450134277,-1.491000056266785,0.0390000008046627,-9.602999687194824,0.0199999995529651
1621583997619,-2.5199999809265137,-9.727999687194824,-3.2790000438690186,-0.0780000016093254,-9.416999816894531,0.0920000001788139
1621583997629,-1.8200000524520872,-10.810999870300291,-5.6020002365112305,-0.1180000007152557,-9.42300033569336,0.1309999972581863
1621583997639,-0.6299999952316284,-10.734999656677246,-8.859000205993652,-0.1959999948740005,-9.43000030517578,0.1689999997615814
1621583997649,0.4900000095367431,-10.73900032043457,-12.05799961090088,-0.2750000059604644,-9.623000144958496,0.135000005364418
1621583997659,1.399999976158142,-9.847000122070312,-13.890999794006348,-0.2750000059604644,-9.8100004196167,0.0630000010132789
1621583997669,1.0499999523162842,-8.472999572753906,-15.638999938964844,-0.3529999852180481,-10.015999794006348,0.1059999987483024
1621583997679,-1.0499999523162842,-6.331999778747559,-15.687999725341797,-0.3529999852180481,-10.04800033569336,0.0599999986588954
1621583997689,-3.6400001049041744,-3.8989999294281006,-14.975000381469728,-0.3919999897480011,-9.95300006866455,0.1969999969005584
1621583997699,-6.159999847412109,-1.6200000047683716,-12.58199977874756,-0.3529999852180481,-9.79800033569336,0.2240000069141387
1621583997709,-8.470000267028809,-0.1509999930858612,-9.621999740600586,-0.2750000059604644,-9.727999687194824,0.2759999930858612
1621583997719,-9.380000114440918,1.5889999866485596,-7.396999835968018,-0.3529999852180481,-9.696000099182127,0.3219999969005584
1621583997729,-9.380000114440918,3.5840001106262207,-6.618000030517578,-0.3140000104904174,-9.586999893188477,0.3810000121593475
1621583997739,-7.980000019073486,5.185999870300293,-5.625,-0.2750000059604644,-9.484999656677246,0.4790000021457672
1621583997749,-5.809999942779541,7.010000228881836,-5.090000152587891,-0.1959999948740005,-9.491000175476074,0.5170000195503234
1621583997759,-3.0799999237060547,8.060999870300293,-5.4019999504089355,-0.1180000007152557,-9.529999732971191,0.5099999904632568
1621583997769,-0.6299999952316284,7.8979997634887695,-5.289000034332275,-0.0390000008046627,-9.6850004196167,0.4830000102519989
1621583997779,0.6299999952316284,7.116000175476074,-2.868000030517578,0.0,-9.83199977874756,0.4169999957084655
1621583997789,1.0499999523162842,5.980999946594238,-0.865000009536743,0.0,-9.947999954223633,0.3970000147819519
1621583997799,1.1200000047683716,5.427499771118164,-0.7490000128746032,0.0390000008046627,-10.024999618530272,0.3829999864101409
1621583997809,1.190000057220459,4.874000072479248,-0.6330000162124633,0.0390000008046627,-10.064000129699709,0.3759999871253967
1621583997819,1.6100000143051147,3.755000114440918,-1.5410000085830688,0.0390000008046627,-9.954999923706056,0.4350000023841857
1621583997829,2.380000114440918,2.5179998874664307,-3.3940000534057617,0.0,-9.845999717712402,0.4939999878406524
1621583997839,3.6400001049041744,1.1959999799728394,-4.764999866485596,-0.0390000008046627,-9.859999656677246,0.5720000267028807
1621583997849,4.96999979019165,0.5910000205039978,-4.160999774932861,-0.1180000007152557,-9.975000381469728,0.5509999990463256
1621583997859,4.690000057220459,0.6200000047683715,-2.306999921798706,-0.1959999948740005,-10.090999603271484,0.531000018119812
1621583997869,3.0799999237060547,1.13100004196167,-1.5779999494552612,-0.3140000104904174,-10.284999847412108,0.4970000088214874
1621583997879,0.4199999868869781,2.50600004196167,-2.1170001029968266,-0.4309999942779541,-10.315999984741213,0.4510000050067901
1621583997889,-2.940000057220459,4.76800012588501,-2.8550000190734863,-0.5099999904632568,-10.354999542236328,0.4449999928474426
1621583997899,-6.71999979019165,6.7789998054504395,-4.988999843597412,-0.5879999995231628,-10.232000350952148,0.4259999990463256
1621583997909,-10.010000228881836,8.8149995803833,-7.260000228881835,-0.5879999995231628,-10.232000350952148,0.4259999990463256
1621583997919,-12.8100004196167,11.263999938964844,-8.24899959564209,-0.5490000247955322,-10.14799976348877,0.4009999930858612
1621583997929,-14.909999847412108,13.675999641418455,-9.031999588012695,-0.5490000247955322,-10.064000129699709,0.3759999871253967
1621583997939,-16.450000762939453,16.45400047302246,-9.467000007629396,-0.5490000247955322,-9.928000450134276,0.2809999883174896
1621583997949,-16.940000534057617,18.72100067138672,-8.21399974822998,-0.4709999859333038,-9.829999923706056,0.1790000051259994
1621583997959,-17.010000228881836,21.035999298095703,-7.236999988555909,-0.3529999852180481,-9.73900032043457,0.1150000020861625
1621583997969,-16.239999771118164,22.69099998474121,-6.945000171661377,-0.2750000059604644,-9.647999763488768,0.0509999990463256
1621583997979,-15.260000228881836,22.950000762939453,-6.4019999504089355,-0.1959999948740005,-9.487000465393066,0.0399999991059303
1621583997989,-13.789999961853027,22.9950008392334,-5.044000148773193,-0.0780000016093254,-9.44200038909912,0.0080000003799796
1621583997999,-11.970000267028809,21.871999740600582,-4.317999839782715,0.0780000016093254,-9.395999908447264,-0.0240000002086162
1621583998009,-10.43000030517578,20.493000030517575,-3.3519999980926514,0.1570000052452087,-9.38199996948242,-0.101000003516674
1621583998019,-9.975000381469728,19.493999481201172,-2.319999933242798,0.2750000059604644,-9.477999687194824,-0.2370000034570694
1621583998029,-9.520000457763674,18.4950008392334,-1.287999987602234,0.2349999994039535,-9.55500030517578,-0.2509999871253967
1621583998039,-8.75,16.32900047302246,0.1070000007748603,0.2349999994039535,-9.60099983215332,-0.2189999967813491
1621583998049,-8.399999618530273,14.484000205993652,0.4930000007152557,0.1959999948740005,-9.6850004196167,-0.1940000057220459
1621583998059,-8.1899995803833,12.42099952697754,0.9110000133514404,0.1570000052452087,-9.729999542236328,-0.1620000004768371
1621583998069,-8.1899995803833,11.017999649047852,0.8050000071525573,0.0780000016093254,-9.76900005340576,-0.1689999997615814
1621583998079,-8.1899995803833,9.4399995803833,-0.3260000050067901,0.0390000008046627,-9.807000160217283,-0.1759999990463256
1621583998089,-7.980000019073486,8.244000434875488,-1.6030000448226929,0.0,-9.776000022888184,-0.1299999952316284
1621583998099,-7.9099998474121085,7.046999931335449,-2.880000114440918,0.0,-9.776000022888184,-0.1299999952316284
