timestamp,gyro_x,gyro_y,gyro_z,acc_x,acc_y,acc_z
1621843596515,0.0,0.0,0.0,0.0,0.0,0.0
1621843596524,0.8399999737739563,9.746999740600586,-6.099999904632568,-0.0390000008046627,-10.210000038146973,-0.6050000190734863
1621843596534,-2.6600000858306885,8.35200023651123,-5.8480000495910645,0.0390000008046627,-10.255000114440918,-0.5730000138282775
1621843596544,-6.369999885559082,6.085999965667725,-5.89300012588501,0.0780000016093254,-10.217000007629396,-0.5669999718666076
1621843596554,-9.9399995803833,3.130000114440918,-6.059000015258789,0.0780000016093254,-10.17099952697754,-0.5979999899864196
1621843596564,-13.159999847412108,-0.1389999985694885,-6.065999984741211,0.0390000008046627,-10.119000434875488,-0.6690000295639038
1621843596574,-15.960000038146973,-2.299999952316284,-6.304999828338623,-0.0390000008046627,-10.27299976348877,-0.6959999799728394
1621843596584,-18.6200008392334,-4.392000198364258,-6.5320000648498535,-0.1180000007152557,-10.428000450134276,-0.7229999899864196
1621843596594,-22.260000228881836,-5.989999771118164,-6.743000030517578,-0.1959999948740005,-10.460000038146973,-0.7689999938011169
1621843596604,-26.950000762939453,-6.769000053405762,-7.164000034332275,-0.3140000104904174,-10.491000175476074,-0.8140000104904174
1621843596614,-31.850000381469727,-6.954999923706055,-6.913000106811523,-0.3919999897480011,-10.342000007629396,-0.9869999885559082
1621843596624,-36.400001525878906,-7.007999897003174,-6.210999965667725,-0.3919999897480011,-10.22599983215332,-0.9670000076293944
1621843596634,-40.38999938964844,-5.928999900817871,-5.879000186920166,-0.3919999897480011,-10.071000099182127,-0.9390000104904174
1621843596644,-43.61000061035156,-5.519999980926514,-5.380000114440918,-0.3919999897480011,-9.717000007629396,-0.9169999957084656
1621843596654,-45.779998779296875,-4.9720001220703125,-4.85699987411499,-0.4709999859333038,-9.12399959564209,-0.8920000195503234
1621843596664,-45.849998474121094,-5.020999908447266,-4.580999851226807,-0.5099999904632568,-8.640000343322754,-0.9259999990463256
1621843596674,-42.06999969482422,-4.992000102996826,-5.144999980926514,-0.5879999995231628,-8.348999977111816,-0.9940000176429749
1621843596684,-38.91999816894531,-4.866499900817871,-5.656000137329102,-0.6669999957084655,-8.14900016784668,-0.9990000128746032
1621843596694,-35.77000045776367,-4.741000175476074,-6.166999816894531,-0.7059999704360961,-8.180999755859375,-1.0440000295639038
1621843596704,-27.3700008392334,-4.210000038146973,-6.357999801635742,-0.7450000047683715,-8.095999717712402,-1.069000005722046
1621843596714,-17.56999969482422,-2.7219998836517334,-6.735000133514404,-0.7059999704360961,-8.036999702453613,-1.1779999732971191
1621843596724,-7.630000114440918,-1.5659999847412107,-7.242000102996825,-0.7450000047683715,-8.20300006866455,-1.3669999837875366
1621843596734,2.0999999046325684,-0.625,-6.934000015258789,-0.8629999756813049,-8.378000259399414,-1.2779999971389773
1621843596744,10.989999771118164,0.5350000262260437,-4.242000102996826,-0.8240000009536743,-8.456000328063965,-1.2920000553131104
1621843596754,18.829999923706055,2.691999912261963,-2.368000030517578,-0.7450000047683715,-8.545999526977539,-1.2280000448226929
1621843596764,25.270000457763672,4.683000087738037,-2.372999906539917,-0.7450000047683715,-8.661999702453613,-1.2489999532699585
1621843596774,31.010000228881836,6.585000038146973,-2.677000045776367,-0.7450000047683715,-8.984999656677246,-1.22599995136261
1621843596784,35.97999954223633,8.418000221252441,-1.7849999666213987,-0.7059999704360961,-9.359999656677246,-1.1330000162124634
1621843596794,39.619998931884766,9.9350004196167,-1.5180000066757202,-0.6280000209808348,-9.689000129699709,-1.0709999799728394
1621843596804,41.09000015258789,11.4350004196167,-3.1730000972747803,-0.5099999904632568,-9.902999877929688,-0.9890000224113464
1621843596814,40.18000030517578,12.100000381469728,-4.122000217437744,-0.4309999942779541,-10.128000259399414,-1.069000005722046
1621843596824,37.2400016784668,11.824000358581545,-4.170000076293945,-0.4309999942779541,-10.645999908447266,-0.8420000076293945
1621843596834,33.31999969482422,11.531999588012695,-3.723999977111816,-0.4309999942779541,-10.814000129699709,-0.7919999957084655
1621843596844,27.86000061035156,10.817999839782717,-3.7079999446868896,-0.4309999942779541,-10.83199977874756,-0.9139999747276306
1621843596854,20.09000015258789,10.031000137329102,-4.486000061035156,-0.4309999942779541,-11.04599952697754,-0.8320000171661377
1621843596864,11.899999618530272,9.08199977874756,-5.151000022888184,-0.4709999859333038,-11.196000099182127,-0.6600000262260437
1621843596874,4.900000095367432,8.49899959564209,-4.258999824523926,-0.5099999904632568,-11.041000366210936,-0.6320000290870667
1621843596884,-3.5,8.25100040435791,-4.870999813079834,-0.5099999904632568,-10.777999877929688,-0.5460000038146972
1621843596894,-6.71999979019165,7.886000156402587,-5.823999881744385,-0.4309999942779541,-10.630000114440918,-0.4799999892711639
1621843596904,-9.9399995803833,7.520999908447266,-6.7769999504089355,-0.3919999897480011,-10.437000274658203,-0.4460000097751617
1621843596914,-14.699999809265137,6.7829999923706055,-7.830999851226807,-0.3919999897480011,-10.159999847412108,-0.4370000064373016
1621843596924,-18.479999542236328,5.849999904632568,-7.782000064849853,-0.3919999897480011,-9.88199996948242,-0.4280000030994415
1621843596934,-20.790000915527344,4.21999979019165,-8.211999893188477,-0.3919999897480011,-9.675999641418455,-0.4709999859333038
1621843596944,-21.280000686645508,3.0360000133514404,-9.55799961090088,-0.4309999942779541,-9.416999816894531,-0.5849999785423278
1621843596954,-20.510000228881836,2.1070001125335693,-9.9350004196167,-0.5099999904632568,-9.12600040435791,-0.652999997138977
1621843596964,-18.200000762939453,1.149999976158142,-9.748000144958496,-0.5099999904632568,-8.98900032043457,-0.7490000128746032
1621843596974,-14.630000114440918,0.7120000123977661,-9.68299961090088,-0.5490000247955322,-8.89900016784668,-0.8119999766349792
1621843596984,-10.149999618530272,0.9679999947547911,-9.92300033569336,-0.6280000209808348,-8.776000022888184,-0.8299999833106994
1621843596994,-4.760000228881836,2.505000114440918,-9.366999626159668,-0.7450000047683715,-8.755000114440918,-0.9459999799728392
1621843597004,0.4900000095367431,3.502000093460083,-7.769999980926514,-0.9020000100135804,-8.664999961853027,-1.0099999904632568
1621843597014,5.809999942779541,5.566999912261963,-6.979000091552734,-0.981000006198883,-8.619000434875488,-1.0420000553131104
1621843597024,11.270000457763672,8.458000183105469,-6.043000221252441,-1.0980000495910645,-8.902999877929688,-1.0119999647140503
1621843597034,16.450000762939453,12.508999824523926,-4.830999851226807,-1.2549999952316284,-9.187000274658203,-0.9829999804496764
1621843597044,19.739999771118164,17.03499984741211,-2.683000087738037,-1.4509999752044678,-9.401000022888184,-0.9010000228881836
1621843597054,21.0,22.253999710083008,-0.8379999995231628,-1.3730000257492063,-9.819000244140623,-1.0140000581741333
1621843597064,20.510000228881836,27.711999893188477,0.0529999993741512,-1.2549999952316284,-10.451000213623049,-1.0460000038146973
1621843597074,17.780000686645508,32.91899871826172,0.7580000162124633,-1.0199999809265137,-10.871000289916992,-0.9210000038146972
1621843597084,11.199999809265137,35.99599838256836,1.4429999589920044,-0.7850000262260437,-11.013999938964844,-0.787000000476837
1621843597094,2.240000009536743,36.632999420166016,1.0570000410079956,-0.4709999859333038,-10.982000350952148,-0.7419999837875366
1621843597104,-6.230000019073486,35.935001373291016,-0.6290000081062316,-0.2750000059604644,-10.918999671936035,-0.6510000228881835
1621843597114,-13.090000152587892,33.32400131225586,-1.9429999589920044,-0.1570000052452087,-10.840999603271484,-0.637000024318695
1621843597124,-18.969999313354492,29.34600067138672,-2.359999895095825,-0.0780000016093254,-10.571000099182127,-0.5889999866485595
1621843597134,-23.520000457763672,24.731000900268555,-3.5999999046325684,-0.0390000008046627,-10.26200008392334,-0.5350000262260437
1621843597144,-26.38999938964844,20.131999969482425,-5.335000038146973,-0.0390000008046627,-9.984999656677246,-0.5260000228881835
1621843597154,-27.09000015258789,16.579999923706055,-6.956999778747559,-0.0780000016093254,-9.609999656677246,-0.6190000176429749
1621843597164,-26.459999084472656,15.034999847412108,-7.868999958038329,-0.1180000007152557,-9.326000213623049,-0.6489999890327453
1621843597174,-25.829999923706055,13.489999771118164,-8.781000137329102,-0.1180000007152557,-8.996000289916992,-0.7099999785423278
1621843597184,-22.049999237060547,10.894000053405762,-10.58899974822998,-0.1180000007152557,-8.6850004196167,-0.8939999938011169
1621843597194,-17.079999923706055,8.197999954223633,-11.420000076293944,-0.1570000052452087,-8.548999786376953,-0.9900000095367432
1621843597204,-10.850000381469728,6.218999862670898,-11.484999656677246,-0.1959999948740005,-8.380999565124512,-1.0399999618530271
1621843597214,-3.849999904632568,4.504000186920166,-11.432000160217283,-0.1959999948740005,-8.3149995803833,-1.187000036239624
1621843597224,3.359999895095825,3.3480000495910645,-12.133000373840332,-0.2349999994039535,-8.392000198364258,-1.2009999752044678
1621843597234,10.220000267028809,2.2239999771118164,-12.614999771118164,-0.2349999994039535,-8.5600004196167,-1.1510000228881836
1621843597244,16.3799991607666,1.5470000505447388,-12.805999755859377,-0.1959999948740005,-8.829999923706055,-1.1990000009536743
1621843597254,20.86000061035156,0.9959999918937684,-11.69499969482422,-0.2349999994039535,-9.029999732971191,-1.194000005722046
1621843597264,23.59000015258789,-0.006000000052154,-10.449999809265137,-0.2349999994039535,-9.30799961090088,-1.2029999494552612
1621843597274,24.63999938964844,-0.9660000205039978,-9.836999893188477,-0.2349999994039535,-9.53499984741211,-1.0440000295639038
1621843597284,24.43000030517578,-1.9720000028610227,-8.166000366210938,-0.2349999994039535,-9.696000099182127,-1.0329999923706057
1621843597294,23.3799991607666,-3.3499999046325684,-7.201000213623047,-0.2750000059604644,-9.741999626159668,-1.0010000467300415
1621843597304,21.770000457763672,-4.13700008392334,-6.770999908447266,-0.3140000104904174,-9.92300033569336,-0.8730000257492065
1621843597314,19.31999969482422,-4.676000118255615,-6.936999797821045,-0.3919999897480011,-10.260000228881836,-0.7730000019073486
1621843597324,15.890000343322754,-5.122000217437744,-6.020999908447266,-0.5099999904632568,-10.543999671936035,-0.7440000176429749
1621843597334,10.710000038146973,-3.910000085830689,-6.447000026702881,-0.7059999704360961,-10.753000259399414,-0.4620000123977661
1621843597344,5.389999866485596,-2.680999994277954,-7.368000030517577,-0.7059999704360961,-10.734999656677246,-0.3389999866485595
1621843597354,-0.1400000005960464,-1.128000020980835,-8.515000343322754,-0.7450000047683715,-10.649999618530272,-0.363999992609024
1621843597364,-5.25,0.4079999923706054,-7.960000038146973,-0.7059999704360961,-10.541000366210936,-0.3050000071525573
1621843597374,-9.3100004196167,1.2200000286102295,-7.318999767303467,-0.7059999704360961,-10.380000114440918,-0.31700000166893
1621843597384,-12.18000030517578,1.924999952316284,-6.484000205993652,-0.6669999957084655,-10.25100040435791,-0.3740000128746032
1621843597394,-14.770000457763672,2.622999906539917,-6.00600004196167,-0.6280000209808348,-10.128000259399414,-0.3919999897480011
1621843597404,-16.3799991607666,3.8550000190734863,-6.144000053405762,-0.5879999995231628,-9.960000038146973,-0.44200000166893
1621843597414,-17.639999389648438,4.929999828338623,-6.593999862670898,-0.5490000247955322,-9.822999954223633,-0.537000000476837
1621843597424,-18.34000015258789,5.335000038146973,-6.877999782562256,-0.5490000247955322,-9.654999732971191,-0.5870000123977661
1621843597434,-18.200000762939453,5.822000026702881,-7.218999862670899,-0.4709999859333038,-9.512000083923342,-0.7210000157356262
1621843597444,-17.290000915527344,5.659999847412109,-7.105000019073486,-0.3529999852180481,-9.343999862670898,-0.7710000276565551
1621843597454,-15.609999656677246,5.3480000495910645,-6.947000026702881,-0.3919999897480011,-9.194000244140623,-0.944000005722046
1621843597464,-13.159999847412108,4.906000137329102,-6.455999851226807,-0.3140000104904174,-9.12399959564209,-0.8920000195503234
1621843597474,-11.654999732971191,4.508500099182129,-6.41949987411499,-0.2750000059604644,-9.085000038146973,-0.8849999904632568
1621843597484,-10.149999618530272,4.111000061035156,-6.382999897003174,-0.2750000059604644,-8.987000465393066,-0.9869999885559082
1621843597494,-6.159999847412109,3.5799999237060547,-6.191999912261963,-0.2750000059604644,-9.01900005340576,-1.0329999923706057
1621843597504,-2.7300000190734863,3.3239998817443848,-5.953000068664551,-0.2750000059604644,-9.01900005340576,-1.0329999923706057
1621843597514,1.190000057220459,2.2739999294281006,-5.640999794006348,-0.2750000059604644,-9.050999641418455,-1.0779999494552612
1621843597524,4.829999923706055,1.5479999780654907,-5.556000232696533,-0.3140000104904174,-9.128000259399414,-1.0920000076293943
1621843597534,7.980000019073486,1.0859999656677246,-5.353000164031982,-0.3140000104904174,-9.166999816894531,-1.0989999771118164
1621843597544,10.640000343322754,0.6359999775886535,-5.218999862670898,-0.3919999897480011,-9.25100040435791,-1.0740000009536743
1621843597554,13.090000152587892,0.1979999989271163,-5.1539998054504395,-0.4309999942779541,-9.303000450134276,-1.003000020980835
1621843597564,14.699999809265137,0.0359999984502792,-5.039999961853027,-0.4709999859333038,-9.46399974822998,-0.9919999837875366
1621843597574,15.75,-0.4099999964237213,-5.331999778747559,-0.5099999904632568,-9.638999938964846,-0.902999997138977
1621843597584,15.68000030517578,-0.5929999947547911,-5.506999969482422,-0.5099999904632568,-9.80799961090088,-0.8529999852180481
1621843597594,14.5600004196167,-0.6740000247955322,-5.449999809265137,-0.5879999995231628,-9.897999763488768,-0.7889999747276306
1621843597604,13.579999923706056,-0.625,-5.72599983215332,-0.6669999957084655,-10.027999877929688,-0.7329999804496765
1621843597614,11.619999885559082,-0.7710000276565551,-6.10699987411499,-0.7059999704360961,-10.112000465393066,-0.7080000042915344
1621843597624,9.029999732971191,-0.6209999918937683,-6.151000022888184,-0.6669999957084655,-10.119000434875488,-0.6690000295639038
1621843597634,6.230000019073486,-0.31700000166893,-6.665999889373779,-0.7059999704360961,-10.12600040435791,-0.6299999952316284
1621843597644,3.7100000381469727,0.3109999895095825,-7.4089999198913565,-0.7059999704360961,-10.178000450134276,-0.5600000023841857
1621843597654,0.9800000190734864,0.7170000076293945,-7.691999912261963,-0.7059999704360961,-10.093999862670898,-0.5849999785423278
1621843597664,-1.1200000047683716,1.774999976158142,-7.6479997634887695,-0.7059999704360961,-10.062000274658203,-0.5389999747276306
1621843597674,-2.940000057220459,2.193000078201294,-8.00100040435791,-0.7059999704360961,-10.02299976348877,-0.5329999923706054
1621843597684,-4.340000152587891,3.125,-8.050000190734863,-0.7059999704360961,-9.906999588012695,-0.512000024318695
1621843597694,-5.039999961853027,3.724999904632568,-8.227999687194824,-0.7059999704360961,-9.829999923706056,-0.4990000128746032
1621843597704,-5.320000171661377,4.4070000648498535,-8.463000297546387,-0.6669999957084655,-9.78499984741211,-0.5299999713897705
1621843597714,-4.900000095367432,4.763000011444092,-8.472000122070312,-0.5879999995231628,-9.73900032043457,-0.5619999766349792
1621843597724,-4.690000057220459,5.2820000648498535,-8.593000411987305,-0.5490000247955322,-9.701000213623049,-0.5550000071525573
1621843597734,-4.199999809265137,5.724999904632568,-7.875999927520752,-0.5490000247955322,-9.654999732971191,-0.5870000123977661
1621843597744,-3.569999933242798,5.4770002365112305,-7.27899980545044,-0.5099999904632568,-9.571000099182127,-0.6119999885559082
1621843597754,-3.009999990463257,5.3480000495910645,-6.947000026702881,-0.4709999859333038,-9.571000099182127,-0.6119999885559082
1621843597764,-1.9600000381469729,5.380000114440918,-6.728000164031982,-0.4309999942779541,-9.571000099182127,-0.6119999885559082
1621843597774,-1.3300000429153442,5.447000026702881,-6.503000259399414,-0.4309999942779541,-9.51900005340576,-0.6830000281333923
1621843597784,-0.699999988079071,5.513999938964844,-6.2779998779296875,-0.4709999859333038,-9.467000007629396,-0.7530000209808348
1621843597794,0.4199999868869781,4.994999885559082,-6.156000137329102,-0.4709999859333038,-9.467000007629396,-0.7530000209808348
1621843597804,1.6799999475479126,4.9019999504089355,-6.03000020980835,-0.5099999904632568,-9.460000038146973,-0.7919999957084655
1621843597814,2.940000057220459,4.4070000648498535,-6.046999931335449,-0.5099999904632568,-9.467000007629396,-0.7530000209808348
1621843597824,3.990000009536743,4.216000080108643,-6.578000068664551,-0.5099999904632568,-9.498000144958496,-0.7990000247955322
1621843597834,4.829999923706055,3.86299991607666,-6.994999885559082,-0.5099999904632568,-9.543999671936035,-0.7670000195503234
1621843597844,5.53000020980835,3.78600001335144,-7.363999843597413,-0.5099999904632568,-9.58899974822998,-0.7350000143051147
1621843597854,5.320000171661377,3.4089999198913574,-7.644000053405762,-0.5099999904632568,-9.67300033569336,-0.7099999785423278
1621843597864,4.900000095367432,3.055999994277954,-8.062000274658203,-0.5099999904632568,-9.847999572753906,-0.6209999918937683
1621843597874,3.9200000762939458,3.1410000324249268,-8.543999671936035,-0.5099999904632568,-9.89400005340576,-0.5889999866485595
1621843597884,2.7300000190734863,3.1619999408721924,-8.255999565124512,-0.5490000247955322,-9.939000129699709,-0.5580000281333923
1621843597894,1.3300000429153442,3.243000030517578,-8.312999725341797,-0.5099999904632568,-9.939000129699709,-0.5580000281333923
1621843597904,0.0700000002980232,3.73799991607666,-8.29699993133545,-0.5099999904632568,-9.939000129699709,-0.5580000281333923
1621843597914,-1.190000057220459,3.802000045776367,-7.859000205993653,-0.5099999904632568,-9.939000129699709,-0.5580000281333923
1621843597924,-2.450000047683716,4.14300012588501,-7.373000144958496,-0.5490000247955322,-9.901000022888184,-0.5509999990463256
1621843597934,-3.0799999237060547,3.9930000305175786,-7.328000068664551,-0.5490000247955322,-9.829999923706056,-0.4990000128746032
1621843597944,-3.569999933242798,4.005000114440918,-7.396999835968018,-0.5490000247955322,-9.78499984741211,-0.5299999713897705
1621843597954,-3.849999904632568,4.431000232696533,-7.39300012588501,-0.5099999904632568,-9.694000244140623,-0.5939999818801879
1621843597964,-3.6400001049041744,4.650000095367432,-7.425000190734864,-0.4709999859333038,-9.694000244140623,-0.5939999818801879
1621843597974,-3.0799999237060547,4.776000022888184,-7.331999778747559,-0.5099999904632568,-9.647999763488768,-0.6259999871253967
1621843597984,-2.450000047683716,4.7270002365112305,-7.056000232696533,-0.4309999942779541,-9.571000099182127,-0.6119999885559082
1621843597994,-1.5399999618530271,4.7270002365112305,-7.056000232696533,-0.4309999942779541,-9.564000129699709,-0.6510000228881835
1621843598004,-0.1400000005960464,4.557000160217285,-7.300000190734864,-0.4309999942779541,-9.472999572753906,-0.7139999866485595
1621843598014,1.0499999523162842,4.13100004196167,-7.30399990081787,-0.4309999942779541,-9.512000083923342,-0.7210000157356262
1621843598024,2.0999999046325684,4.026000022888184,-7.109000205993652,-0.4309999942779541,-9.472999572753906,-0.7139999866485595
1621843598034,3.0799999237060547,4.026000022888184,-7.109000205993652,-0.3919999897480011,-9.512000083923342,-0.7210000157356262
1621843598044,3.9200000762939458,3.506999969482422,-6.986999988555908,-0.4309999942779541,-9.51900005340576,-0.6830000281333923
1621843598054,4.025000095367432,3.302000045776367,-7.236499786376954,-0.5099999904632568,-9.595999717712402,-0.6959999799728394
1621843598064,4.130000114440918,3.0969998836517334,-7.486000061035157,-0.4709999859333038,-9.718999862670898,-0.6779999732971191
1621843598074,4.130000114440918,3.2060000896453857,-8.105999946594238,-0.4309999942779541,-9.79599952697754,-0.6919999718666076
1621843598084,3.7799999713897705,2.821000099182129,-8.743000030517578,-0.4709999859333038,-9.81700038909912,-0.5759999752044677
1621843598094,3.1500000953674316,2.2090001106262207,-9.70400047302246,-0.4309999942779541,-9.854999542236328,-0.5830000042915344
1621843598104,2.869999885559082,1.7139999866485596,-9.720000267028809,-0.4309999942779541,-9.89400005340576,-0.5889999866485595
1621843598114,1.9600000381469729,1.6169999837875366,-9.168999671936035,-0.4709999859333038,-9.901000022888184,-0.5509999990463256
1621843598124,1.190000057220459,1.2760000228881836,-8.446999549865723,-0.5099999904632568,-9.854999542236328,-0.5830000042915344
1621843598134,0.6299999952316284,1.1790000200271606,-7.894999980926514,-0.5490000247955322,-9.901000022888184,-0.5509999990463256
1621843598144,-0.1400000005960464,1.1909999847412107,-7.96400022506714,-0.4709999859333038,-9.888999938964846,-0.3889999985694885
1621843598154,-0.9100000262260436,1.7910000085830688,-8.142999649047852,-0.4309999942779541,-9.836999893188477,-0.4600000083446502
1621843598163,-1.3300000429153442,2.0989999771118164,-7.875,-0.5099999904632568,-9.791999816894531,-0.492000013589859
1621843598173,-1.6799999475479126,2.36299991607666,-7.757999897003175,-0.5099999904632568,-9.746000289916992,-0.5239999890327453
1621843598183,-1.8200000524520872,2.5859999656677246,-8.215999603271484,-0.4709999859333038,-9.777999877929688,-0.5690000057220459
1621843598193,-2.309999942779541,2.943000078201294,-8.223999977111816,-0.4709999859333038,-9.701000213623049,-0.5550000071525573
1621843598203,-2.380000114440918,2.986999988555908,-8.074000358581543,-0.4709999859333038,-9.694000244140623,-0.5939999818801879
1621843598213,-2.240000009536743,3.461999893188477,-8.345999717712402,-0.4709999859333038,-9.661999702453612,-0.5490000247955322
1621843598223,-1.75,4.033999919891357,-7.960999965667725,-0.4709999859333038,-9.661999702453612,-0.5490000247955322
1621843598233,-0.8399999737739563,4.020999908447266,-7.892000198364258,-0.4309999942779541,-9.616999626159668,-0.5799999833106994
1621843598243,-0.2800000011920929,4.329999923706055,-7.624000072479248,-0.4309999942779541,-9.623000144958496,-0.5419999957084655
1621843598253,0.4199999868869781,4.236000061035156,-7.498000144958496,-0.3919999897480011,-9.630000114440918,-0.5030000209808348
1621843598263,1.0499999523162842,4.361999988555908,-7.405000209808349,-0.3919999897480011,-9.661999702453612,-0.5490000247955322
1621843598273,1.3300000429153442,4.394999980926514,-7.185999870300293,-0.3529999852180481,-9.701000213623049,-0.5550000071525573
1621843598283,1.2599999904632568,4.026000022888184,-7.109000205993652,-0.3529999852180481,-9.73900032043457,-0.5619999766349792
1621843598293,1.190000057220459,3.7939999103546143,-7.007999897003174,-0.3919999897480011,-9.746000289916992,-0.5239999890327453
1621843598303,1.0499999523162842,3.5880000591278076,-7.044000148773193,-0.3529999852180481,-9.753000259399414,-0.4850000143051147
1621843598313,0.6649999618530273,3.438000202178955,-6.999500274658203,-0.3529999852180481,-9.791999816894531,-0.492000013589859
1621843598323,0.2800000011920929,3.288000106811523,-6.954999923706055,-0.3529999852180481,-9.836999893188477,-0.4600000083446502
1621843598333,-0.4900000095367431,3.1500000953674316,-6.979000091552734,-0.3919999897480011,-9.829999923706056,-0.4990000128746032
1621843598343,-0.699999988079071,3.1500000953674316,-6.979000091552734,-0.3919999897480011,-9.791999816894531,-0.492000013589859
1621843598353,-1.190000057220459,2.934999942779541,-7.372000217437744,-0.3529999852180481,-9.753000259399414,-0.4850000143051147
1621843598363,-1.2599999904632568,3.0239999294281006,-7.072000026702881,-0.3529999852180481,-9.70699977874756,-0.5170000195503234
1621843598373,-1.190000057220459,2.558000087738037,-6.443999767303467,-0.3919999897480011,-9.753000259399414,-0.4850000143051147
1621843598383,-1.1200000047683716,2.4200000762939453,-6.4679999351501465,-0.3919999897480011,-9.675999641418455,-0.4709999859333038
1621843598393,-1.190000057220459,2.0959999561309814,-6.241000175476074,-0.4309999942779541,-9.71399974822998,-0.4779999852180481
1621843598403,-1.0499999523162842,2.0510001182556152,-6.390999794006348,-0.4309999942779541,-9.70699977874756,-0.5170000195503234
1621843598413,-1.1200000047683716,1.99399995803833,-6.4720001220703125,-0.4709999859333038,-9.701000213623049,-0.5550000071525573
1621843598423,-0.9100000262260436,2.2290000915527344,-6.999000072479248,-0.4709999859333038,-9.668999671936035,-0.5099999904632568
1621843598433,-0.7699999809265136,2.313999891281128,-7.48199987411499,-0.4709999859333038,-9.71399974822998,-0.4779999852180481
1621843598443,-1.2599999904632568,2.38700008392334,-7.894999980926514,-0.4709999859333038,-9.720999717712402,-0.4390000104904174
1621843598453,-1.2599999904632568,2.38700008392334,-7.894999980926514,-0.4709999859333038,-9.71399974822998,-0.4779999852180481
1621843598463,-1.190000057220459,2.8329999446868896,-7.604000091552734,-0.4709999859333038,-9.746000289916992,-0.5239999890327453
1621843598473,-1.2599999904632568,3.121000051498413,-7.624000072479248,-0.4309999942779541,-9.71399974822998,-0.4779999852180481
1621843598483,-1.3300000429153442,3.1540000438690186,-7.405000209808349,-0.4309999942779541,-9.668999671936035,-0.5099999904632568
1621843598493,-1.399999976158142,2.9100000858306885,-7.235000133514405,-0.4309999942779541,-9.668999671936035,-0.5099999904632568
1621843598503,-0.9100000262260436,2.805000066757202,-7.039999961853027,-0.4709999859333038,-9.654999732971191,-0.5870000123977661
1621843598513,-0.699999988079071,2.700000047683716,-6.84499979019165,-0.4309999942779541,-9.616999626159668,-0.5799999833106994
1621843598523,-0.209999993443489,2.3910000324249268,-7.11299991607666,-0.4309999942779541,-9.623000144958496,-0.5419999957084655
1621843598533,0.2800000011920929,1.7910000085830688,-6.934000015258789,-0.4309999942779541,-9.661999702453612,-0.5490000247955322
1621843598543,0.2800000011920929,1.8380000591278076,-6.996999740600586,-0.3919999897480011,-9.720999717712402,-0.4390000104904174
1621843598553,0.2800000011920929,1.8849999904632568,-7.059999942779541,-0.4709999859333038,-9.70699977874756,-0.5170000195503234
1621843598563,0.4199999868869781,1.690000057220459,-7.164999961853027,-0.4709999859333038,-9.661999702453612,-0.5490000247955322
1621843598573,0.5600000023841857,1.4630000591278076,-7.489999771118165,-0.4709999859333038,-9.71399974822998,-0.4779999852180481
1621843598583,0.5600000023841857,1.5199999809265137,-7.4089999198913565,-0.4309999942779541,-9.71399974822998,-0.4779999852180481
1621843598593,0.5600000023841857,1.6449999809265137,-7.315000057220459,-0.4709999859333038,-9.71399974822998,-0.4779999852180481
1621843598603,0.699999988079071,1.5399999618530271,-7.120999813079834,-0.4709999859333038,-9.753000259399414,-0.4850000143051147
1621843598613,0.6299999952316284,1.6449999809265137,-7.315000057220459,-0.4709999859333038,-9.71399974822998,-0.4779999852180481
1621843598623,0.5600000023841857,2.0220000743865967,-7.035999774932861,-0.4309999942779541,-9.753000259399414,-0.4850000143051147
1621843598633,0.5600000023841857,2.0829999446868896,-7.380000114440918,-0.4709999859333038,-9.753000259399414,-0.4850000143051147
1621843598643,0.6299999952316284,2.500999927520752,-7.732999801635742,-0.4309999942779541,-9.79800033569336,-0.453000009059906
1621843598653,0.209999993443489,2.3949999809265137,-7.539000034332275,-0.4309999942779541,-9.753000259399414,-0.4850000143051147
1621843598663,-0.1400000005960464,2.634999990463257,-7.282999992370605,-0.4709999859333038,-9.791999816894531,-0.492000013589859
1621843598673,-0.4900000095367431,2.8580000400543213,-7.741000175476073,-0.4709999859333038,-9.760000228881836,-0.4460000097751617
1621843598683,-0.8399999737739563,2.809000015258789,-7.4660000801086435,-0.4309999942779541,-9.78499984741211,-0.5299999713897705
1621843598693,-1.4700000286102295,2.885999917984009,-7.0970001220703125,-0.4309999942779541,-9.78499984741211,-0.5299999713897705
1621843598703,-1.9600000381469729,3.0160000324249268,-7.42899990081787,-0.4309999942779541,-9.746000289916992,-0.5239999890327453
1621843598713,-2.1700000762939453,3.384999990463257,-7.506000041961671,-0.4709999859333038,-9.753000259399414,-0.4850000143051147
1621843598723,-1.8200000524520872,3.3480000495910645,-7.298999786376954,-0.4309999942779541,-9.70699977874756,-0.5170000195503234
1621843598733,-1.6799999475479126,3.5880000591278076,-7.044000148773193,-0.4309999942779541,-9.71399974822998,-0.4779999852180481
1621843598743,-1.8200000524520872,3.6930000782012935,-7.238999843597413,-0.3919999897480011,-9.73900032043457,-0.5619999766349792
1621843598753,-1.680000066757202,3.65250015258789,-7.2104997634887695,-0.3919999897480011,-9.777999877929688,-0.5690000057220459
1621843598763,-1.5399999618530271,3.611999988555908,-7.182000160217285,-0.3529999852180481,-9.777999877929688,-0.5690000057220459
1621843598773,-1.3300000429153442,3.0889999866485596,-6.633999824523926,-0.3919999897480011,-9.73900032043457,-0.5619999766349792
1621843598783,-1.3300000429153442,3.0199999809265137,-6.646999835968018,-0.3529999852180481,-9.777999877929688,-0.5690000057220459
1621843598793,-1.2599999904632568,3.0199999809265137,-6.646999835968018,-0.3529999852180481,-9.777999877929688,-0.5690000057220459
1621843598803,-1.4700000286102295,2.493000030517578,-6.881999969482422,-0.3529999852180481,-9.73900032043457,-0.5619999766349792
1621843598813,-1.6799999475479126,1.9980000257492063,-6.8979997634887695,-0.3919999897480011,-9.718999862670898,-0.6779999732971191
1621843598823,-1.6100000143051147,2.0910000801086426,-7.02400016784668,-0.3919999897480011,-9.73900032043457,-0.5619999766349792
1621843598833,-1.399999976158142,1.9780000448226929,-7.185999870300293,-0.3919999897480011,-9.746000289916992,-0.5239999890327453
1621843598843,-1.3300000429153442,1.8760000467300415,-7.416999816894531,-0.3919999897480011,-9.701000213623049,-0.5550000071525573
1621843598853,-1.190000057220459,2.075000047683716,-7.736999988555909,-0.4309999942779541,-9.701000213623049,-0.5550000071525573
1621843598863,-1.2599999904632568,2.4079999923706055,-7.60699987411499,-0.3919999897480011,-9.694000244140623,-0.5939999818801879
1621843598873,-1.1200000047683716,2.861999988555908,-6.959000110626221,-0.4709999859333038,-9.701000213623049,-0.5550000071525573
1621843598883,-1.190000057220459,2.7320001125335693,-6.625999927520752,-0.5099999904632568,-9.694000244140623,-0.5939999818801879
1621843598893,-0.8399999737739563,2.9149999618530273,-6.452000141143799,-0.5099999904632568,-9.661999702453612,-0.5490000247955322
1621843598903,-0.699999988079071,3.510999917984009,-6.204999923706055,-0.4709999859333038,-9.623000144958496,-0.5419999957084655
1621843598913,-0.699999988079071,3.880000114440918,-6.2820000648498535,-0.5099999904632568,-9.654999732971191,-0.5870000123977661
1621843598923,-0.3499999940395355,3.7420001029968266,-6.306000232696533,-0.5099999904632568,-9.694000244140623,-0.5939999818801879
1621843598933,0.0700000002980232,3.786999940872192,-6.156000137329102,-0.4709999859333038,-9.661999702453612,-0.5490000247955322
1621843598943,0.1749999970197677,3.6549999713897705,-6.215000152587891,-0.3919999897480011,-9.654999732971191,-0.5870000123977661
1621843598953,0.2800000011920929,3.5230000019073486,-6.27400016784668,-0.4309999942779541,-9.661999702453612,-0.5490000247955322
1621843598963,0.7699999809265136,3.1579999923706055,-6.622000217437744,-0.4309999942779541,-9.654999732971191,-0.5870000123977661
1621843598973,0.4900000095367431,2.8010001182556152,-6.613999843597412,-0.4309999942779541,-9.661999702453612,-0.5490000247955322
1621843598983,0.5600000023841857,2.7809998989105225,-6.9019999504089355,-0.4709999859333038,-9.70699977874756,-0.5170000195503234
1621843598993,0.209999993443489,2.9019999504089355,-7.5910000801086435,-0.5099999904632568,-9.78499984741211,-0.5299999713897705
1621843599003,0.0700000002980232,3.186000108718872,-8.394000053405762,-0.5490000247955322,-9.822999954223633,-0.537000000476837
1621843599013,-0.2800000011920929,3.4049999713897705,-8.427000045776367,-0.5879999995231628,-9.746000289916992,-0.5239999890327453
1621843599023,-0.4199999868869781,3.7899999618530273,-8.99899959564209,-0.5879999995231628,-9.70699977874756,-0.5170000195503234
1621843599033,0.209999993443489,3.8550000190734863,-8.560999870300293,-0.5879999995231628,-9.70699977874756,-0.5170000195503234
1621843599043,1.190000057220459,4.041999816894531,-7.604000091552734,-0.6280000209808348,-9.668999671936035,-0.5099999904632568
1621843599053,1.8200000524520872,4.184000015258789,-8.005000114440918,-0.6280000209808348,-9.675999641418455,-0.4709999859333038
1621843599063,2.5199999809265137,5.099999904632568,-8.767999649047852,-0.6280000209808348,-9.682000160217283,-0.4329999983310699
1621843599073,3.1500000953674316,5.359000205993652,-9.43299961090088,-0.6280000209808348,-9.720999717712402,-0.4390000104904174
1621843599083,2.799999952316284,5.423999786376953,-10.203000068664553,-0.5879999995231628,-9.836999893188477,-0.4600000083446502
1621843599093,2.0299999713897705,5.520999908447266,-10.755000114440918,-0.6280000209808348,-9.913999557495115,-0.4740000069141387
1621843599103,0.7699999809265136,5.375,-11.13599967956543,-0.6669999957084655,-9.95300006866455,-0.4799999892711639
1621843599113,-1.0499999523162842,6.039999961853027,-10.87600040435791,-0.7059999704360961,-9.977999687194824,-0.5640000104904174
1621843599123,-1.434999942779541,6.180000305175781,-11.06450080871582,-0.7059999704360961,-9.984999656677246,-0.5260000228881835
1621843599133,-1.8200000524520872,6.320000171661377,-11.253000259399414,-0.7850000262260437,-9.913999557495115,-0.4740000069141387
1621843599143,-2.5899999141693115,6.9120001792907715,-11.788999557495115,-0.8240000009536743,-9.87600040435791,-0.4670000076293945
1621843599153,-2.940000057220459,7.548999786376954,-12.173999786376951,-0.8240000009536743,-9.727999687194824,-0.4009999930858612
1621843599163,-2.450000047683716,8.411999702453613,-12.234999656677246,-0.8629999756813049,-9.619000434875488,-0.3420000076293945
1621843599173,-1.75,9.218999862670898,-12.376999855041504,-0.9020000100135804,-9.503000259399414,-0.3210000097751617
1621843599183,-0.699999988079071,10.432000160217283,-12.803000450134276,-0.8629999756813049,-9.43299961090088,-0.2689999938011169
1621843599193,0.1400000005960464,11.486000061035156,-13.541000366210938,-0.8629999756813049,-9.39400005340576,-0.2619999945163726
1621843599203,0.8399999737739563,12.880999565124512,-13.79300022125244,-0.8240000009536743,-9.354999542236328,-0.2549999952316284
1621843599213,0.3499999940395355,13.927000045776367,-13.678999900817873,-0.7850000262260437,-9.347999572753906,-0.2939999997615814
1621843599223,0.209999993443489,14.243000030517578,-13.05500030517578,-0.7450000047683715,-9.387000083923342,-0.3009999990463256
1621843599233,-0.1400000005960464,14.899999618530272,-11.944000244140623,-0.7059999704360961,-9.46399974822998,-0.3149999976158142
1621843599243,-0.4900000095367431,14.75100040435791,-10.690999984741213,-0.7059999704360961,-9.48900032043457,-0.3989999890327453
1621843599253,0.2800000011920929,13.871000289916992,-8.927000045776367,-0.6280000209808348,-9.496000289916992,-0.3600000143051147
1621843599263,1.2599999904632568,12.512999534606934,-7.673999786376954,-0.5490000247955322,-9.477999687194824,-0.2370000034570694
1621843599273,2.0999999046325684,11.17099952697754,-6.914999961853027,-0.5490000247955322,-9.45300006866455,-0.152999997138977
1621843599283,3.1500000953674316,9.784000396728516,-6.307000160217285,-0.5099999904632568,-9.37600040435791,-0.1400000005960464
1621843599293,4.409999847412109,8.04800033569336,-5.333000183105469,-0.5099999904632568,-9.42099952697754,-0.1080000028014183
1621843599303,5.074999809265137,6.937000274658203,-4.676000118255615,-0.5099999904632568,-9.543999671936035,-0.0900000035762786
1621843599313,5.739999771118164,5.826000213623047,-4.019000053405762,-0.5490000247955322,-9.666999816894531,-0.0710000023245811
1621843599323,6.929999828338623,3.755000114440918,-2.75,-0.5879999995231628,-9.744000434875488,-0.0850000008940696
1621843599333,7.9099998474121085,1.5410000085830688,-2.2869999408721924,-0.6280000209808348,-9.781999588012695,-0.0920000001788139
1621843599343,9.100000381469728,-0.3000000119209289,-2.328000068664551,-0.6669999957084655,-9.79599952697754,-0.0149999996647238
1621843599353,9.729999542236328,-2.0239999294281006,-2.63100004196167,-0.7450000047683715,-9.835000038146973,-0.0209999997168779
1621843599363,9.9399995803833,-4.318999767303467,-2.111999988555908,-0.8240000009536743,-9.873000144958496,-0.0280000008642673
1621843599373,9.520000457763674,-6.159999847412109,-2.1519999504089355,-0.7850000262260437,-9.911999702453612,-0.0350000001490116
1621843599383,8.609999656677246,-7.543000221252441,-3.177999973297119,-0.9020000100135804,-9.98900032043457,-0.0489999987185001
1621843599393,7.0,-8.758999824523926,-3.5350000858306885,-0.9409999847412108,-10.156999588012695,0.0010000000474974
1621843599403,4.900000095367432,-9.46500015258789,-4.369999885559082,-0.9409999847412108,-10.30500030517578,-0.0640000030398368
1621843599413,2.309999942779541,-10.437999725341797,-4.896999835968018,-0.981000006198883,-10.37600040435791,-0.1169999986886978
1621843599423,-1.4700000286102295,-10.475000381469728,-5.89900016784668,-0.981000006198883,-10.406999588012695,-0.1620000004768371
1621843599433,-4.690000057220459,-10.494999885559082,-7.394999980926514,-0.9409999847412108,-10.362000465393066,-0.1940000057220459
1621843599443,-7.699999809265136,-10.762999534606934,-8.295000076293945,-0.9020000100135804,-10.277999877929688,-0.2189999967813491
1621843599453,-10.289999961853027,-10.543999671936035,-9.53600025177002,-0.8629999756813049,-10.130000114440918,-0.152999997138977
1621843599463,-12.109999656677246,-10.135000228881836,-10.246000289916992,-0.7850000262260437,-10.031999588012695,-0.2549999952316284
1621843599473,-13.579999923706056,-9.531000137329102,-9.64099979400635,-0.7450000047683715,-10.128000259399414,-0.3919999897480011
1621843599483,-13.789999961853027,-9.250999450683594,-9.413999557495115,-0.6669999957084655,-10.08199977874756,-0.4239999949932098
1621843599493,-14.0,-8.970999717712402,-9.187000274658203,-0.6280000209808348,-9.92099952697754,-0.4350000023841857
1621843599503,-13.300000190734863,-8.289999961853027,-8.21399974822998,-0.5490000247955322,-9.720999717712402,-0.4390000104904174
1621843599513,-12.18000030517578,-7.798999786376954,-7.771999835968018,-0.5099999904632568,-9.5600004196167,-0.4510000050067901
1621843599523,-11.0600004196167,-6.98799991607666,-7.131999969482422,-0.3919999897480011,-9.579999923706056,-0.3350000083446502
1621843599533,-9.800000190734863,-5.677999973297119,-5.691999912261963,-0.3529999852180481,-9.527999877929688,-0.4050000011920929
1621843599543,-8.260000228881836,-4.834000110626221,-4.833000183105469,-0.3140000104904174,-9.437000274658203,-0.4690000116825103
1621843599553,-7.420000076293945,-4.764999866485596,-4.821000099182129,-0.2750000059604644,-9.397999763488768,-0.4620000123977661
1621843599563,-6.440000057220459,-4.210000038146973,-5.14900016784668,-0.2349999994039535,-9.276000022888184,-0.4799999892711639
1621843599573,-5.53000020980835,-3.503999948501587,-5.521999835968018,-0.1959999948740005,-9.19200038909912,-0.5049999952316284
1621843599583,-4.96999979019165,-3.572999954223633,-5.534999847412109,-0.1959999948740005,-9.145999908447264,-0.537000000476837
1621843599593,-4.619999885559082,-3.2690000534057617,-6.050000190734863,-0.1959999948740005,-9.138999938964846,-0.5759999752044677
1621843599603,-3.849999904632568,-3.134999990463257,-6.808000087738037,-0.1570000052452087,-9.138999938964846,-0.5759999752044677
1621843599613,-3.359999895095825,-3.5769999027252197,-6.316999912261963,-0.1180000007152557,-9.178000450134276,-0.5830000042915344
1621843599623,-2.799999952316284,-4.302999973297119,-6.23199987411499,-0.1180000007152557,-9.222999572753906,-0.5509999990463256
1621843599633,-2.1700000762939453,-4.997000217437744,-5.927999973297119,-0.1180000007152557,-9.222999572753906,-0.5509999990463256
1621843599643,-1.190000057220459,-5.316999912261963,-6.125999927520752,-0.0780000016093254,-9.255000114440918,-0.5960000157356262
1621843599653,-0.209999993443489,-5.682000160217285,-6.474999904632568,-0.0780000016093254,-9.371000289916992,-0.6169999837875366
1621843599663,0.2800000011920929,-6.184999942779541,-6.8480000495910645,-0.0390000008046627,-9.416999816894531,-0.5849999785423278
1621843599673,1.4700000286102295,-6.890999794006348,-7.683000087738037,-0.0390000008046627,-9.447999954223633,-0.6299999952316284
1621843599683,1.9600000381469729,-7.111999988555908,-8.041999816894531,-0.0390000008046627,-9.487000465393066,-0.637000024318695
1621843599693,2.450000047683716,-7.333000183105469,-8.401000022888184,-0.0390000008046627,-9.609999656677246,-0.6190000176429749
1621843599703,3.359999895095825,-7.77899980545044,-9.901000022888184,0.0,-9.73900032043457,-0.5619999766349792
1621843599713,3.7799999713897705,-8.670999526977539,-10.484999656677246,0.0390000008046627,-9.81700038909912,-0.5759999752044677
1621843599723,4.340000152587891,-9.020000457763674,-11.328000068664553,0.0390000008046627,-9.847999572753906,-0.6209999918937683
1621843599733,4.690000057220459,-9.23900032043457,-12.503999710083008,0.0,-9.89400005340576,-0.5889999866485595
1621843599743,4.900000095367432,-9.288000106811523,-13.437000274658203,0.0390000008046627,-9.970999717712402,-0.6029999852180481
1621843599753,4.690000057220459,-8.472999572753906,-14.430999755859377,0.0,-10.017000198364258,-0.5709999799728394
1621843599763,4.480000019073486,-8.107999801635742,-15.289999961853027,-0.0390000008046627,-9.984999656677246,-0.5260000228881835
1621843599773,4.340000152587891,-7.199999809265137,-16.40999984741211,0.0,-9.946000099182127,-0.5189999938011169
1621843599783,4.480000019073486,-6.215000152587891,-17.15999984741211,0.0390000008046627,-9.998000144958496,-0.4490000009536743
1621843599793,4.619999885559082,-4.98199987411499,-17.29800033569336,0.0390000008046627,-9.928000450134276,-0.3959999978542327
1621843599803,5.039999961853027,-3.624000072479248,-17.343000411987305,0.0390000008046627,-9.85099983215332,-0.3829999864101409
1621843599813,5.53000020980835,-2.7269999980926514,-17.184999465942383,0.0780000016093254,-9.819000244140623,-0.3370000123977661
1621843599823,5.949999809265137,-1.4859999418258667,-16.965999603271484,0.0780000016093254,-9.741999626159668,-0.3240000009536743
1621843599832,6.300000190734863,-0.1770000010728836,-16.735000610351562,0.1570000052452087,-9.741999626159668,-0.3240000009536743
1621843599842,6.300000190734863,0.4519999921321868,-16.268999099731445,0.1959999948740005,-9.772999763488768,-0.3689999878406524
1621843599852,6.300000190734863,1.3890000581741333,-15.534999847412108,0.2349999994039535,-9.779999732971191,-0.3300000131130218
1621843599863,6.510000228881836,2.038000106811523,-14.781000137329102,0.2349999994039535,-9.786999702453612,-0.2919999957084655
1621843599872,6.860000133514404,2.6089999675750732,-14.395999908447266,0.2349999994039535,-9.793999671936035,-0.2529999911785125
1621843599882,6.894999980926514,2.9114999771118164,-14.093500137329102,0.2750000059604644,-9.800999641418455,-0.2150000035762786
1621843599892,6.929999828338623,3.2139999866485596,-13.791000366210938,0.2750000059604644,-9.845999717712402,-0.1829999983310699
1621843599902,7.210000038146973,3.8580000400543217,-13.81999969482422,0.3140000104904174,-9.793999671936035,-0.2529999911785125
1621843599912,7.349999904632568,4.482999801635742,-14.13599967956543,0.3529999852180481,-9.885000228881836,-0.1889999955892562
1621843599922,7.349999904632568,4.940999984741211,-15.121999740600586,0.3919999897480011,-9.89099979400635,-0.1509999930858612
1621843599932,6.789999961853027,4.921000003814697,-15.409999847412108,0.4309999942779541,-9.904999732971191,-0.0740000009536743
1621843599942,6.159999847412109,4.928999900817871,-15.053000450134276,0.4709999859333038,-9.937000274658203,-0.1190000027418136
1621843599952,4.829999923706055,4.7179999351501465,-14.663999557495115,0.4709999859333038,-9.944000244140623,-0.0799999982118606
1621843599962,3.359999895095825,4.605000019073486,-13.616999626159668,0.4709999859333038,-10.020999908447266,-0.0939999967813491
1621843599972,1.6799999475479126,3.713000059127808,-12.993000030517578,0.4709999859333038,-9.982000350952148,-0.0869999974966049
1621843599982,0.4900000095367431,3.0999999046325684,-12.744999885559082,0.4709999859333038,-10.020999908447266,-0.0939999967813491
1621843599992,-1.1200000047683716,2.8570001125335693,-12.574999809265137,0.4709999859333038,-10.027999877929688,-0.0549999997019767
1621843600002,-2.7300000190734863,3.1570000648498535,-12.663999557495115,0.4709999859333038,-10.020999908447266,-0.0939999967813491
1621843600012,-3.6400001049041744,3.0309998989105225,-12.756999969482422,0.3919999897480011,-9.97599983215332,-0.1260000020265579
1621843600022,-4.829999923706055,3.063999891281128,-12.538000106811523,0.3529999852180481,-9.937000274658203,-0.1190000027418136
1621843600032,-5.460000038146973,3.7939999103546143,-11.840999603271484,0.3919999897480011,-9.89099979400635,-0.1509999930858612
1621843600042,-5.389999866485596,4.206999778747559,-11.767999649047852,0.3919999897480011,-9.852999687194824,-0.1439999938011169
1621843600052,-5.039999961853027,4.710000038146973,-11.395000457763672,0.3140000104904174,-9.776000022888184,-0.1299999952316284
1621843600062,-4.760000228881836,5.014999866485596,-10.70199966430664,0.3529999852180481,-9.76900005340576,-0.1689999997615814
1621843600072,-4.409999847412109,5.517000198364258,-10.32900047302246,0.3919999897480011,-9.76900005340576,-0.1689999997615814
1621843600082,-3.7799999713897705,5.813000202178955,-9.991999626159668,0.4309999942779541,-9.776000022888184,-0.1299999952316284
1621843600092,-3.569999933242798,5.827500343322754,-9.670000076293944,0.4309999942779541,-9.729999542236328,-0.1620000004768371
1621843600102,-3.359999895095825,5.8420000076293945,-9.347999572753906,0.4309999942779541,-9.69200038909912,-0.1550000011920929
1621843600112,-2.940000057220459,5.553999900817871,-9.32699966430664,0.4309999942779541,-9.697999954223633,-0.1169999986886978
1621843600122,-2.1700000762939453,5.541999816894531,-9.258000373840332,0.4309999942779541,-9.652999877929688,-0.1490000039339065
1621843600132,-1.6100000143051147,5.65500020980835,-9.095999717712402,0.3919999897480011,-9.61400032043457,-0.1420000046491622
1621843600142,-1.2599999904632568,5.493000030517578,-8.982999801635742,0.3919999897480011,-9.69200038909912,-0.1550000011920929
1621843600152,-1.4700000286102295,5.355000019073486,-9.006999969482422,0.3919999897480011,-9.737000465393066,-0.123999997973442
1621843600162,-1.6100000143051147,5.445000171661377,-8.706999778747559,0.3529999852180481,-9.776000022888184,-0.1299999952316284
1621843600172,-2.1700000762939453,5.432000160217285,-8.637999534606934,0.3529999852180481,-9.807000160217283,-0.1759999990463256
1621843600182,-3.0799999237060547,5.59499979019165,-8.75100040435791,0.3140000104904174,-9.807000160217283,-0.1759999990463256
1621843600192,-3.990000009536743,5.699999809265137,-8.946000099182129,0.3140000104904174,-9.807000160217283,-0.1759999990463256
1621843600202,-4.900000095367432,6.1579999923706055,-8.722999572753906,0.3140000104904174,-9.83899974822998,-0.221000000834465
1621843600212,-6.369999885559082,6.364999771118164,-8.687000274658203,0.3529999852180481,-9.819000244140623,-0.3370000123977661
1621843600222,-7.280000209808349,6.283999919891357,-8.630000114440918,0.3529999852180481,-9.819000244140623,-0.3370000123977661
1621843600232,-7.9099998474121085,6.1620001792907715,-7.940999984741211,0.3140000104904174,-9.772999763488768,-0.3689999878406524
1621843600242,-8.470000267028809,6.572000026702881,-7.441999912261963,0.3529999852180481,-9.727999687194824,-0.4009999930858612
1621843600252,-8.609999656677246,6.552000045776367,-7.730000019073486,0.3140000104904174,-9.689000129699709,-0.3939999938011169
1621843600262,-8.399999618530273,6.933000087738037,-7.875999927520752,0.3529999852180481,-9.734999656677246,-0.3619999885559082
1621843600272,-8.399999618530273,7.387000083923339,-8.4350004196167,0.3140000104904174,-9.720999717712402,-0.4390000104904174
1621843600282,-8.399999618530273,7.76800012588501,-8.581000328063965,0.3140000104904174,-9.682000160217283,-0.4329999983310699
1621843600292,-8.399999618530273,7.73199987411499,-8.375,0.3140000104904174,-9.71399974822998,-0.4779999852180481
1621843600302,-8.364999771118164,7.99149990081787,-8.435500144958496,0.3140000104904174,-9.64400005340576,-0.4259999990463256
1621843600312,-8.329999923706055,8.25100040435791,-8.496000289916992,0.3919999897480011,-9.623000144958496,-0.5419999957084655
1621843600322,-7.769999980926514,8.234999656677246,-8.001999855041504,0.3919999897480011,-9.654999732971191,-0.5870000123977661
1621843600332,-7.349999904632568,8.380999565124512,-7.619999885559082,0.3919999897480011,-9.647999763488768,-0.6259999871253967
1621843600342,-5.670000076293945,8.781999588012695,-7.479000091552734,0.4309999942779541,-9.526000022888184,-0.6439999938011169
1621843600352,-3.990000009536743,8.267000198364258,-6.573999881744385,0.3919999897480011,-9.479999542236328,-0.6759999990463256
1621843600362,-2.799999952316284,7.84600019454956,-5.796000003814697,0.3529999852180481,-9.526000022888184,-0.6439999938011169
1621843600372,-1.1200000047683716,7.877999782562256,-5.577000141143799,0.3529999852180481,-9.487000465393066,-0.637000024318695
1621843600382,0.3499999940395355,7.40399980545044,-5.304999828338623,0.3529999852180481,-9.40999984741211,-0.6240000128746032
1621843600392,2.6600000858306885,6.948999881744385,-5.953999996185303,0.3140000104904174,-9.300999641418455,-0.5649999976158142
1621843600402,4.96999979019165,6.961999893188477,-6.0229997634887695,0.2750000059604644,-9.293999671936035,-0.6029999852180481
1621843600412,6.650000095367432,7.269999980926514,-5.755000114440918,0.1959999948740005,-9.385000228881836,-0.5400000214576721
1621843600422,8.050000190734863,7.370999813079834,-5.52400016784668,0.1959999948740005,-9.47599983215332,-0.4760000109672546
1621843600432,9.380000114440918,7.789000034332275,-5.876999855041504,0.1570000052452087,-9.47599983215332,-0.4760000109672546
1621843600442,10.43000030517578,7.9629998207092285,-6.059000015258789,0.1570000052452087,-9.520999908447264,-0.4440000057220459
1621843600452,11.550000190734863,8.52299976348877,-5.605000019073486,0.1959999948740005,-9.468999862670898,-0.5149999856948853
1621843600462,12.529999732971191,9.387000083923342,-5.665999889373779,0.1570000052452087,-9.527999877929688,-0.4050000011920929
1621843600472,13.510000228881836,9.961999893188477,-5.706999778747559,0.1570000052452087,-9.668999671936035,-0.5099999904632568
1621843600482,14.840000152587892,10.522000312805176,-5.252999782562256,0.1180000007152557,-9.78499984741211,-0.5299999713897705
1621843600492,17.010000228881836,11.421999931335447,-5.519999980926514,0.0780000016093254,-9.829999923706056,-0.4990000128746032
1621843600502,20.579999923706055,11.72599983215332,-6.034999847412109,0.0780000016093254,-9.612000465393066,-0.3799999952316284
1621843600512,24.989999771118164,12.638999938964844,-6.372000217437744,0.0390000008046627,-9.354999542236328,-0.2549999952316284
1621843600522,29.1200008392334,13.62399959564209,-5.914000034332275,-0.0780000016093254,-9.092000007629396,-0.1689999997615814
1621843600532,30.939998626708984,14.154999732971191,-6.104499816894531,-0.1180000007152557,-9.18299961090088,-0.1059999987483024
1621843600542,32.7599983215332,14.685999870300291,-6.295000076293945,-0.1180000007152557,-9.388999938964846,-0.061999998986721
1621843600552,34.650001525878906,16.527000427246094,-6.255000114440918,-0.1570000052452087,-9.557000160217283,-0.0120000001043081
1621843600562,35.41999816894531,17.674999237060547,-5.910999774932861,-0.1180000007152557,-9.642000198364256,0.0130000002682209
1621843600572,34.650001525878906,19.16699981689453,-5.505000114440918,-0.1180000007152557,-9.694000244140623,0.0829999968409538
1621843600582,32.40999984741211,19.780000686645508,-4.544000148773193,-0.0780000016093254,-9.829999923706056,0.1790000051259994
1621843600592,30.100000381469727,20.468999862670895,-3.2139999866485596,-0.2349999994039535,-10.005000114440918,0.2669999897480011
1621843600602,26.950000762939453,21.579999923706055,-2.663000106811523,-0.2750000059604644,-10.204999923706056,0.2720000147819519
1621843600612,22.1200008392334,22.395000457763672,-2.447999954223633,-0.3140000104904174,-10.444000244140623,0.270000010728836
1621843600622,16.030000686645508,24.073999404907227,-2.2939999103546143,-0.4309999942779541,-10.850000381469728,0.31700000166893
1621843600632,8.050000190734863,25.81399917602539,-1.2769999504089355,-0.5490000247955322,-11.17300033569336,0.3400000035762786
1621843600642,-1.0499999523162842,28.8799991607666,-0.5230000019073486,-0.7059999704360961,-11.340999603271484,0.3899999856948852
1621843600652,-10.5,32.630001068115234,-0.4300000071525573,-0.8240000009536743,-11.347999572753906,0.4289999902248382
1621843600662,-18.829999923706055,36.619998931884766,-1.2910000085830688,-0.9020000100135804,-11.270999908447266,0.44200000166893
1621843600672,-26.11000061035156,41.141998291015625,-2.3410000801086426,-0.8629999756813049,-11.140999794006348,0.3860000073909759
1621843600682,-32.689998626708984,45.31800079345703,-2.244999885559082,-0.8240000009536743,-11.019000053405762,0.367000013589859
1621843600692,-37.869998931884766,48.56999969482422,-1.7419999837875366,-0.6669999957084655,-10.696000099182127,0.3449999988079071
1621843600702,-40.95000076293945,50.73600006103515,-1.9290000200271609,-0.5490000247955322,-10.437000274658203,0.231000006198883
1621843600712,-41.650001525878906,52.04999923706055,-2.124000072479248,-0.3140000104904174,-10.215999603271484,0.1099999994039535
1621843600722,-41.15999984741211,52.154998779296875,-1.1100000143051147,-0.1959999948740005,-9.96399974822998,0.0350000001490116
1621843600732,-38.91999816894531,51.53499984741211,-0.0109999999403953,-0.0780000016093254,-9.744000434875488,-0.0850000008940696
1621843600742,-35.279998779296875,50.20100021362305,1.1039999723434448,0.0,-9.484999656677246,-0.1990000009536743
1621843600752,-30.59000015258789,48.07600021362305,1.8669999837875368,0.1180000007152557,-9.270999908447264,-0.2800000011920929
1621843600762,-28.06999969482422,47.112998962402344,2.0880000591278076,0.1180000007152557,-9.211999893188477,-0.3899999856948852
1621843600772,-25.549999237060547,46.150001525878906,2.309000015258789,0.0780000016093254,-9.152999877929688,-0.4990000128746032
1621843600782,-20.229999542236328,44.154998779296875,2.739000082015991,0.0,-9.10099983215332,-0.5690000057220459
1621843600792,-14.350000381469728,42.290000915527344,1.628000020980835,0.0,-9.12600040435791,-0.652999997138977
1621843600802,-8.680000305175781,40.529998779296875,0.3230000138282775,0.0,-9.27400016784668,-0.7189999818801879
1621843600812,-3.359999895095825,39.45100021362305,-1.218000054359436,0.0,-9.336999893188477,-0.8100000023841857
1621843600822,1.75,37.69900131225586,-2.1670000553131104,0.0390000008046627,-9.446000099182127,-0.8690000176429749
1621843600832,5.460000038146973,35.46500015258789,-3.200000047683716,0.0390000008046627,-9.446000099182127,-0.8690000176429749
1621843600842,7.769999980926514,33.452999114990234,-3.4839999675750732,0.0390000008046627,-9.401000022888184,-0.9010000228881836
1621843600852,9.869999885559082,31.045000076293945,-3.127000093460083,0.0780000016093254,-9.369000434875488,-0.8550000190734863
1621843600862,11.340000152587892,28.981000900268555,-2.7090001106262207,0.0390000008046627,-9.569000244140623,-0.8510000109672546
1621843600872,11.829999923706056,27.309999465942383,-2.50600004196167,0.0,-9.76900005340576,-0.8460000157356262
1621843600882,11.130000114440918,25.8700008392334,-3.61299991607666,-0.0390000008046627,-9.866999626159668,-0.7440000176429749
1621843600892,9.65999984741211,24.479000091552734,-4.994999885559082,-0.1180000007152557,-9.951000213623049,-0.7189999818801879
1621843600902,7.559999942779541,24.041000366210938,-6.138999938964844,-0.1570000052452087,-9.96399974822998,-0.6420000195503234
1621843600912,5.039999961853027,23.291000366210938,-7.124000072479248,-0.1959999948740005,-10.010000228881836,-0.6100000143051147
1621843600922,2.380000114440918,22.87700080871582,-7.197000026702881,-0.2750000059604644,-10.02299976348877,-0.5329999923706054
1621843600932,-0.1400000005960464,22.69499969482422,-7.370999813079834,-0.2349999994039535,-9.906999588012695,-0.512000024318695
1621843600942,-2.5899999141693115,22.53300094604492,-7.257999897003175,-0.2349999994039535,-9.87600040435791,-0.4670000076293945
1621843600952,-3.849999904632568,22.357999801635746,-7.074999809265137,-0.1959999948740005,-9.767000198364256,-0.4079999923706054
1621843600962,-4.829999923706055,22.211999893188477,-6.248000144958496,-0.2349999994039535,-9.651000022888184,-0.3869999945163726
1621843600972,-5.949999809265137,22.844999313354492,-6.206999778747559,-0.2349999994039535,-9.651000022888184,-0.3869999945163726
1621843600982,-6.300000190734863,22.97699928283691,-6.148499965667725,-0.2349999994039535,-9.637000083923342,-0.4639999866485595
1621843600992,-6.650000095367432,23.108999252319336,-6.090000152587891,-0.2750000059604644,-9.675999641418455,-0.4709999859333038
1621843601002,-6.860000133514404,23.701000213623047,-6.625,-0.2349999994039535,-9.791999816894531,-0.492000013589859
1621843601012,-7.559999942779541,23.687999725341797,-6.556000232696533,-0.2349999994039535,-9.946000099182127,-0.5189999938011169
1621843601022,-8.819999694824219,23.843000411987305,-5.817999839782715,-0.1570000052452087,-9.946000099182127,-0.5189999938011169
1621843601032,-10.640000343322754,23.469999313354492,-5.315000057220459,-0.1570000052452087,-9.96399974822998,-0.6420000195503234
1621843601042,-12.109999656677246,22.881999969482425,-5.205999851226807,-0.0390000008046627,-9.911999702453612,-0.7120000123977661
1621843601052,-12.880000114440918,22.434999465942383,-5.498000144958496,-0.1180000007152557,-9.892000198364256,-0.828000009059906
1621843601062,-13.159999847412108,21.29199981689453,-6.26800012588501,-0.1570000052452087,-9.76900005340576,-0.8460000157356262
1621843601072,-12.25,20.915000915527344,-7.756000041961671,-0.1959999948740005,-9.562000274658203,-0.8889999985694885
1621843601082,-11.0600004196167,20.371000289916992,-8.704999923706055,-0.1570000052452087,-9.517000198364256,-0.9210000038146972
1621843601092,-9.729999542236328,20.225000381469727,-9.086000442504885,-0.1180000007152557,-9.522999763488768,-0.8830000162124633
1621843601102,-7.699999809265136,19.72599983215332,-8.675999641418457,-0.0780000016093254,-9.54800033569336,-0.9670000076293944
1621843601112,-5.460000038146973,19.082000732421875,-8.64799976348877,-0.0390000008046627,-9.541999816894531,-1.0049999952316284
1621843601122,-4.130000114440918,18.409000396728516,-8.055999755859375,0.0,-9.56700038909912,-1.0889999866485596
1621843601132,-3.009999990463257,16.989999771118164,-6.458000183105469,0.0,-9.604999542236328,-1.0959999561309814
1621843601142,-1.8200000524520872,15.871000289916992,-4.948999881744385,-0.0390000008046627,-9.612000465393066,-1.0579999685287476
1621843601152,-0.9100000262260436,14.456000328063965,-3.776999950408935,-0.0780000016093254,-9.619000434875488,-1.0190000534057615
1621843601162,0.4199999868869781,13.67300033569336,-3.7730000019073486,-0.1180000007152557,-9.67099952697754,-0.9480000138282776
1621843601172,1.3300000429153442,12.833999633789064,-3.849999904632568,-0.1959999948740005,-9.633000373840332,-0.9419999718666076
1621843601182,2.1700000762939453,12.651000022888184,-4.02400016784668,-0.2349999994039535,-9.645999908447264,-0.8640000224113464
1621843601192,2.309999942779541,12.45199966430664,-3.7039999961853023,-0.2750000059604644,-9.652999877929688,-0.8259999752044677
1621843601202,2.380000114440918,12.12399959564209,-3.0510001182556152,-0.2750000059604644,-9.65999984741211,-0.787000000476837
1621843601212,2.240000009536743,12.11199951171875,-2.9820001125335693,-0.2750000059604644,-9.58899974822998,-0.7350000143051147
1621843601222,2.0999999046325684,12.100000381469728,-2.913000106811523,-0.2750000059604644,-9.526000022888184,-0.6439999938011169
1621843601232,1.6799999475479126,11.72700023651123,-2.4100000858306885,-0.2750000059604644,-9.487000465393066,-0.637000024318695
1621843601242,1.1200000047683716,10.385000228881836,-1.6519999504089355,-0.2349999994039535,-9.51900005340576,-0.6830000281333923
1621843601252,0.699999988079071,9.321999549865724,-1.2710000276565552,-0.2349999994039535,-9.635000228881836,-0.703000009059906
1621843601262,-0.2800000011920929,8.12600040435791,-0.1309999972581863,-0.2750000059604644,-9.821000099182127,-0.7760000228881835
1621843601272,-0.9800000190734864,6.961999893188477,0.0189999993890523,-0.2750000059604644,-10.020999908447266,-0.7710000276565551
1621843601282,-1.75,5.692999839782715,0.363999992609024,-0.2750000059604644,-10.0600004196167,-0.777999997138977
1621843601292,-1.8899999856948853,4.169000148773193,0.9480000138282776,-0.3140000104904174,-9.968999862670898,-0.8420000076293945
1621843601302,-1.4700000286102295,2.7049999237060547,1.187999963760376,-0.3529999852180481,-9.859999656677246,-0.7829999923706054
1621843601312,-0.4199999868869781,1.3949999809265137,0.9570000171661376,-0.3529999852180481,-9.79599952697754,-0.6919999718666076
1621843601322,0.3499999940395355,0.0489999987185001,0.9330000281333924,-0.4309999942779541,-9.647999763488768,-0.6259999871253967
1621843601332,0.9800000190734864,-0.7459999918937683,1.00600004196167,-0.3919999897480011,-9.494000434875488,-0.5989999771118164
1621843601342,1.6799999475479126,-1.1599999666213987,-0.2759999930858612,-0.3529999852180481,-9.494000434875488,-0.5989999771118164
1621843601352,1.6100000143051147,-1.5369999408721924,-1.7640000581741333,-0.3529999852180481,-9.416999816894531,-0.5849999785423278
1621843601362,1.399999976158142,-1.562000036239624,-2.8340001106262207,-0.3529999852180481,-9.378000259399414,-0.578000009059906
1621843601372,0.9100000262260436,-2.0929999351501465,-3.8519999980926514,-0.3529999852180481,-9.416999816894531,-0.5849999785423278
1621843601382,0.0,-1.8739999532699585,-5.0929999351501465,-0.3140000104904174,-9.378000259399414,-0.578000009059906
1621843601392,-1.5399999618530271,-1.955000042915344,-6.24399995803833,-0.2750000059604644,-9.42300033569336,-0.5460000038146972
1621843601402,-3.009999990463257,-1.9229999780654907,-7.234000205993653,-0.2349999994039535,-9.494000434875488,-0.5989999771118164
1621843601412,-4.760000228881836,-2.183000087738037,-7.776999950408936,-0.2349999994039535,-9.571000099182127,-0.6119999885559082
1621843601422,-6.71999979019165,-2.0290000438690186,-8.248000144958496,-0.1570000052452087,-9.642000198364256,-0.6639999747276306
1621843601432,-8.329999923706055,-2.3329999446868896,-8.940999984741211,-0.1180000007152557,-9.72599983215332,-0.6389999985694885
1621843601442,-8.925000190734863,-2.4605000019073486,-8.821499824523926,-0.0390000008046627,-9.758000373840332,-0.6850000023841857
1621843601452,-9.520000457763674,-2.5880000591278076,-8.70199966430664,-0.0390000008046627,-9.72599983215332,-0.6389999985694885
1621843601462,-10.779999732971191,-2.4260001182556152,-8.8149995803833,-0.0390000008046627,-9.72599983215332,-0.6389999985694885
1621843601472,-11.340000152587892,-2.240000009536743,-9.06700038909912,-0.0780000016093254,-9.718999862670898,-0.6779999732971191
1621843601482,-11.6899995803833,-2.4630000591278076,-8.607999801635742,-0.0390000008046627,-9.711999893188477,-0.7170000076293945
1621843601492,-12.109999656677246,-2.1419999599456787,-8.40999984741211,0.0,-9.75100040435791,-0.7239999771118164
1621843601501,-11.899999618530272,-2.121999979019165,-8.121999740600586,0.0390000008046627,-9.835000038146973,-0.6990000009536743
1621843601511,-11.829999923706056,-2.4579999446868896,-7.826000213623046,0.0780000016093254,-9.944000244140623,-0.7580000162124633
1621843601521,-11.340000152587892,-2.868000030517578,-7.116000175476074,0.0780000016093254,-10.020999908447266,-0.7710000276565551
1621843601531,-10.640000343322754,-3.325999975204468,-6.13100004196167,0.0780000016093254,-10.0600004196167,-0.777999997138977
1621843601541,-9.800000190734863,-3.7960000038146977,-5.076000213623047,0.0390000008046627,-10.097999572753906,-0.7850000262260437
1621843601551,-8.680000305175781,-4.111999988555908,-4.492000102996826,0.0,-10.0600004196167,-0.777999997138977
1621843601561,-7.769999980926514,-4.708000183105469,-3.5309998989105225,0.0,-9.944000244140623,-0.7580000162124633
1621843601571,-7.630000114440918,-5.843999862670898,-2.736000061035156,0.0390000008046627,-9.782999992370604,-0.7689999938011169
1621843601581,-7.139999866485596,-5.892000198364258,-2.4609999656677246,-0.1180000007152557,-9.67300033569336,-0.7099999785423278
1621843601591,-7.139999866485596,-6.329999923706055,-2.3959999084472656,-0.0780000016093254,-9.505000114440918,-0.7599999904632568
1621843601601,-7.420000076293945,-6.633999824523926,-3.0889999866485596,-0.0780000016093254,-9.42099952697754,-0.7850000262260437
1621843601611,-7.210000038146973,-6.683000087738037,-4.021999835968018,-0.0780000016093254,-9.369000434875488,-0.8550000190734863
1621843601621,-7.070000171661377,-6.75600004196167,-4.815999984741211,-0.1180000007152557,-9.413999557495115,-0.8240000009536743
1621843601631,-7.070000171661377,-6.309999942779541,-5.732999801635742,-0.1180000007152557,-9.401000022888184,-0.9010000228881836
1621843601641,-7.139999866485596,-6.452000141143799,-6.539999961853027,-0.1180000007152557,-9.439000129699709,-0.9079999923706054
1621843601651,-7.139999866485596,-6.703999996185303,-6.72599983215332,-0.1570000052452087,-9.439000129699709,-0.9079999923706054
1621843601661,-6.369999885559082,-6.36299991607666,-7.447999954223632,-0.1570000052452087,-9.43299961090088,-0.9459999799728392
1621843601671,-6.054999828338623,-6.545499801635742,-7.622499942779541,-0.1570000052452087,-9.484999656677246,-0.8759999871253967
1621843601681,-5.739999771118164,-6.728000164031982,-7.796999931335449,-0.1959999948740005,-9.477999687194824,-0.9139999747276306
1621843601691,-4.550000190734863,-7.418000221252441,-7.918000221252441,-0.2349999994039535,-9.470999717712402,-0.953000009059906
1621843601701,-3.430000066757202,-7.461999893188477,-8.067999839782715,-0.2750000059604644,-9.470999717712402,-0.953000009059906
1621843601711,-2.240000009536743,-7.604000091552734,-8.875,-0.2750000059604644,-9.510000228881836,-0.9599999785423278
1621843601721,-0.6299999952316284,-7.1539998054504395,-10.218000411987305,-0.3140000104904174,-9.60099983215332,-0.8960000276565551
1621843601731,0.8399999737739563,-7.008999824523926,-11.045000076293944,-0.2750000059604644,-9.633000373840332,-0.9419999718666076
1621843601741,2.0299999713897705,-6.448999881744385,-11.798999786376951,-0.2750000059604644,-9.717000007629396,-0.9169999957084656
1621843601751,2.6600000858306885,-5.885000228881836,-11.770999908447266,-0.1959999948740005,-9.786999702453612,-0.968999981880188
1621843601761,2.799999952316284,-4.920000076293945,-11.60099983215332,-0.2349999994039535,-9.902999877929688,-0.9890000224113464
1621843601771,2.0299999713897705,-4.080999851226807,-11.52400016784668,-0.2349999994039535,-9.972999572753906,-1.0420000553131104
1621843601781,1.190000057220459,-2.9779999256134033,-11.32900047302246,-0.1959999948740005,-9.979999542236328,-1.003000020980835
1621843601791,-0.209999993443489,-2.013000011444092,-11.159000396728516,-0.1570000052452087,-9.967000007629396,-1.0800000429153442
1621843601801,-1.8200000524520872,-0.7799999713897705,-11.296999931335447,-0.1570000052452087,-9.967000007629396,-1.0800000429153442
1621843601811,-3.2200000286102295,0.2300000041723251,-10.97700023651123,-0.1570000052452087,-9.92099952697754,-1.1119999885559082
1621843601821,-4.550000190734863,0.887000024318695,-9.866000175476074,-0.1570000052452087,-9.883000373840332,-1.1050000190734863
1621843601831,-5.320000171661377,1.0529999732971191,-9.196999549865724,-0.0780000016093254,-9.85099983215332,-1.059999942779541
1621843601841,-6.230000019073486,1.0130000114440918,-8.564000129699707,-0.0780000016093254,-9.772999763488768,-1.0460000038146973
1621843601851,-6.159999847412109,1.4589999914169312,-8.272000312805176,-0.0780000016093254,-9.727999687194824,-1.0779999494552612
1621843601861,-6.159999847412109,1.4459999799728394,-8.20300006866455,-0.0780000016093254,-9.720999717712402,-1.1169999837875366
1621843601871,-5.739999771118164,0.9720000028610228,-7.932000160217285,-0.0780000016093254,-9.64400005340576,-1.1030000448226929
1621843601881,-5.25,0.7350000143051147,-7.796000003814697,-0.0780000016093254,-9.56700038909912,-1.0889999866485596
1621843601891,-4.760000228881836,0.4979999959468841,-7.6599998474121085,-0.0780000016093254,-9.520999908447264,-1.1210000514984133
1621843601901,-3.849999904632568,0.5299999713897705,-7.440999984741211,-0.0780000016093254,-9.482999801635742,-1.1139999628067017
1621843601911,-2.5199999809265137,0.335999995470047,-7.546000003814697,-0.1180000007152557,-9.458000183105469,-1.0299999713897705
1621843601921,-0.9100000262260436,-0.2319999933242797,-7.14900016784668,-0.1570000052452087,-9.470999717712402,-0.953000009059906
1621843601931,0.699999988079071,-0.828000009059906,-7.395999908447266,-0.1570000052452087,-9.562000274658203,-0.8889999985694885
1621843601941,1.6799999475479126,-1.0110000371932983,-7.57100009918213,-0.1959999948740005,-9.593999862670898,-0.9350000023841856
1621843601951,2.240000009536743,-0.6340000033378601,-8.49899959564209,-0.2349999994039535,-9.6850004196167,-0.8709999918937683
1621843601961,2.380000114440918,-0.9020000100135804,-9.39900016784668,-0.1959999948740005,-9.755000114440918,-0.9229999780654908
1621843601971,1.75,-0.4639999866485595,-9.46399974822998,-0.2349999994039535,-9.793999671936035,-0.9300000071525572
1621843601981,0.9800000190734864,0.2419999986886978,-9.836999893188477,-0.2349999994039535,-9.833000183105469,-0.9369999766349792
1621843601991,-0.209999993443489,0.875,-9.796999931335447,-0.1959999948740005,-9.833000183105469,-0.9369999766349792
1621843602001,-1.2599999904632568,1.3040000200271606,-10.218999862670898,-0.1959999948740005,-9.871000289916992,-0.944000005722046
1621843602011,-2.380000114440918,1.5440000295639038,-9.963000297546388,-0.1959999948740005,-9.793999671936035,-0.9300000071525572
1621843602021,-3.2200000286102295,2.1679999828338623,-10.279999732971191,-0.1959999948740005,-9.755000114440918,-0.9229999780654908
1621843602031,-3.7799999713897705,2.8940000534057617,-10.364999771118164,-0.1570000052452087,-9.755000114440918,-0.9229999780654908
1621843602041,-4.059999942779541,3.2139999866485596,-10.166000366210936,-0.1180000007152557,-9.710000038146973,-0.9549999833106994
1621843602051,-4.550000190734863,3.7170000076293945,-9.79300022125244,-0.1180000007152557,-9.717000007629396,-0.9169999957084656
1621843602061,-4.269999980926514,3.989000082015991,-9.319000244140623,-0.1180000007152557,-9.717000007629396,-0.9169999957084656
1621843602071,-3.5,4.158999919891357,-9.076000213623049,-0.0780000016093254,-9.710000038146973,-0.9549999833106994
1621843602081,-3.3600001335144043,4.310999870300293,-8.729000091552734,-0.0390000008046627,-9.663999557495115,-0.9869999885559082
1621843602091,-3.2200000286102295,4.4629998207092285,-8.381999969482422,-0.0390000008046627,-9.638999938964846,-0.902999997138977
1621843602101,-2.380000114440918,4.609000205993652,-8.00100040435791,0.0,-9.62600040435791,-0.9800000190734864
1621843602111,-1.399999976158142,4.208000183105469,-8.142999649047852,0.0390000008046627,-9.593999862670898,-0.9350000023841856
1621843602121,-0.6299999952316284,4.013000011444092,-8.248000144958496,0.0,-9.586999893188477,-0.9729999899864196
1621843602131,0.2800000011920929,3.515000104904175,-7.83900022506714,0.0390000008046627,-9.579999923706056,-1.0119999647140503
1621843602141,1.0499999523162842,2.881999969482422,-7.879000186920166,0.0,-9.541999816894531,-1.0049999952316284
1621843602151,1.4700000286102295,2.5820000171661377,-7.789999961853027,0.0,-9.56700038909912,-1.0889999866485596
1621843602161,1.9600000381469729,2.375,-7.826000213623046,0.0,-9.572999954223633,-1.0509999990463257
1621843602171,1.5399999618530271,1.99399995803833,-7.679999828338623,-0.0390000008046627,-9.619000434875488,-1.0190000534057615
1621843602181,1.5399999618530271,1.7710000276565552,-7.222000122070312,-0.0390000008046627,-9.579999923706056,-1.0119999647140503
1621843602191,1.75,1.690000057220459,-7.164999961853027,-0.0390000008046627,-9.572999954223633,-1.0509999990463257
1621843602201,2.0999999046325684,1.7020000219345093,-7.234000205993653,-0.0390000008046627,-9.619000434875488,-1.0190000534057615
1621843602211,2.0999999046325684,1.9450000524520872,-7.405000209808349,-0.1180000007152557,-9.619000434875488,-1.0190000534057615
1621843602221,1.8899999856948853,2.2209999561309814,-7.355999946594238,-0.1570000052452087,-9.663999557495115,-0.9869999885559082
1621843602231,2.380000114440918,2.7890000343322754,-7.754000186920166,-0.1570000052452087,-9.663999557495115,-0.9869999885559082
1621843602241,2.6600000858306885,3.3239998817443848,-8.369999885559082,-0.1570000052452087,-9.633000373840332,-0.9419999718666076
1621843602251,2.7300000190734863,4.15500020980835,-8.649999618530273,-0.1959999948740005,-9.678000450134276,-0.9100000262260436
1621843602261,3.009999990463257,4.682000160217285,-8.414999961853027,-0.1959999948740005,-9.717000007629396,-0.9169999957084656
1621843602271,3.009999990463257,5.485000133514404,-8.130999565124512,-0.2349999994039535,-9.722999572753906,-0.8780000209808348
1621843602281,2.869999885559082,5.697999954223633,-8.128999710083008,-0.1959999948740005,-9.729999542236328,-0.8389999866485595
1621843602291,2.7300000190734863,5.910999774932861,-8.126999855041504,-0.1959999948740005,-9.776000022888184,-0.8080000281333923
1621843602301,2.940000057220459,6.632999897003174,-7.7870001792907715,-0.1570000052452087,-9.776000022888184,-0.8080000281333923
1621843602311,2.799999952316284,7.28599977493286,-7.458000183105469,-0.1570000052452087,-9.782999992370604,-0.7689999938011169
1621843602321,2.869999885559082,7.460000038146973,-7.640999794006347,-0.1180000007152557,-9.82800006866455,-0.7369999885559082
1621843602331,2.240000009536743,7.748000144958496,-7.66099977493286,-0.0780000016093254,-9.821000099182127,-0.7760000228881835
1621843602341,1.8200000524520872,8.031999588012695,-7.255000114440918,-0.1180000007152557,-9.782999992370604,-0.7689999938011169
1621843602351,1.75,8.274999618530273,-7.426000118255616,-0.1180000007152557,-9.782999992370604,-0.7689999938011169
1621843602361,0.9800000190734864,8.388999938964844,-7.263999938964843,-0.1180000007152557,-9.821000099182127,-0.7760000228881835
1621843602371,0.6299999952316284,8.802000045776367,-7.190999984741211,-0.1180000007152557,-9.821000099182127,-0.7760000228881835
1621843602381,0.0,9.012999534606934,-7.579999923706055,-0.1570000052452087,-9.782999992370604,-0.7689999938011169
1621843602391,-0.3499999940395355,9.184000015258787,-7.336999893188477,-0.1180000007152557,-9.776000022888184,-0.8080000281333923
1621843602401,-0.7699999809265136,9.774999618530272,-7.872000217437744,-0.1570000052452087,-9.729999542236328,-0.8389999866485595
1621843602411,-0.7699999809265136,9.861000061035156,-7.145999908447266,-0.1180000007152557,-9.697999954223633,-0.7940000295639038
1621843602421,-0.5600000023841857,10.465000152587892,-6.541999816894531,-0.1180000007152557,-9.652999877929688,-0.8259999752044677
1621843602431,-0.6299999952316284,10.392000198364258,-6.129000186920166,-0.1180000007152557,-9.621000289916992,-0.7799999713897705
1621843602441,0.2800000011920929,10.307000160217283,-5.645999908447266,-0.1180000007152557,-9.583000183105469,-0.7739999890327453
1621843602451,0.9100000262260436,10.383999824523926,-5.2769999504089355,-0.1180000007152557,-9.621000289916992,-0.7799999713897705
1621843602461,1.399999976158142,10.3149995803833,-5.289000034332275,-0.1180000007152557,-9.65999984741211,-0.787000000476837
1621843602471,1.399999976158142,10.039499282836914,-5.337500095367432,-0.1180000007152557,-9.65999984741211,-0.787000000476837
1621843602481,1.399999976158142,9.763999938964846,-5.386000156402588,-0.1180000007152557,-9.69200038909912,-0.8330000042915344
1621843602491,1.2599999904632568,9.51599979400635,-5.999000072479248,-0.1180000007152557,-9.776000022888184,-0.8080000281333923
1621843602501,1.0499999523162842,9.265000343322754,-6.184999942779541,-0.1180000007152557,-9.737000465393066,-0.8009999990463256
1621843602511,0.5600000023841857,8.758000373840332,-6.131999969482422,-0.0780000016093254,-9.76900005340576,-0.8460000157356262
1621843602521,-0.0700000002980232,8.409000396728516,-5.767000198364258,-0.0780000016093254,-9.737000465393066,-0.8009999990463256
1621843602531,-0.5600000023841857,8.32800006866455,-5.710999965667725,-0.0390000008046627,-9.744000434875488,-0.762000024318695
1621843602541,-0.8399999737739563,8.22700023651123,-5.941999912261963,-0.1570000052452087,-9.737000465393066,-0.8009999990463256
1621843602551,-0.9100000262260436,7.947000026702882,-5.565000057220459,-0.1570000052452087,-9.704999923706056,-0.7549999952316284
1621843602561,-0.7699999809265136,7.842000007629395,-5.369999885559082,-0.1959999948740005,-9.704999923706056,-0.7549999952316284
1621843602571,-0.699999988079071,7.974999904632568,-4.920000076293945,-0.2349999994039535,-9.744000434875488,-0.762000024318695
1621843602581,-0.699999988079071,8.157999992370605,-4.744999885559082,-0.2349999994039535,-9.788999557495115,-0.7300000190734863
1621843602591,-1.0499999523162842,7.824999809265136,-4.875,-0.2349999994039535,-9.82800006866455,-0.7369999885559082
1621843602601,-1.2599999904632568,7.525000095367432,-4.785999774932861,-0.1570000052452087,-9.776000022888184,-0.8080000281333923
1621843602611,-2.0299999713897705,7.907000064849853,-4.932000160217285,-0.1570000052452087,-9.814000129699709,-0.8140000104904174
1621843602621,-3.2899999618530273,7.561999797821045,-4.993000030517578,-0.2349999994039535,-9.845999717712402,-0.8600000143051147
1621843602631,-3.990000009536743,7.854000091552734,-5.439000129699707,-0.1959999948740005,-9.800999641418455,-0.8920000195503234
1621843602641,-3.990000009536743,7.813000202178955,-6.014999866485596,-0.1959999948740005,-9.762000083923342,-0.8849999904632568
1621843602651,-4.059999942779541,7.836999893188477,-6.1529998779296875,-0.1959999948740005,-9.722999572753906,-0.8780000209808348
1621843602661,-3.884999990463257,7.822999954223632,-5.871000289916992,-0.1959999948740005,-9.645999908447264,-0.8640000224113464
1621843602671,-3.7100000381469727,7.809000015258789,-5.589000225067139,-0.2349999994039535,-9.607999801635742,-0.8579999804496765
1621843602681,-3.009999990463257,7.752999782562256,-4.461999893188477,-0.1959999948740005,-9.562000274658203,-0.8889999985694885
1621843602691,-1.6799999475479126,7.60699987411499,-3.634000062942505,-0.2349999994039535,-9.569000244140623,-0.8510000109672546
1621843602701,-0.4199999868869781,7.500999927520752,-3.440000057220459,-0.2349999994039535,-9.569000244140623,-0.8510000109672546
1621843602711,0.6299999952316284,7.530000209808349,-4.002999782562256,-0.2750000059604644,-9.562000274658203,-0.8889999985694885
1621843602721,1.190000057220459,7.671000003814697,-4.40500020980835,-0.2750000059604644,-9.645999908447264,-0.8640000224113464
1621843602731,1.2599999904632568,7.711999893188477,-5.0370001792907715,-0.2349999994039535,-9.678000450134276,-0.9100000262260436
1621843602741,1.2599999904632568,7.485000133514405,-5.361999988555908,-0.1959999948740005,-9.717000007629396,-0.9169999957084656
1621843602751,0.3499999940395355,7.265999794006347,-5.328999996185303,-0.1959999948740005,-9.722999572753906,-0.8780000209808348
1621843602761,-0.209999993443489,7.309999942779541,-5.178999900817871,-0.2349999994039535,-9.678000450134276,-0.9100000262260436
1621843602771,-0.4900000095367431,7.197000026702881,-5.341000080108643,-0.2750000059604644,-9.638999938964846,-0.902999997138977
1621843602781,-0.4900000095367431,6.808000087738037,-5.552000045776367,-0.2750000059604644,-9.60099983215332,-0.8960000276565551
1621843602791,0.2800000011920929,6.868000030517578,-5.896999835968018,-0.3140000104904174,-9.619000434875488,-1.0190000534057615
1621843602801,0.7699999809265136,7.330999851226807,-6.099999904632568,-0.3529999852180481,-9.657999992370604,-1.0260000228881836
1621843602811,1.1200000047683716,7.906000137329101,-6.139999866485596,-0.3529999852180481,-9.741999626159668,-1.0010000467300415
1621843602821,0.7699999809265136,8.980999946594238,-6.591000080108643,-0.3919999897480011,-9.786999702453612,-0.968999981880188
1621843602831,0.6299999952316284,9.39900016784668,-6.942999839782715,-0.3529999852180481,-9.833000183105469,-0.9369999766349792
1621843602841,0.0,9.897000312805178,-7.353000164031982,-0.3140000104904174,-9.800999641418455,-0.8920000195503234
1621843602851,-0.1400000005960464,9.718500137329102,-7.348999977111816,-0.2349999994039535,-9.755000114440918,-0.9229999780654908
1621843602861,-0.2800000011920929,9.53999996185303,-7.344999790191651,-0.1959999948740005,-9.717000007629396,-0.9169999957084656
1621843602871,-0.7699999809265136,9.53999996185303,-7.344999790191651,-0.1570000052452087,-9.6850004196167,-0.8709999918937683
1621843602881,-0.8399999737739563,8.96500015258789,-7.30399990081787,-0.1180000007152557,-9.678000450134276,-0.9100000262260436
1621843602891,-0.8399999737739563,8.243000030517578,-7.644999980926514,-0.0780000016093254,-9.60099983215332,-0.8960000276565551
1621843602901,-0.0700000002980232,7.39900016784668,-7.296000003814697,-0.0780000016093254,-9.60099983215332,-0.8960000276565551
1621843602911,0.9100000262260436,6.913000106811523,-6.954999923706055,-0.1180000007152557,-9.717000007629396,-0.9169999957084656
1621843602921,0.7699999809265136,6.459000110626221,-6.395999908447266,-0.1570000052452087,-9.779999732971191,-1.0080000162124634
1621843602931,0.1400000005960464,6.702000141143799,-6.565999984741211,-0.1180000007152557,-9.734999656677246,-1.0390000343322754
1621843602941,-0.2800000011920929,6.406000137329102,-6.9019999504089355,-0.1570000052452087,-9.786999702453612,-0.968999981880188
1621843602951,-0.7699999809265136,6.451000213623047,-6.751999855041504,-0.1570000052452087,-9.793999671936035,-0.9300000071525572
1621843602961,-1.75,6.499000072479248,-5.820000171661377,-0.1570000052452087,-9.833000183105469,-0.9369999766349792
1621843602971,-2.6600000858306885,6.609000205993652,-5.23199987411499,-0.1570000052452087,-9.755000114440918,-0.9229999780654908
1621843602981,-3.569999933242798,6.065999984741211,-4.9720001220703125,-0.1570000052452087,-9.833000183105469,-0.9369999766349792
1621843602991,-3.849999904632568,6.078000068664551,-5.040999889373779,-0.1959999948740005,-9.741999626159668,-1.0010000467300415
1621843603001,-3.849999904632568,5.671999931335449,-4.756999969482422,-0.1959999948740005,-9.633000373840332,-0.9419999718666076
1621843603011,-2.6600000858306885,5.275000095367432,-5.324999809265137,-0.1570000052452087,-9.484999656677246,-0.8759999871253967
1621843603021,-0.699999988079071,4.317999839782715,-5.138000011444092,-0.1180000007152557,-9.446000099182127,-0.8690000176429749
1621843603031,0.9800000190734864,3.1579999923706055,-5.414000034332275,-0.1180000007152557,-9.460000038146973,-0.7919999957084655
1621843603041,2.0999999046325684,2.180999994277954,-5.514999866485596,-0.1180000007152557,-9.467000007629396,-0.7530000209808348
1621843603051,2.869999885559082,1.52400004863739,-5.418000221252441,-0.1959999948740005,-9.65999984741211,-0.787000000476837
1621843603061,3.2899999618530273,1.374000072479248,-5.373000144958496,-0.1959999948740005,-9.652999877929688,-0.8259999752044677
1621843603071,3.7100000381469727,1.2239999771118164,-5.328000068664551,-0.2349999994039535,-9.652999877929688,-0.8259999752044677
1621843603081,4.409999847412109,1.1749999523162842,-5.052999973297119,-0.2750000059604644,-9.744000434875488,-0.762000024318695
1621843603091,5.460000038146973,1.0499999523162842,-5.145999908447266,-0.2349999994039535,-9.97599983215332,-0.8029999732971191
1621843603101,5.110000133514404,1.0169999599456787,-5.364999771118164,-0.2349999994039535,-9.944000244140623,-0.7580000162124633
1621843603111,2.940000057220459,1.281000018119812,-5.247000217437744,-0.2750000059604644,-9.814000129699709,-0.8140000104904174
1621843603121,1.0499999523162842,0.8909999728202819,-5.458000183105469,-0.2349999994039535,-9.97599983215332,-0.8029999732971191
1621843603131,0.4199999868869781,1.2599999904632568,-5.534999847412109,-0.3529999852180481,-9.897999763488768,-0.7889999747276306
1621843603141,-0.6299999952316284,1.3580000400543213,-4.877999782562256,-0.3919999897480011,-9.737000465393066,-0.8009999990463256
1621843603151,-1.0499999523162842,1.5889999866485596,-4.980000019073486,-0.3919999897480011,-9.704999923706056,-0.7549999952316284
1621843603161,-0.699999988079071,1.9859999418258667,-5.619999885559082,-0.3919999897480011,-9.744000434875488,-0.762000024318695
1621843603171,-0.7699999809265136,2.3919999599456787,-5.9039998054504395,-0.4309999942779541,-9.744000434875488,-0.762000024318695
1621843603181,-0.7699999809265136,3.0399999618530273,-6.359000205993652,-0.4309999942779541,-9.505000114440918,-0.7599999904632568
1621843603191,-0.3499999940395355,3.635999917984009,-7.320000171661377,-0.4309999942779541,-9.536999702453612,-0.8050000071525573
1621843603201,0.9100000262260436,4.123000144958496,-7.6599998474121085,-0.3919999897480011,-9.79599952697754,-0.6919999718666076
1621843603211,0.8399999737739563,4.698999881744385,-7.701000213623046,-0.3919999897480011,-9.814000129699709,-0.8140000104904174
1621843603220,-0.4199999868869781,4.776000022888184,-8.539999961853027,-0.3529999852180481,-9.762000083923342,-0.8849999904632568
1621843603230,-1.75,5.363999843597412,-8.649999618530273,-0.3919999897480011,-9.80799961090088,-0.8529999852180481
1621843603240,-2.5899999141693115,5.861999988555908,-7.85099983215332,-0.4309999942779541,-9.737000465393066,-0.8009999990463256
1621843603250,-2.5899999141693115,6.05049991607666,-8.315500259399414,-0.4309999942779541,-9.645999908447264,-0.8640000224113464
1621843603260,-2.5899999141693115,6.238999843597412,-8.779999732971191,-0.3919999897480011,-9.69200038909912,-0.8330000042915344
1621843603270,-2.1700000762939453,6.572000026702881,-9.859000205993652,-0.3529999852180481,-9.744000434875488,-0.762000024318695
1621843603280,-2.0299999713897705,7.2729997634887695,-9.805999755859377,-0.3919999897480011,-9.543999671936035,-0.7670000195503234
1621843603290,-1.5399999618530271,7.800000190734864,-9.571000099182127,-0.3529999852180481,-9.498000144958496,-0.7990000247955322
1621843603300,-0.209999993443489,7.999000072479248,-9.89099979400635,-0.3140000104904174,-9.621000289916992,-0.7799999713897705
1621843603310,0.8399999737739563,8.343999862670898,-9.829999923706056,-0.2750000059604644,-9.729999542236328,-0.8389999866485595
1621843603320,1.0499999523162842,8.482000350952148,-9.805999755859377,-0.2349999994039535,-9.593999862670898,-0.9350000023841856
1621843603330,1.5399999618530271,8.449000358581543,-10.024999618530272,-0.2349999994039535,-9.696000099182127,-1.0329999923706057
1621843603340,1.3300000429153442,8.319000244140625,-9.692999839782717,-0.2349999994039535,-9.69200038909912,-0.8330000042915344
1621843603350,1.190000057220459,8.194000244140625,-9.78600025177002,-0.1570000052452087,-9.69200038909912,-0.8330000042915344
1621843603360,1.0499999523162842,7.9099998474121085,-10.190999984741213,-0.1570000052452087,-9.729999542236328,-0.8389999866485595
1621843603370,1.3300000429153442,8.088000297546387,-10.800000190734863,-0.1570000052452087,-9.90999984741211,-0.9509999752044676
1621843603380,0.2800000011920929,8.319000244140625,-9.692999839782717,-0.1570000052452087,-10.00100040435791,-0.887000024318695
1621843603390,-1.75,8.616000175476074,-9.355999946594238,-0.1570000052452087,-9.762000083923342,-0.8849999904632568
1621843603400,-2.380000114440918,8.744999885559082,-9.689000129699709,-0.0780000016093254,-9.607999801635742,-0.8579999804496765
1621843603410,-1.4700000286102295,8.717000007629395,-9.125,-0.1180000007152557,-9.729999542236328,-0.8389999866485595
1621843603420,-1.2599999904632568,8.550999641418457,-8.586000442504883,-0.1180000007152557,-9.697999954223633,-0.7940000295639038
1621843603430,-1.2599999904632568,8.425000190734863,-8.678999900817871,-0.1180000007152557,-9.652999877929688,-0.8259999752044677
1621843603440,-0.8399999737739563,8.482000350952148,-8.597999572753906,-0.0390000008046627,-9.697999954223633,-0.7940000295639038
1621843603450,-1.1200000047683716,8.440999984741211,-7.9650001525878915,-0.1180000007152557,-9.69200038909912,-0.8330000042915344
1621843603460,-1.190000057220459,8.351999282836914,-7.6610002517700195,-0.0780000016093254,-9.697999954223633,-0.7940000295639038
1621843603470,-1.2599999904632568,8.262999534606934,-7.35699987411499,-0.0780000016093254,-9.782999992370604,-0.7689999938011169
1621843603480,-1.75,7.804999828338623,-7.579999923706055,-0.0780000016093254,-9.814000129699709,-0.8140000104904174
1621843603490,-2.5199999809265137,8.11299991607666,-7.311999797821045,-0.1570000052452087,-9.722999572753906,-0.8780000209808348
1621843603500,-3.2200000286102295,7.861999988555909,-7.499000072479248,-0.1180000007152557,-9.704999923706056,-0.7549999952316284
1621843603510,-3.430000066757202,7.736000061035157,-7.592000007629395,-0.1570000052452087,-9.543999671936035,-0.7670000195503234
1621843603520,-3.0799999237060547,7.7729997634887695,-6.590000152587891,-0.1570000052452087,-9.58899974822998,-0.7350000143051147
1621843603530,-2.5899999141693115,7.420000076293945,-5.800000190734863,-0.1570000052452087,-9.666999816894531,-0.7490000128746032
1621843603540,-1.190000057220459,7.342999935150147,-4.960000038146973,-0.1570000052452087,-9.583000183105469,-0.7739999890327453
1621843603550,0.0,7.00600004196167,-4.664000034332275,-0.0780000016093254,-9.645999908447264,-0.8640000224113464
1621843603560,0.4199999868869781,6.564000129699707,-5.381999969482422,-0.1180000007152557,-9.762000083923342,-0.8849999904632568
1621843603570,0.9800000190734864,6.429999828338623,-5.831999778747559,-0.1570000052452087,-9.76900005340576,-0.8460000157356262
1621843603580,0.699999988079071,6.166999816894531,-5.949999809265137,-0.0780000016093254,-9.737000465393066,-0.8009999990463256
1621843603590,-0.3499999940395355,5.940000057220459,-6.27400016784668,-0.1570000052452087,-9.744000434875488,-0.762000024318695
1621843603600,-0.4199999868869781,5.741000175476074,-7.1620001792907715,-0.1570000052452087,-9.821000099182127,-0.7760000228881835
1621843603610,-1.0499999523162842,5.360000133514404,-7.015999794006348,-0.1959999948740005,-9.744000434875488,-0.762000024318695
1621843603620,-1.3300000429153442,5.327000141143799,-7.235000133514405,-0.2349999994039535,-9.737000465393066,-0.8009999990463256
1621843603630,-1.5399999618530271,5.254000186920166,-8.029999732971191,-0.2349999994039535,-9.737000465393066,-0.8009999990463256
1621843603640,-1.4700000286102295,5.565999984741211,-8.187999725341797,-0.2349999994039535,-9.704999923706056,-0.7549999952316284
1621843603650,-1.3300000429153442,5.749000072479248,-8.012999534606934,-0.2349999994039535,-9.65999984741211,-0.787000000476837
1621843603660,-1.0499999523162842,5.984000205993652,-7.331999778747559,-0.2750000059604644,-9.76900005340576,-0.8460000157356262
1621843603670,-0.6299999952316284,6.409999847412109,-7.328000068664551,-0.2349999994039535,-9.76900005340576,-0.8460000157356262
1621843603680,-1.1200000047683716,6.502999782562256,-7.453999996185303,-0.2349999994039535,-9.722999572753906,-0.8780000209808348
1621843603690,-1.190000057220459,6.705999851226807,-7.5959997177124015,-0.1959999948740005,-9.76900005340576,-0.8460000157356262
1621843603700,-1.2599999904632568,6.908999919891357,-7.737999916076661,-0.1959999948740005,-9.729999542236328,-0.8389999866485595
1621843603710,-1.399999976158142,6.710000038146973,-7.418000221252441,-0.1570000052452087,-9.729999542236328,-0.8389999866485595
1621843603720,-1.190000057220459,6.479000091552734,-7.315999984741211,-0.1570000052452087,-9.652999877929688,-0.8259999752044677
1621843603730,-1.1200000047683716,6.25600004196167,-6.857999801635742,-0.1180000007152557,-9.652999877929688,-0.8259999752044677
1621843603740,-0.5600000023841857,5.940000057220459,-6.27400016784668,-0.1959999948740005,-9.652999877929688,-0.8259999752044677
1621843603750,0.209999993443489,5.744999885559082,-6.379000186920166,-0.1570000052452087,-9.628000259399414,-0.7419999837875366
1621843603760,0.7699999809265136,5.413000106811523,-6.508999824523926,-0.1180000007152557,-9.621000289916992,-0.7799999713897705
1621843603770,1.1200000047683716,5.330999851226807,-6.452000141143799,-0.1180000007152557,-9.69200038909912,-0.8330000042915344
1621843603780,1.4700000286102295,5.298999786376953,-6.671000003814697,-0.1570000052452087,-9.737000465393066,-0.8009999990463256
1621843603790,1.5399999618530271,5.51800012588501,-6.703999996185303,-0.1180000007152557,-9.697999954223633,-0.7940000295639038
1621843603800,1.0499999523162842,5.160999774932861,-6.696000099182129,-0.1180000007152557,-9.776000022888184,-0.8080000281333923
1621843603810,0.7699999809265136,5.140999794006348,-6.982999801635742,-0.1570000052452087,-9.821000099182127,-0.7760000228881835
1621843603820,0.0700000002980232,5.2829999923706055,-6.176000118255615,-0.1959999948740005,-9.892000198364256,-0.828000009059906
1621843603830,-0.6299999952316284,5.031000137329102,-6.36299991607666,-0.1570000052452087,-9.897999763488768,-0.7889999747276306
1621843603840,-1.190000057220459,4.926000118255615,-6.168000221252441,-0.1570000052452087,-9.76900005340576,-0.8460000157356262
1621843603850,-1.2599999904632568,4.938000202178955,-6.236999988555908,-0.1570000052452087,-9.76900005340576,-0.8460000157356262
1621843603860,-1.1200000047683716,5.067999839782715,-6.570000171661377,-0.2750000059604644,-9.645999908447264,-0.8640000224113464
1621843603870,-1.0499999523162842,5.703999996185303,-6.954999923706055,-0.3529999852180481,-9.697999954223633,-0.7940000295639038
1621843603880,-0.699999988079071,6.248000144958496,-7.2150001525878915,-0.2750000059604644,-9.711999893188477,-0.7170000076293945
1621843603890,-0.209999993443489,6.702000141143799,-7.77400016784668,-0.2750000059604644,-9.697999954223633,-0.7940000295639038
1621843603900,-0.2800000011920929,7.046999931335449,-7.71400022506714,-0.2349999994039535,-9.697999954223633,-0.7940000295639038
1621843603910,-0.0350000038743019,7.310500144958496,-7.59600019454956,-0.1959999948740005,-9.652999877929688,-0.8259999752044677
1621843603920,0.209999993443489,7.573999881744384,-7.478000164031982,-0.1570000052452087,-9.65999984741211,-0.787000000476837
1621843603930,0.3499999940395355,8.13700008392334,-7.449999809265136,-0.1570000052452087,-9.61400032043457,-0.8190000057220459
1621843603940,0.9800000190734864,8.031999588012695,-7.255000114440918,-0.1570000052452087,-9.645999908447264,-0.8640000224113464
1621843603950,0.9800000190734864,8.031999588012695,-7.255000114440918,-0.1570000052452087,-9.69200038909912,-0.8330000042915344
1621843603960,1.1200000047683716,7.939000129699707,-7.130000114440918,-0.1570000052452087,-9.65999984741211,-0.787000000476837
1621843603970,1.1200000047683716,7.994999885559082,-7.048999786376953,-0.1180000007152557,-9.69200038909912,-0.8330000042915344
1621843603980,0.9100000262260436,7.513000011444091,-7.133999824523926,-0.1180000007152557,-9.776000022888184,-0.8080000281333923
1621843603990,1.0499999523162842,7.114999771118164,-7.701000213623046,-0.1180000007152557,-9.76900005340576,-0.8460000157356262
1621843604000,0.8399999737739563,6.795000076293945,-7.900000095367432,-0.1180000007152557,-9.729999542236328,-0.8389999866485595
1621843604010,0.4199999868869781,7.139999866485596,-7.83900022506714,-0.0780000016093254,-9.758000373840332,-0.6850000023841857
1621843604020,0.1400000005960464,6.908999919891357,-7.737999916076661,-0.1180000007152557,-9.75100040435791,-0.7239999771118164
1621843604030,-0.1400000005960464,6.625,-8.142999649047852,-0.1180000007152557,-9.782999992370604,-0.7689999938011169
1621843604040,-0.4900000095367431,6.7829999923706055,-7.830999851226807,-0.0780000016093254,-9.76900005340576,-0.8460000157356262
1621843604050,-0.9100000262260436,6.620999813079834,-7.717999935150147,-0.0780000016093254,-9.76900005340576,-0.8460000157356262
1621843604060,-0.9800000190734864,6.535999774932861,-7.235000133514405,-0.0780000016093254,-9.729999542236328,-0.8389999866485595
1621843604070,-1.0499999523162842,6.409999847412109,-7.328000068664551,-0.1180000007152557,-9.722999572753906,-0.8780000209808348
1621843604080,-1.1200000047683716,6.1539998054504395,-7.089000225067139,-0.1180000007152557,-9.729999542236328,-0.8389999866485595
1621843604090,-0.699999988079071,5.9720001220703125,-7.263000011444091,-0.1570000052452087,-9.729999542236328,-0.8389999866485595
1621843604100,-0.7699999809265136,5.784999847412109,-7.01200008392334,-0.1180000007152557,-9.729999542236328,-0.8389999866485595
1621843604110,-0.9800000190734864,5.8420000076293945,-6.931000232696533,-0.1180000007152557,-9.69200038909912,-0.8330000042915344
1621843604120,-0.7699999809265136,6.0329999923706055,-7.607999801635742,-0.1180000007152557,-9.69200038909912,-0.8330000042915344
1621843604130,-0.7699999809265136,5.814000129699707,-7.576000213623046,-0.0780000016093254,-9.729999542236328,-0.8389999866485595
1621843604140,-0.7699999809265136,5.702500343322754,-7.346500396728516,-0.0780000016093254,-9.666999816894531,-0.7490000128746032
1621843604150,-0.7699999809265136,5.591000080108643,-7.117000102996826,-0.0780000016093254,-9.65999984741211,-0.787000000476837
1621843604160,-0.5600000023841857,5.307000160217285,-7.5229997634887695,-0.0780000016093254,-9.652999877929688,-0.8259999752044677
1621843604170,-0.699999988079071,5.1529998779296875,-7.052000045776367,-0.1180000007152557,-9.645999908447264,-0.8640000224113464
1621843604180,-0.4900000095367431,5.2179999351501465,-6.613999843597412,-0.0780000016093254,-9.69200038909912,-0.8330000042915344
1621843604190,-0.3499999940395355,4.815999984741211,-6.75600004196167,-0.0780000016093254,-9.69200038909912,-0.8330000042915344
1621843604200,-0.1400000005960464,4.377999782562256,-6.690999984741211,-0.1180000007152557,-9.737000465393066,-0.8009999990463256
1621843604210,0.0,4.572999954223633,-6.585999965667725,-0.1180000007152557,-9.76900005340576,-0.8460000157356262
1621843604220,0.0,4.515999794006348,-6.666999816894531,-0.1180000007152557,-9.76900005340576,-0.8460000157356262
1621843604230,-0.209999993443489,4.585000038146973,-6.65500020980835,-0.1180000007152557,-9.76900005340576,-0.8460000157356262
1621843604240,-0.209999993443489,4.484000205993652,-6.886000156402588,-0.0780000016093254,-9.76900005340576,-0.8460000157356262
1621843604250,-0.2800000011920929,4.577000141143799,-7.01200008392334,-0.0780000016093254,-9.729999542236328,-0.8389999866485595
1621843604260,-0.6299999952316284,4.21999979019165,-7.004000186920166,-0.0780000016093254,-9.722999572753906,-0.8780000209808348
1621843604270,-0.699999988079071,4.390999794006348,-6.760000228881836,-0.0780000016093254,-9.737000465393066,-0.8009999990463256
1621843604280,-0.699999988079071,4.515999794006348,-6.666999816894531,-0.0780000016093254,-9.69200038909912,-0.8330000042915344
1621843604290,-0.699999988079071,4.078000068664551,-6.6020002365112305,-0.0780000016093254,-9.729999542236328,-0.8389999866485595
1621843604300,-0.4199999868869781,4.241000175476074,-6.716000080108643,-0.0780000016093254,-9.645999908447264,-0.8640000224113464
1621843604310,-0.2800000011920929,4.000999927520752,-6.9710001945495605,-0.0780000016093254,-9.645999908447264,-0.8640000224113464
1621843604320,-0.5600000023841857,3.8510000705718994,-6.926000118255615,-0.0780000016093254,-9.6850004196167,-0.8709999918937683
1621843604330,-0.1400000005960464,3.506999969482422,-6.986999988555908,-0.0780000016093254,-9.645999908447264,-0.8640000224113464
1621843604340,-0.0700000002980232,3.288000106811523,-6.954999923706055,-0.0780000016093254,-9.645999908447264,-0.8640000224113464
1621843604350,-0.4199999868869781,3.4010000228881836,-6.793000221252441,-0.1180000007152557,-9.722999572753906,-0.8780000209808348
1621843604360,-0.4900000095367431,3.67300009727478,-7.526999950408936,-0.1570000052452087,-9.762000083923342,-0.8849999904632568
1621843604370,-0.4900000095367431,3.798500061035156,-8.037500381469727,-0.1570000052452087,-9.729999542236328,-0.8389999866485595
1621843604380,-0.4900000095367431,3.924000024795532,-8.54800033569336,-0.1570000052452087,-9.722999572753906,-0.8780000209808348
1621843604390,-0.6299999952316284,3.724999904632568,-8.227999687194824,-0.1570000052452087,-9.76900005340576,-0.8460000157356262
1621843604400,-0.7699999809265136,3.6649999618530273,-7.882999897003175,-0.1180000007152557,-9.722999572753906,-0.8780000209808348
1621843604410,-1.190000057220459,3.7049999237060542,-7.308000087738037,-0.1180000007152557,-9.737000465393066,-0.8009999990463256
1621843604420,-1.0499999523162842,3.5999999046325684,-7.11299991607666,-0.0780000016093254,-9.6850004196167,-0.8709999918937683
1621843604430,-0.9800000190734864,3.8190000057220455,-7.144999980926514,-0.1180000007152557,-9.633000373840332,-0.9419999718666076
1621843604440,-0.699999988079071,4.264999866485596,-6.854000091552734,-0.1180000007152557,-9.607999801635742,-0.8579999804496765
1621843604450,-0.0700000002980232,3.911999940872192,-7.270999908447266,-0.1180000007152557,-9.569000244140623,-0.8510000109672546
1621843604460,0.5600000023841857,3.5959999561309814,-7.895999908447266,-0.1180000007152557,-9.61400032043457,-0.8190000057220459
1621843604470,1.0499999523162842,3.7460000514984126,-7.940000057220459,-0.0780000016093254,-9.61400032043457,-0.8190000057220459
1621843604480,1.399999976158142,3.67300009727478,-7.526999950408936,-0.0780000016093254,-9.69200038909912,-0.8330000042915344
1621843604490,2.0999999046325684,3.6930000782012935,-7.238999843597413,-0.0780000016093254,-9.729999542236328,-0.8389999866485595
1621843604500,2.0999999046325684,3.315999984741211,-7.51800012588501,-0.0780000016093254,-9.76900005340576,-0.8460000157356262
1621843604510,1.6100000143051147,3.1329998970031734,-7.692999839782715,-0.0780000016093254,-9.76900005340576,-0.8460000157356262
1621843604520,1.190000057220459,3.0199999809265137,-7.855000019073486,-0.0780000016093254,-9.80799961090088,-0.8529999852180481
1621843604530,0.8399999737739563,3.0,-8.142999649047852,-0.0780000016093254,-9.814000129699709,-0.8140000104904174
1621843604540,0.1400000005960464,2.75600004196167,-7.972000122070312,-0.0390000008046627,-9.814000129699709,-0.8140000104904174
1621843604550,-0.8399999737739563,2.740000009536743,-7.478000164031982,0.0,-9.776000022888184,-0.8080000281333923
1621843604560,-0.9100000262260436,2.75600004196167,-7.972000122070312,-0.0390000008046627,-9.776000022888184,-0.8080000281333923
1621843604570,-1.2599999904632568,2.558000087738037,-7.651999950408936,-0.0390000008046627,-9.729999542236328,-0.8389999866485595
1621843604580,-1.2599999904632568,2.938999891281128,-7.797999858856201,-0.0780000016093254,-9.69200038909912,-0.8330000042915344
1621843604590,-1.0499999523162842,2.890000104904175,-7.521999835968018,-0.0780000016093254,-9.69200038909912,-0.8330000042915344
1621843604600,-0.9800000190734864,2.993499994277954,-7.503999710083008,-0.0780000016093254,-9.65999984741211,-0.787000000476837
1621843604610,-0.9100000262260436,3.0969998836517334,-7.486000061035157,-0.0390000008046627,-9.65999984741211,-0.787000000476837
1621843604620,-0.3499999940395355,3.428999900817871,-7.355999946594238,-0.0780000016093254,-9.666999816894531,-0.7490000128746032
1621843604630,0.0,3.4579999446868896,-6.710999965667725,-0.0780000016093254,-9.737000465393066,-0.8009999990463256
1621843604640,0.209999993443489,3.377000093460083,-6.65500020980835,-0.0390000008046627,-9.652999877929688,-0.8259999752044677
1621843604650,0.5600000023841857,3.377000093460083,-6.65500020980835,-0.0390000008046627,-9.652999877929688,-0.8259999752044677
1621843604660,0.7699999809265136,3.6570000648498535,-7.0320000648498535,-0.0390000008046627,-9.652999877929688,-0.8259999752044677
1621843604670,0.8399999737739563,3.6040000915527344,-7.539000034332275,-0.0390000008046627,-9.652999877929688,-0.8259999752044677
1621843604680,1.0499999523162842,3.0239999294281006,-7.072000026702881,-0.0390000008046627,-9.652999877929688,-0.8259999752044677
1621843604690,1.1200000047683716,2.943000078201294,-7.015999794006348,-0.0390000008046627,-9.666999816894531,-0.7490000128746032
1621843604700,1.5399999618530271,2.691999912261963,-7.202000141143799,-0.0390000008046627,-9.666999816894531,-0.7490000128746032
1621843604710,1.9600000381469729,2.74399995803833,-6.695000171661377,-0.0780000016093254,-9.69200038909912,-0.8330000042915344
1621843604720,2.1700000762939453,2.7929999828338623,-6.9710001945495605,-0.1180000007152557,-9.744000434875488,-0.762000024318695
1621843604730,2.240000009536743,2.747999906539917,-7.120999813079834,-0.0780000016093254,-9.82800006866455,-0.7369999885559082
1621843604740,2.0999999046325684,3.1419999599456787,-7.335999965667725,-0.0780000016093254,-9.821000099182127,-0.7760000228881835
1621843604750,1.5399999618530271,3.4089999198913574,-7.644000053405762,-0.1180000007152557,-9.82800006866455,-0.7369999885559082
1621843604760,1.190000057220459,3.6040000915527344,-7.539000034332275,-0.0780000016093254,-9.82800006866455,-0.7369999885559082
1621843604770,0.8399999737739563,4.163000106811523,-7.085000038146973,-0.0780000016093254,-9.821000099182127,-0.7760000228881835
1621843604780,0.4199999868869781,4.199999809265137,-7.290999889373779,-0.0390000008046627,-9.859999656677246,-0.7829999923706054
1621843604790,-0.4900000095367431,4.098999977111816,-7.5229997634887695,-0.0780000016093254,-9.821000099182127,-0.7760000228881835
1621843604800,-0.8399999737739563,4.706999778747559,-7.343999862670899,-0.0390000008046627,-9.82800006866455,-0.7369999885559082
1621843604810,-1.1200000047683716,4.85699987411499,-7.388999938964843,-0.0780000016093254,-9.75100040435791,-0.7239999771118164
1621843604820,-1.3300000429153442,5.2220001220703125,-7.039999961853027,-0.0780000016093254,-9.744000434875488,-0.762000024318695
1621843604830,-1.3300000429153442,5.013000011444092,-6.863499641418457,-0.0780000016093254,-9.711999893188477,-0.7170000076293945
1621843604840,-1.3300000429153442,4.803999900817871,-6.686999797821045,-0.0780000016093254,-9.704999923706056,-0.7549999952316284
1621843604850,-1.2599999904632568,4.974999904632568,-6.443999767303467,-0.0390000008046627,-9.697999954223633,-0.7940000295639038
1621843604860,-0.8399999737739563,4.836999893188477,-6.4679999351501465,-0.0390000008046627,-9.697999954223633,-0.7940000295639038
1621843604870,-0.7699999809265136,4.4679999351501465,-6.390999794006348,0.0,-9.697999954223633,-0.7940000295639038
1621843604879,-0.699999988079071,3.5799999237060547,-6.191999912261963,0.0390000008046627,-9.65999984741211,-0.787000000476837
1621843604889,-0.9800000190734864,2.7730000019073486,-6.050000190734863,0.0780000016093254,-9.697999954223633,-0.7940000295639038
1621843604899,-0.8399999737739563,2.009999990463257,-5.757999897003174,0.0780000016093254,-9.697999954223633,-0.7940000295639038
1621843604909,-0.699999988079071,0.8909999728202819,-5.458000183105469,0.0780000016093254,-9.697999954223633,-0.7940000295639038
1621843604919,-0.5600000023841857,-0.4790000021457672,-5.343999862670898,0.0780000016093254,-9.652999877929688,-0.8259999752044677
1621843604929,-0.3499999940395355,-1.4809999465942385,-5.308000087738037,0.0780000016093254,-9.67300033569336,-0.7099999785423278
1621843604939,0.3499999940395355,-2.5799999237060547,-4.71999979019165,0.0390000008046627,-9.583000183105469,-0.7739999890327453
1621843604949,1.0499999523162842,-4.0229997634887695,-4.191999912261963,0.0,-9.505000114440918,-0.7599999904632568
1621843604959,1.9600000381469729,-5.025000095367432,-4.156000137329102,0.0,-9.536999702453612,-0.8050000071525573
1621843604969,2.940000057220459,-5.714000225067139,-4.2769999504089355,0.0,-9.529999732971191,-0.8439999818801879
1621843604979,4.269999980926514,-6.991000175476074,-4.289000034332275,0.0390000008046627,-9.529999732971191,-0.8439999818801879
1621843604989,4.829999923706055,-7.270999908447266,-3.911999940872192,0.0,-9.536999702453612,-0.8050000071525573
1621843604999,5.389999866485596,-8.008999824523926,-3.7579998970031734,0.0,-9.583000183105469,-0.7739999890327453
1621843605009,6.019999980926514,-8.873000144958496,-3.697000026702881,-0.0390000008046627,-9.628000259399414,-0.7419999837875366
1621843605019,6.440000057220459,-9.723999977111816,-3.7049999237060542,-0.0390000008046627,-9.67300033569336,-0.7099999785423278
1621843605029,6.230000019073486,-10.564000129699709,-3.7820000648498535,-0.0390000008046627,-9.758000373840332,-0.6850000023841857
1621843605039,5.949999809265137,-11.213000297546388,-4.535999774932861,-0.1180000007152557,-9.763999938964846,-0.6460000276565551
1621843605049,5.739999771118164,-11.417499542236328,-4.785499572753906,-0.1570000052452087,-9.79599952697754,-0.6919999718666076
1621843605059,5.53000020980835,-11.621999740600586,-5.034999847412109,-0.1570000052452087,-9.842000007629396,-0.6600000262260437
1621843605069,4.900000095367432,-11.80500030517578,-5.209000110626221,-0.1570000052452087,-9.880000114440918,-0.6669999957084655
1621843605079,4.059999942779541,-11.939000129699709,-5.658999919891357,-0.2349999994039535,-9.901000022888184,-0.5509999990463256
1621843605089,3.009999990463257,-12.085000038146973,-6.039999961853027,-0.1959999948740005,-9.932000160217283,-0.5960000157356262
1621843605099,2.0299999713897705,-12.157999992370604,-5.626999855041504,-0.1959999948740005,-9.939000129699709,-0.5580000281333923
1621843605109,0.3499999940395355,-12.07699966430664,-5.683000087738037,-0.1570000052452087,-9.932000160217283,-0.5960000157356262
1621843605119,-0.9100000262260436,-12.29599952697754,-5.651000022888184,-0.1180000007152557,-9.887000083923342,-0.6280000209808348
1621843605129,-2.0999999046325684,-13.097999572753906,-5.934999942779541,-0.1570000052452087,-9.81700038909912,-0.5759999752044677
1621843605139,-2.940000057220459,-13.53600025177002,-5.869999885559082,-0.1959999948740005,-9.829999923706056,-0.4990000128746032
1621843605149,-3.1500000953674316,-13.654000282287598,-6.815000057220459,-0.2349999994039535,-9.753000259399414,-0.4850000143051147
1621843605159,-3.359999895095825,-13.333999633789064,-7.823999881744384,-0.2750000059604644,-9.675999641418455,-0.4709999859333038
1621843605169,-2.7300000190734863,-13.269000053405762,-8.595000267028809,-0.2750000059604644,-9.70699977874756,-0.5170000195503234
1621843605179,-2.309999942779541,-12.93299961090088,-8.890999794006348,-0.2349999994039535,-9.623000144958496,-0.5419999957084655
1621843605189,-1.4700000286102295,-13.342000007629396,-8.180999755859375,-0.2349999994039535,-9.585000038146973,-0.5350000262260437
1621843605199,-0.6299999952316284,-13.51200008392334,-7.2160000801086435,-0.2349999994039535,-9.538999557495115,-0.5669999718666076
1621843605209,0.4199999868869781,-13.803999900817873,-6.769999980926514,-0.2750000059604644,-9.532999992370604,-0.6050000190734863
1621843605219,1.9600000381469729,-13.439000129699709,-6.421000003814697,-0.2750000059604644,-9.538999557495115,-0.5669999718666076
1621843605229,3.2899999618530273,-13.439000129699709,-6.421000003814697,-0.2750000059604644,-9.538999557495115,-0.5669999718666076
1621843605239,4.340000152587891,-13.402999877929688,-6.627999782562256,-0.3140000104904174,-9.54599952697754,-0.527999997138977
1621843605249,4.900000095367432,-13.281000137329102,-6.7129998207092285,-0.3140000104904174,-9.54599952697754,-0.527999997138977
1621843605259,5.460000038146973,-13.159000396728516,-6.797999858856201,-0.3529999852180481,-9.54599952697754,-0.527999997138977
1621843605269,6.090000152587891,-12.559000015258787,-6.9770002365112305,-0.3529999852180481,-9.661999702453612,-0.5490000247955322
1621843605279,6.300000190734863,-11.991999626159668,-7.374000072479248,-0.3140000104904174,-9.701000213623049,-0.5550000071525573
1621843605289,6.300000190734863,-11.562000274658203,-7.796000003814697,-0.3529999852180481,-9.73900032043457,-0.5619999766349792
1621843605299,6.440000057220459,-10.840000152587892,-8.663999557495117,-0.3140000104904174,-9.777999877929688,-0.5690000057220459
1621843605309,5.809999942779541,-10.31700038909912,-9.211999893188477,-0.3140000104904174,-9.81700038909912,-0.5759999752044677
1621843605319,5.460000038146973,-10.19499969482422,-8.692000389099121,-0.3140000104904174,-9.862000465393066,-0.5440000295639038
1621843605329,4.619999885559082,-9.98799991607666,-7.447999954223632,-0.2750000059604644,-9.89400005340576,-0.5889999866485595
1621843605339,3.9200000762939458,-9.814000129699709,-6.421999931335449,-0.3529999852180481,-9.901000022888184,-0.5509999990463256
1621843605349,2.869999885559082,-9.472999572753906,-5.934999942779541,-0.4309999942779541,-9.939000129699709,-0.5580000281333923
1621843605359,1.6799999475479126,-8.873000144958496,-6.113999843597412,-0.4709999859333038,-9.998000144958496,-0.4490000009536743
1621843605369,0.699999988079071,-8.314000129699707,-6.868000030517578,-0.4709999859333038,-9.967000007629396,-0.402999997138977
1621843605379,-0.9800000190734864,-7.125999927520752,-7.156000137329102,-0.4709999859333038,-10.005000114440918,-0.4099999964237213
1621843605389,-2.0299999713897705,-5.248000144958496,-7.322999954223632,-0.5099999904632568,-9.9350004196167,-0.3580000102519989
1621843605399,-3.1500000953674316,-3.947000026702881,-7.447999954223632,-0.5099999904632568,-9.9350004196167,-0.3580000102519989
1621843605409,-4.199999809265137,-2.2149999141693115,-7.995999813079834,-0.5490000247955322,-9.88199996948242,-0.4280000030994415
1621843605419,-4.690000057220459,-0.7070000171661377,-8.086000442504883,-0.5490000247955322,-9.80500030517578,-0.414000004529953
1621843605429,-4.619999885559082,0.4210000038146972,-8.029000282287598,-0.5490000247955322,-9.734999656677246,-0.3619999885559082
1621843605439,-4.130000114440918,1.5360000133514404,-7.902999877929688,-0.5099999904632568,-9.651000022888184,-0.3869999945163726
1621843605449,-3.744999885559082,2.0,-7.714499950408936,-0.4309999942779541,-9.612000465393066,-0.3799999952316284
1621843605459,-3.359999895095825,2.4639999866485596,-7.526000022888184,-0.4309999942779541,-9.56700038909912,-0.4120000004768371
1621843605469,-2.450000047683716,3.4820001125335693,-6.848999977111816,-0.4309999942779541,-9.527999877929688,-0.4050000011920929
1621843605479,-0.9800000190734864,4.585000038146973,-6.65500020980835,-0.4309999942779541,-9.437000274658203,-0.4690000116825103
1621843605489,0.8399999737739563,4.906000137329102,-6.455999851226807,-0.4309999942779541,-9.397999763488768,-0.4620000123977661
1621843605499,2.5899999141693115,5.099999904632568,-6.35099983215332,-0.3919999897480011,-9.496000289916992,-0.3600000143051147
1621843605509,4.409999847412109,5.6519999504089355,-6.254000186920166,-0.3529999852180481,-9.451000213623049,-0.3919999897480011
1621843605519,5.739999771118164,5.533999919891357,-5.989999771118164,-0.3140000104904174,-9.482999801635742,-0.4370000064373016
1621843605529,7.280000209808349,5.554999828338623,-5.702000141143799,-0.2750000059604644,-9.527999877929688,-0.4050000011920929
1621843605539,8.329999923706055,5.360000133514404,-5.807000160217285,-0.3140000104904174,-9.604999542236328,-0.4189999997615814
1621843605549,8.539999961853027,5.177000045776367,-5.98199987411499,-0.2750000059604644,-9.682000160217283,-0.4329999983310699
1621843605559,8.539999961853027,5.3520002365112305,-6.164000034332275,-0.2750000059604644,-9.812000274658203,-0.3759999871253967
1621843605569,7.630000114440918,5.290999889373779,-7.0279998779296875,-0.2750000059604644,-9.85099983215332,-0.3829999864101409
1621843605579,6.579999923706055,4.52400016784668,-7.519000053405762,-0.2349999994039535,-9.928000450134276,-0.3959999978542327
1621843605589,4.690000057220459,4.3420000076293945,-7.692999839782715,-0.2750000059604644,-9.972999572753906,-0.363999992609024
1621843605599,2.6600000858306885,4.033999919891357,-7.960999965667725,-0.3140000104904174,-10.057000160217283,-0.3389999866485595
1621843605609,0.699999988079071,3.7739999294281006,-8.503999710083008,-0.3529999852180481,-10.064000129699709,-0.3009999990463256
1621843605619,-0.8399999737739563,3.9440000057220455,-8.26099967956543,-0.2349999994039535,-10.085000038146973,-0.1850000023841857
1621843605629,-2.450000047683716,4.24399995803833,-8.350000381469727,-0.3140000104904174,-10.064000129699709,-0.3009999990463256
1621843605639,-3.569999933242798,4.281000137329102,-8.557000160217285,-0.3529999852180481,-10.038999557495115,-0.2169999927282333
1621843605649,-4.09499979019165,4.593000411987305,-8.71500015258789,-0.3529999852180481,-9.994000434875488,-0.248999997973442
1621843605659,-4.619999885559082,4.90500020980835,-8.873000144958496,-0.3529999852180481,-9.954999923706056,-0.2419999986886978
1621843605669,-5.460000038146973,5.456999778747559,-8.776000022888184,-0.3529999852180481,-9.90999984741211,-0.2739999890327453
1621843605679,-6.300000190734863,6.065000057220459,-8.597000122070312,-0.3529999852180481,-9.871000289916992,-0.2669999897480011
1621843605689,-6.789999961853027,6.271999835968018,-8.560999870300293,-0.3140000104904174,-9.83199977874756,-0.2599999904632568
1621843605699,-6.860000133514404,6.579999923706055,-8.293000221252441,-0.3140000104904174,-9.819000244140623,-0.3370000123977661
1621843605709,-6.860000133514404,7.083000183105469,-7.920000076293945,-0.2750000059604644,-9.772999763488768,-0.3689999878406524
1621843605719,-6.71999979019165,7.52899980545044,-7.627999782562256,-0.2750000059604644,-9.696000099182127,-0.3549999892711639
1621843605729,-6.369999885559082,8.145000457763672,-7.0929999351501465,-0.3140000104904174,-9.689000129699709,-0.3939999938011169
1621843605739,-5.53000020980835,8.267000198364258,-6.573999881744385,-0.2750000059604644,-9.651000022888184,-0.3869999945163726
1621843605749,-5.110000133514404,8.401000022888184,-6.124000072479248,-0.2750000059604644,-9.637000083923342,-0.4639999866485595
1621843605759,-4.829999923706055,8.420999526977539,-5.835999965667725,-0.3140000104904174,-9.62600040435791,-0.3030000030994415
1621843605769,-4.059999942779541,8.178000450134277,-5.665999889373779,-0.2750000059604644,-9.572999954223633,-0.3740000128746032
1621843605779,-3.569999933242798,8.211000442504883,-5.447000026702881,-0.3140000104904174,-9.56700038909912,-0.4120000004768371
1621843605789,-2.799999952316284,8.178000450134277,-5.665999889373779,-0.2750000059604644,-9.553000450134276,-0.488999992609024
1621843605799,-1.6100000143051147,8.295999526977539,-5.929999828338623,-0.2349999994039535,-9.54599952697754,-0.527999997138977
1621843605809,-0.5600000023841857,8.125,-6.172999858856201,-0.2349999994039535,-9.508000373840332,-0.5210000276565551
1621843605819,0.2800000011920929,7.816999912261963,-6.440000057220459,-0.2349999994039535,-9.513999938964846,-0.4830000102519989
1621843605829,1.399999976158142,7.309999942779541,-6.388000011444092,-0.2349999994039535,-9.592000007629396,-0.4959999918937683
1621843605839,1.6100000143051147,7.243000030517577,-6.61299991607666,-0.2349999994039535,-9.630000114440918,-0.5030000209808348
1621843605849,1.8200000524520872,7.176000118255615,-6.8379998207092285,-0.2349999994039535,-9.675999641418455,-0.4709999859333038
1621843605859,2.1700000762939453,6.936999797821045,-7.0929999351501465,-0.2349999994039535,-9.675999641418455,-0.4709999859333038
