timestamp,gyro_x,gyro_y,gyro_z,acc_x,acc_y,acc_z
1621841243842,0.0,0.0,0.0,0.0,0.0,0.0
1621841243851,6.71999979019165,-41.27399826049805,-14.243000030517578,1.5299999713897705,-9.510000228881836,-0.2829999923706054
1621841243861,7.630000114440918,-40.86000061035156,-15.378999710083008,1.4119999408721924,-9.70300006866455,-0.31700000166893
1621841243871,8.050000190734863,-39.93600082397461,-15.784999847412108,1.2940000295639038,-9.902999877929688,-0.3120000064373016
1621841243881,7.630000114440918,-38.36199951171875,-15.435999870300291,1.2549999952316284,-9.994000434875488,-0.248999997973442
1621841243891,6.300000190734863,-36.80899810791016,-15.375,1.1380000114440918,-9.947999954223633,-0.2800000011920929
1621841243901,5.389999866485596,-35.11800003051758,-15.291000366210936,1.1380000114440918,-9.871000289916992,-0.2669999897480011
1621841243911,4.619999885559082,-32.72600173950195,-15.152999877929688,1.1770000457763672,-9.826000213623049,-0.2989999949932098
1621841243921,4.480000019073486,-30.280000686645508,-13.300000190734863,1.1380000114440918,-9.878000259399414,-0.2280000001192092
1621841243931,4.059999942779541,-27.948999404907227,-11.609999656677246,1.0980000495910645,-9.871000289916992,-0.2669999897480011
1621841243941,3.7799999713897705,-26.96150016784668,-11.364500045776367,1.0980000495910645,-9.800999641418455,-0.2150000035762786
1621841243951,3.5,-25.974000930786133,-11.119000434875488,1.0980000495910645,-9.755000114440918,-0.2460000067949295
1621841243961,3.430000066757202,-23.788000106811523,-11.017999649047852,1.0980000495910645,-9.710000038146973,-0.277999997138977
1621841243971,3.5,-21.538000106811523,-10.479000091552734,1.0980000495910645,-9.678000450134276,-0.2329999953508377
1621841243981,3.2899999618530273,-19.570999145507812,-10.345999717712402,1.0199999809265137,-9.62600040435791,-0.3030000030994415
1621841243991,3.569999933242798,-17.469999313354492,-9.762000083923342,1.0590000152587893,-9.619000434875488,-0.3420000076293945
1621841244001,4.130000114440918,-15.215999603271484,-9.64900016784668,1.1380000114440918,-9.70300006866455,-0.31700000166893
1621841244011,4.480000019073486,-13.326000213623049,-9.883999824523924,1.2549999952316284,-9.710000038146973,-0.277999997138977
1621841244021,4.619999885559082,-12.053000450134276,-9.446000099182127,1.2549999952316284,-9.741999626159668,-0.3240000009536743
1621841244031,4.269999980926514,-11.258000373840332,-8.310999870300293,1.2940000295639038,-9.663999557495115,-0.3100000023841857
1621841244041,3.849999904632568,-10.909000396728516,-7.467999935150147,1.3730000257492063,-9.619000434875488,-0.3420000076293945
1621841244051,3.849999904632568,-10.555999755859377,-7.050000190734863,1.4119999408721924,-9.63199996948242,-0.2649999856948852
1621841244061,4.199999809265137,-10.321000099182127,-6.36899995803833,1.4119999408721924,-9.678000450134276,-0.2329999953508377
1621841244071,5.039999961853027,-10.41800022125244,-5.816999912261963,1.4509999752044678,-9.67099952697754,-0.2709999978542327
1621841244081,5.53000020980835,-10.85200023651123,-6.177999973297119,1.491000056266785,-9.663999557495115,-0.3100000023841857
1621841244091,5.739999771118164,-11.05500030517578,-6.640999794006348,1.5299999713897705,-9.678000450134276,-0.2329999953508377
1621841244101,5.739999771118164,-11.748000144958496,-6.335999965667725,1.491000056266785,-9.652999877929688,-0.1490000039339065
1621841244111,5.494999885559082,-12.187999725341797,-6.662499904632568,1.4119999408721924,-9.576000213623049,-0.135000005364418
1621841244121,5.25,-12.628000259399414,-6.988999843597412,1.3730000257492063,-9.58899974822998,-0.0579999983310699
1621841244131,4.690000057220459,-14.095999717712402,-8.741000175476074,1.4509999752044678,-9.607000350952148,-0.1800000071525573
1621841244141,4.900000095367432,-14.77400016784668,-10.138999938964844,1.4509999752044678,-9.737000465393066,-0.123999997973442
1621841244151,5.110000133514404,-15.11400032043457,-10.62600040435791,1.4119999408721924,-9.821000099182127,-0.0989999994635581
1621841244161,4.340000152587891,-15.864999771118164,-10.402999877929688,1.3730000257492063,-9.821000099182127,-0.0989999994635581
1621841244171,3.2200000286102295,-16.246000289916992,-10.256999969482422,1.3339999914169312,-9.859999656677246,-0.1049999967217445
1621841244181,1.6799999475479126,-16.829999923706055,-10.572999954223633,1.2940000295639038,-9.89099979400635,-0.1509999930858612
1621841244191,0.2800000011920929,-17.4950008392334,-10.83199977874756,1.215999960899353,-9.89099979400635,-0.1509999930858612
1621841244201,-0.6299999952316284,-17.677000045776367,-11.006999969482422,1.1770000457763672,-9.852999687194824,-0.1439999938011169
1621841244211,-1.190000057220459,-16.88599967956543,-10.654000282287598,1.0980000495910645,-9.814000129699709,-0.1369999945163726
1621841244221,-1.1200000047683716,-16.104000091552734,-10.657999992370604,1.0199999809265137,-9.652999877929688,-0.1490000039339065
1621841244231,-0.3499999940395355,-14.640000343322754,-10.89799976348877,0.981000006198883,-9.529999732971191,-0.1669999957084655
1621841244241,0.5600000023841857,-13.383000373840332,-11.173999786376951,1.0199999809265137,-9.569000244140623,-0.1739999949932098
1621841244251,1.8899999856948853,-11.960000038146973,-10.781000137329102,1.1380000114440918,-9.737000465393066,-0.123999997973442
1621841244261,2.240000009536743,-10.439000129699709,-9.730999946594238,1.215999960899353,-9.89099979400635,-0.1509999930858612
1621841244271,1.9600000381469729,-10.154999732971191,-8.116999626159668,1.3339999914169312,-9.918999671936035,0.0040000001899898
1621841244281,1.0499999523162842,-10.798999786376951,-6.880000114440918,1.3730000257492063,-9.95699977874756,-0.003000000026077
1621841244291,0.4899999797344207,-11.137499809265137,-6.371000289916992,1.3730000257492063,-9.925999641418455,0.0419999994337558
1621841244301,-0.0700000002980232,-11.47599983215332,-5.861999988555908,1.4119999408721924,-9.873000144958496,-0.0280000008642673
1621841244311,-1.0499999523162842,-12.140999794006348,-4.913000106811523,1.3730000257492063,-9.835000038146973,-0.0209999997168779
1621841244321,-1.399999976158142,-12.44499969482422,-4.3979997634887695,1.2940000295639038,-9.821000099182127,-0.0989999994635581
1621841244331,-1.6799999475479126,-12.875,-3.9760000705718994,1.2549999952316284,-9.776000022888184,-0.1299999952316284
1621841244341,-2.0999999046325684,-13.220000267028809,-4.0370001792907715,1.2940000295639038,-9.76900005340576,-0.1689999997615814
1621841244351,-2.309999942779541,-13.527999877929688,-4.304999828338623,1.3730000257492063,-9.83899974822998,-0.221000000834465
1621841244361,-2.7300000190734863,-14.234000205993652,-5.139999866485596,1.4119999408721924,-9.755000114440918,-0.2460000067949295
1621841244371,-3.009999990463257,-15.795000076293944,-4.348999977111816,1.4119999408721924,-9.63199996948242,-0.2649999856948852
1621841244381,-3.6400001049041744,-18.048999786376953,-3.253999948501587,1.3339999914169312,-9.470999717712402,-0.2759999930858612
1621841244391,-3.7100000381469727,-20.566999435424805,-2.2760000228881836,1.2940000295639038,-9.425999641418455,-0.3079999983310699
1621841244401,-3.009999990463257,-22.371999740600582,-1.315000057220459,1.1380000114440918,-9.39400005340576,-0.2619999945163726
1621841244411,-1.8899999856948853,-23.757999420166016,-1.9149999618530271,1.0590000152587893,-9.3100004196167,-0.2870000004768371
1621841244421,-0.0700000002980232,-24.739999771118164,-2.799000024795532,0.9020000100135804,-9.22599983215332,-0.3120000064373016
1621841244431,1.4700000286102295,-25.31599998474121,-3.9660000801086426,0.8240000009536743,-9.211999893188477,-0.3899999856948852
1621841244441,3.569999933242798,-25.381000518798828,-4.4039998054504395,0.7059999704360961,-9.218999862670898,-0.3510000109672546
1621841244451,5.599999904632568,-24.788999557495117,-4.940000057220459,0.5879999995231628,-9.29599952697754,-0.3650000095367431
1621841244461,7.630000114440918,-23.905000686645508,-5.921000003814697,0.5099999904632568,-9.288999557495115,-0.402999997138977
1621841244471,8.470000267028809,-23.319000244140625,-6.421999931335449,0.4709999859333038,-9.335000038146973,-0.3709999918937683
1621841244481,9.3100004196167,-22.732999801635746,-6.922999858856201,0.4709999859333038,-9.387000083923342,-0.3009999990463256
1621841244491,11.0600004196167,-21.635000228881836,-8.718999862670898,0.4709999859333038,-9.43299961090088,-0.2689999938011169
1621841244501,12.31999969482422,-20.20299911499023,-10.38599967956543,0.5099999904632568,-9.446000099182127,-0.19200000166893
1621841244511,13.369999885559082,-19.385000228881836,-11.80500030517578,0.5490000247955322,-9.498000144958496,-0.1209999993443489
1621841244521,14.140000343322754,-18.21699905395508,-12.380999565124512,0.6280000209808348,-9.58899974822998,-0.0579999983310699
1621841244531,14.5600004196167,-17.35700035095215,-12.017000198364258,0.6669999957084655,-9.718999862670898,-0.0010000000474974
1621841244541,14.350000381469728,-16.992000579833984,-11.66800022125244,0.7450000047683715,-9.880000114440918,0.0099999997764825
1621841244551,13.4399995803833,-17.011999130249023,-10.746999740600586,0.7850000262260437,-10.079999923706056,0.0149999996647238
1621841244561,12.109999656677246,-17.1299991607666,-10.484000205993652,0.7450000047683715,-10.26200008392334,0.1420000046491622
1621841244571,9.869999885559082,-17.31599998474121,-10.232000350952148,0.7059999704360961,-10.314000129699709,0.2129999995231628
1621841244581,6.650000095367432,-17.70599937438965,-10.442999839782717,0.7059999704360961,-10.328000068664553,0.2899999916553497
1621841244591,3.569999933242798,-17.665000915527344,-11.076000213623049,0.7059999704360961,-10.29599952697754,0.3350000083446502
1621841244601,1.1200000047683716,-17.583999633789062,-11.133000373840332,0.7850000262260437,-10.225000381469728,0.3880000114440918
1621841244611,-1.3300000429153442,-17.506999969482422,-10.763999938964844,0.8240000009536743,-10.194000244140623,0.4329999983310699
1621841244621,-3.0799999237060547,-17.089000701904297,-9.907999992370604,0.7059999704360961,-10.161999702453612,0.4790000021457672
1621841244631,-4.900000095367432,-16.655000686645508,-9.546999931335447,0.5879999995231628,-10.23900032043457,0.4650000035762786
1621841244641,-7.630000114440918,-15.859999656677246,-9.619999885559082,0.4709999859333038,-10.470999717712402,0.4239999949932098
1621841244651,-11.760000228881836,-14.76200008392334,-10.208000183105469,0.3919999897480011,-10.76200008392334,0.492000013589859
1621841244661,-16.729999542236328,-12.968999862670898,-9.892000198364256,0.4309999942779541,-10.975000381469728,0.5740000009536743
1621841244671,-19.704999923706055,-12.017999649047852,-9.440000534057615,0.4709999859333038,-11.003000259399414,0.7289999723434448
1621841244681,-22.68000030517578,-11.06700038909912,-8.98799991607666,0.4709999859333038,-10.892999649047852,0.7879999876022338
1621841244691,-27.579999923706055,-9.968000411987305,-7.159999847412109,0.4309999942779541,-10.67300033569336,0.6669999957084655
1621841244701,-31.989999771118164,-8.560999870300293,-5.063000202178955,0.3919999897480011,-10.628000259399414,0.6349999904632568
1621841244711,-35.41999816894531,-6.334000110626221,-3.177999973297119,0.3529999852180481,-10.652999877929688,0.5509999990463256
1621841244721,-38.36000061035156,-3.5239999294281006,-2.184999942779541,0.3140000104904174,-10.678000450134276,0.4670000076293945
1621841244731,-42.13999938964844,-1.1519999504089355,-2.3359999656677246,0.3919999897480011,-10.270999908447266,0.4199999868869781
1621841244741,-45.290000915527344,0.5070000290870667,-2.4700000286102295,0.3919999897480011,-10.01200008392334,0.3059999942779541
1621841244751,-47.599998474121094,1.8609999418258667,-2.0889999866485596,0.3529999852180481,-9.829999923706056,0.1790000051259994
1621841244761,-48.29999923706055,3.305000066757202,-1.4079999923706057,0.3919999897480011,-9.75699996948242,-0.0080000003799796
1621841244771,-47.810001373291016,4.561999797821045,-0.4749999940395355,0.3919999897480011,-9.704999923706056,-0.0780000016093254
1621841244781,-47.599998474121094,6.715000152587891,-0.5929999947547911,0.3919999897480011,-9.607000350952148,-0.1800000071525573
1621841244791,-47.31999969482422,8.07699966430664,-1.0640000104904177,0.3919999897480011,-9.46399974822998,-0.3149999976158142
1621841244801,-46.689998626708984,8.588000297546387,-2.75,0.4709999859333038,-9.321000099182127,-0.4490000009536743
1621841244811,-45.56999969482422,9.034000396728516,-3.6670000553131104,0.4709999859333038,-9.138999938964846,-0.5759999752044677
1621841244821,-43.61000061035156,8.899999618530273,-2.9089999198913574,0.3919999897480011,-8.984999656677246,-0.5490000247955322
1621841244831,-41.02000045776367,9.545000076293944,-1.7289999723434448,0.2750000059604644,-8.8100004196167,-0.637000024318695
1621841244841,-37.52000045776367,10.56700038909912,-1.4769999980926514,0.1570000052452087,-8.576000213623047,-0.8349999785423278
1621841244851,-33.11000061035156,12.375,-2.865000009536743,0.0390000008046627,-8.4399995803833,-0.9300000071525572
1621841244861,-28.13999938964844,15.019000053405762,-4.956999778747559,0.0390000008046627,-8.342000007629395,-1.0329999923706057
1621841244871,-25.23500061035156,16.51099967956543,-5.760000228881836,0.0390000008046627,-8.289999961853027,-1.1030000448226929
1621841244881,-22.329999923706055,18.003000259399414,-6.563000202178955,0.0390000008046627,-8.276000022888184,-1.1799999475479126
1621841244891,-16.65999984741211,21.089000701904297,-5.521999835968018,0.0780000016093254,-8.223999977111816,-1.2510000467300415
1621841244901,-10.710000038146973,23.858999252319336,-3.8959999084472656,0.0390000008046627,-8.24899959564209,-1.3350000381469729
1621841244911,-3.6400001049041744,27.31399917602539,-1.7230000495910645,0.0,-8.241999626159668,-1.3739999532699585
1621841244921,3.569999933242798,30.291000366210938,-0.0610000006854534,0.0,-8.222000122070312,-1.4900000095367432
1621841244931,10.43000030517578,33.0,1.909000039100647,0.0780000016093254,-8.28499984741211,-1.5800000429153442
1621841244941,17.149999618530273,36.36199951171875,4.208000183105469,0.2349999994039535,-8.633000373840332,-1.6419999599456787
1621841244951,23.3799991607666,39.11100006103515,5.546000003814697,0.3919999897480011,-8.994000434875488,-1.6260000467300415
1621841244961,28.06999969482422,41.51599884033203,6.822999954223633,0.5490000247955322,-9.260000228881836,-1.4730000495910645
1621841244971,30.65999984741211,43.2599983215332,7.414999961853027,0.6669999957084655,-9.20300006866455,-1.343999981880188
1621841244981,31.63999938964844,42.303001403808594,6.39300012588501,0.7450000047683715,-9.029999732971191,-1.194000005722046
1621841244991,32.970001220703125,39.81700134277344,3.96399998664856,0.7850000262260437,-8.767000198364258,-1.1080000400543213
1621841245001,35.70000076293945,37.196998596191406,2.2939999103546143,0.7450000047683715,-8.555000305175781,-0.9509999752044676
1621841245011,40.040000915527344,35.50199890136719,1.4259999990463257,0.7450000047683715,-8.414999961853027,-0.8460000157356262
1621841245021,45.5,33.900001525878906,1.6419999599456787,0.7059999704360961,-8.312000274658203,-0.7490000128746032
1621841245031,51.380001068115234,32.86199951171875,1.8849999904632568,0.6669999957084655,-8.505000114440918,-0.7829999923706054
1621841245041,57.04999923706055,31.649999618530273,2.311000108718872,0.7450000047683715,-8.859999656677246,-0.8050000071525573
1621841245051,61.38999938964844,30.663999557495117,1.8530000448226929,0.7850000262260437,-9.36400032043457,-0.6549999713897705
1621841245061,63.349998474121094,29.5,0.7950000166893005,0.7450000047683715,-9.668999671936035,-0.5099999904632568
1621841245071,62.58000183105469,26.78300094604492,-1.531999945640564,0.7450000047683715,-9.786999702453612,-0.2919999957084655
1621841245081,61.459999084472656,24.049999237060547,-4.572999954223633,0.7059999704360961,-9.722999572753906,-0.2010000050067901
1621841245091,60.86499786376953,22.782499313354492,-6.253999710083008,0.6280000209808348,-9.647999763488768,0.0509999990463256
1621841245101,60.27000045776367,21.51499938964844,-7.934999942779541,0.5490000247955322,-9.604999542236328,0.2579999864101409
1621841245111,60.34000015258789,19.99799919128418,-10.619000434875488,0.4709999859333038,-9.710000038146973,0.3989999890327453
1621841245121,60.47999954223633,19.746000289916992,-13.222000122070312,0.6280000209808348,-10.204999923706056,0.2720000147819519
1621841245131,60.130001068115234,20.43899917602539,-15.942999839782717,0.7450000047683715,-10.83899974822998,0.4790000021457672
1621841245141,56.560001373291016,20.179000854492188,-17.69499969482422,0.9020000100135804,-11.279999732971191,0.7200000286102294
1621841245151,49.84000015258789,18.131000518798828,-17.770999908447266,1.0590000152587893,-11.35200023651123,0.906000018119812
1621841245161,40.459999084472656,14.303999900817873,-17.024999618530273,1.0590000152587893,-11.218000411987305,1.0490000247955322
1621841245171,32.060001373291016,10.114999771118164,-15.843999862670898,1.0199999809265137,-10.993000030517578,1.1289999485015867
1621841245181,25.34000015258789,6.616000175476074,-14.541999816894531,0.8629999756813049,-10.76200008392334,1.1690000295639038
1621841245191,20.719999313354492,4.150000095367432,-14.265999794006348,0.7059999704360961,-10.58199977874756,1.281000018119812
1621841245201,16.940000534057617,3.2339999675750732,-14.711999893188477,0.5490000247955322,-10.428000450134276,1.3079999685287476
1621841245211,14.06999969482422,3.776999950408935,-14.972000122070312,0.5099999904632568,-10.336999893188477,1.24399995803833
1621841245221,11.829999923706056,4.888000011444092,-15.628999710083008,0.5490000247955322,-10.394000053405762,1.1150000095367432
1621841245231,8.890000343322754,6.668000221252441,-15.244000434875488,0.5099999904632568,-10.508999824523926,1.093999981880188
1621841245241,5.320000171661377,8.456999778747559,-13.29300022125244,0.5490000247955322,-10.565999984741213,0.9649999737739564
1621841245251,1.3300000429153442,9.786999702453612,-11.565999984741213,0.5099999904632568,-10.586999893188477,1.0809999704360962
1621841245261,-2.869999885559082,11.116999626159668,-9.83899974822998,0.5099999904632568,-10.470999717712402,1.10099995136261
1621841245271,-6.090000152587891,11.149999618530272,-8.411999702453613,0.5879999995231628,-10.38700008392334,1.0759999752044678
1621841245281,-9.380000114440918,11.08899974822998,-6.859000205993652,0.6280000209808348,-10.340999603271484,1.0440000295639038
1621841245291,-11.619999885559082,11.215000152587892,-5.557000160217285,0.6280000209808348,-10.211999893188477,0.9879999756813048
1621841245301,-13.789999961853027,11.12600040435791,-4.64900016784668,0.6280000209808348,-10.08899974822998,0.968999981880188
1621841245311,-14.699999809265137,11.11400032043457,-4.579999923706055,0.6669999957084655,-9.998000144958496,0.906000018119812
1621841245321,-15.68000030517578,10.571000099182127,-4.320000171661377,0.6669999957084655,-9.998000144958496,0.906000018119812
1621841245331,-17.149999618530273,10.291000366210936,-3.9430000782012935,0.6280000209808348,-10.02299976348877,0.8220000267028807
1621841245341,-17.779998779296875,10.390500068664553,-4.103000164031982,0.5879999995231628,-9.977999687194824,0.7900000214576721
1621841245351,-18.40999984741211,10.489999771118164,-4.263000011444092,0.5879999995231628,-9.932000160217283,0.7580000162124633
1621841245361,-19.670000076293945,10.43299961090088,-4.343999862670898,0.5879999995231628,-9.840999603271484,0.6940000057220459
1621841245371,-20.719999313354492,10.218000411987305,-4.73799991607666,0.5879999995231628,-9.835000038146973,0.656000018119812
1621841245381,-21.13999938964844,9.748000144958496,-4.892000198364258,0.5879999995231628,-9.718999862670898,0.6759999990463256
1621841245391,-21.489999771118164,9.524999618530272,-4.433000087738037,0.5879999995231628,-9.65999984741211,0.5669999718666076
1621841245401,-21.350000381469727,9.28499984741211,-3.4800000190734863,0.5879999995231628,-9.607000350952148,0.4970000088214874
1621841245411,-20.86000061035156,8.994000434875488,-3.0339999198913574,0.6280000209808348,-9.593999862670898,0.4189999997615814
1621841245421,-20.09000015258789,8.847999572753906,-3.4159998893737793,0.5879999995231628,-9.55500030517578,0.4259999990463256
1621841245431,-18.969999313354492,8.600000381469727,-4.0279998779296875,0.5490000247955322,-9.470999717712402,0.4009999930858612
1621841245441,-17.920000076293945,8.619999885559082,-4.947999954223633,0.5490000247955322,-9.46399974822998,0.3630000054836273
1621841245450,-16.799999237060547,8.607999801635742,-6.0879998207092285,0.5490000247955322,-9.387000083923342,0.3759999871253967
1621841245460,-14.979999542236328,8.574999809265137,-6.307000160217285,0.5490000247955322,-9.373000144958496,0.2989999949932098
1621841245470,-13.369999885559082,8.631999969482422,-6.22599983215332,0.5490000247955322,-9.366999626159668,0.2599999904632568
1621841245480,-11.899999618530272,8.696999549865723,-5.788000106811523,0.5490000247955322,-9.359999656677246,0.2220000028610229
1621841245490,-10.5,8.53499984741211,-5.673999786376953,0.5490000247955322,-9.352999687194824,0.1829999983310699
1621841245500,-9.380000114440918,8.376999855041504,-5.986000061035156,0.5490000247955322,-9.385000228881836,0.1379999965429306
1621841245510,-8.119999885559082,8.03600025177002,-6.4730000495910645,0.5879999995231628,-9.397999763488768,0.2150000035762786
1621841245520,-6.860000133514404,7.9099998474121085,-6.565999984741211,0.5879999995231628,-9.397999763488768,0.2150000035762786
1621841245530,-5.110000133514404,8.1899995803833,-6.942999839782715,0.6280000209808348,-9.43000030517578,0.1689999997615814
1621841245540,-3.7100000381469727,8.21399974822998,-7.080999851226807,0.6280000209808348,-9.437000274658203,0.2080000042915344
1621841245550,-1.9600000381469729,7.906000137329101,-7.348999977111816,0.6280000209808348,-9.321000099182127,0.2290000021457672
1621841245560,0.0700000002980232,7.329999923706055,-7.308000087738037,0.7059999704360961,-9.314000129699709,0.1899999976158142
1621841245570,2.1700000762939453,6.72599983215332,-6.703999996185303,0.6669999957084655,-9.352999687194824,0.1829999983310699
1621841245580,3.7100000381469727,6.506999969482422,-6.671000003814697,0.7059999704360961,-9.397999763488768,0.2150000035762786
1621841245590,4.96999979019165,5.86299991607666,-6.64300012588501,0.7450000047683715,-9.43000030517578,0.1689999997615814
1621841245600,5.739999771118164,5.510000228881836,-7.060999870300293,0.7450000047683715,-9.630000114440918,0.1739999949932098
1621841245610,5.739999771118164,5.13700008392334,-7.161999702453613,0.7450000047683715,-9.734999656677246,0.3149999976158142
1621841245620,5.739999771118164,4.763999938964844,-7.263000011444091,0.7450000047683715,-9.772999763488768,0.3079999983310699
1621841245630,5.179999828338623,3.9159998893737793,-7.697000026702882,0.7059999704360961,-9.734999656677246,0.3149999976158142
1621841245640,4.409999847412109,3.128999948501587,-8.475000381469727,0.7450000047683715,-9.720999717712402,0.2380000054836273
1621841245650,4.340000152587891,2.7200000286102295,-8.973999977111816,0.7059999704360961,-9.734999656677246,0.3149999976158142
1621841245660,4.340000152587891,2.4070000648498535,-8.815999984741211,0.6669999957084655,-9.696000099182127,0.3219999969005584
1621841245670,4.409999847412109,2.4809999465942383,-8.020999908447266,0.6669999957084655,-9.710000038146973,0.3989999890327453
1621841245680,4.409999847412109,2.562000036239624,-8.07800006866455,0.6280000209808348,-9.786999702453612,0.3849999904632568
1621841245690,4.199999809265137,2.950999975204468,-9.074999809265137,0.6669999957084655,-9.800999641418455,0.4629999995231628
1621841245700,4.130000114440918,3.255000114440918,-9.590999603271484,0.7059999704360961,-9.845999717712402,0.4939999878406524
1621841245710,4.199999809265137,3.1010000705718994,-9.119999885559082,0.7450000047683715,-9.845999717712402,0.4939999878406524
1621841245720,4.130000114440918,2.8289999961853027,-8.38599967956543,0.7059999704360961,-9.776000022888184,0.5469999909400939
1621841245730,3.569999933242798,2.8459999561309814,-7.671999931335449,0.7450000047683715,-9.729999542236328,0.5149999856948853
1621841245740,3.5,2.371000051498413,-7.401000022888184,0.7850000262260437,-9.76900005340576,0.5080000162124633
1621841245750,3.7100000381469727,2.00600004196167,-7.749000072479248,0.7850000262260437,-9.814000129699709,0.5400000214576721
1621841245760,3.569999933242798,1.7869999408721924,-7.717000007629395,0.7450000047683715,-9.814000129699709,0.5400000214576721
1621841245770,3.009999990463257,1.868000030517578,-7.77400016784668,0.7450000047683715,-9.776000022888184,0.5469999909400939
1621841245780,2.5199999809265137,1.5759999752044678,-7.328000068664551,0.7450000047683715,-9.814000129699709,0.5400000214576721
1621841245790,2.380000114440918,1.746999979019165,-7.084000110626221,0.7059999704360961,-9.807000160217283,0.5009999871253967
1621841245800,1.9600000381469729,2.0220000743865967,-7.035999774932861,0.7059999704360961,-9.807000160217283,0.5009999871253967
1621841245810,1.399999976158142,1.88100004196167,-6.633999824523926,0.6280000209808348,-9.76900005340576,0.5080000162124633
1621841245820,1.4700000286102295,2.119999885559082,-6.379000186920166,0.6280000209808348,-9.690999984741213,0.5220000147819519
1621841245830,1.6100000143051147,2.3389999866485596,-6.410999774932861,0.6280000209808348,-9.722999572753906,0.4760000109672546
1621841245840,1.6100000143051147,2.6019999980926514,-6.294000148773193,0.6280000209808348,-9.715999603271484,0.4379999935626983
1621841245850,1.8899999856948853,2.927000045776367,-6.520999908447266,0.5879999995231628,-9.678000450134276,0.4440000057220459
1621841245860,2.5199999809265137,3.6809999942779545,-7.170000076293945,0.5490000247955322,-9.60099983215332,0.4580000042915344
1621841245870,3.430000066757202,4.123000144958496,-7.6599998474121085,0.5879999995231628,-9.510000228881836,0.3939999938011169
1621841245880,4.550000190734863,4.4679999351501465,-7.599999904632568,0.5879999995231628,-9.510000228881836,0.3939999938011169
1621841245890,5.389999866485596,4.51200008392334,-7.449999809265136,0.6280000209808348,-9.55500030517578,0.4259999990463256
1621841245900,5.635000228881836,4.613500118255615,-7.218500137329101,0.6280000209808348,-9.593999862670898,0.4189999997615814
1621841245910,5.880000114440918,4.715000152587891,-6.986999988555908,0.6669999957084655,-9.60099983215332,0.4580000042915344
1621841245920,6.510000228881836,4.427000045776367,-6.9670000076293945,0.6669999957084655,-9.6850004196167,0.4830000102519989
1621841245930,6.579999923706055,4.309000015258789,-7.9120001792907715,0.6669999957084655,-9.690999984741213,0.5220000147819519
1621841245940,6.929999828338623,4.093999862670898,-8.305000305175781,0.7450000047683715,-9.76900005340576,0.5080000162124633
1621841245950,6.860000133514404,3.502000093460083,-8.977999687194824,0.7059999704360961,-9.76900005340576,0.5080000162124633
1621841245960,6.789999961853027,3.246999979019165,-8.73900032043457,0.7059999704360961,-9.762000083923342,0.4690000116825103
1621841245970,6.71999979019165,3.502000093460083,-8.977999687194824,0.7059999704360961,-9.807000160217283,0.5009999871253967
1621841245980,6.300000190734863,3.388999938964844,-9.140000343322754,0.7059999704360961,-9.807000160217283,0.5009999871253967
1621841245990,5.53000020980835,3.250999927520752,-9.16499996185303,0.7059999704360961,-9.852999687194824,0.5329999923706054
1621841246000,4.829999923706055,3.2309999465942383,-9.45300006866455,0.7059999704360961,-9.897999763488768,0.5649999976158142
1621841246010,3.990000009536743,3.2869999408721924,-9.371999740600586,0.7059999704360961,-9.944000244140623,0.597000002861023
1621841246020,3.1500000953674316,3.2060000896453857,-9.3149995803833,0.7059999704360961,-9.904999732971191,0.6039999723434448
1621841246030,2.240000009536743,3.377000093460083,-9.071000099182127,0.6669999957084655,-9.866000175476074,0.6100000143051147
1621841246040,2.0299999713897705,3.6809999942779545,-8.378000259399414,0.6669999957084655,-9.873000144958496,0.6489999890327453
1621841246050,1.5399999618530271,4.025000095367432,-8.317000389099121,0.5879999995231628,-9.75100040435791,0.6309999823570251
1621841246060,1.6799999475479126,4.703000068664551,-8.126999855041504,0.6280000209808348,-9.704999923706056,0.5989999771118164
1621841246070,2.1700000762939453,5.50600004196167,-7.842999935150147,0.6669999957084655,-9.595999717712402,0.6579999923706054
1621841246080,2.7300000190734863,6.125999927520752,-7.734000205993653,0.5879999995231628,-9.58899974822998,0.6190000176429749
1621841246090,3.359999895095825,7.013999938964844,-7.933000087738037,0.5879999995231628,-9.51900005340576,0.6719999909400939
1621841246100,3.990000009536743,7.622000217437744,-7.754000186920166,0.5879999995231628,-9.557000160217283,0.6650000214576721
1621841246110,4.409999847412109,8.267000198364258,-7.782999992370605,0.5879999995231628,-9.557000160217283,0.6650000214576721
1621841246120,4.760000228881836,9.281000137329102,-7.888000011444091,0.5490000247955322,-9.602999687194824,0.6970000267028807
1621841246130,5.110000133514404,9.83199977874756,-7.790999889373779,0.5879999995231628,-9.602999687194824,0.6970000267028807
1621841246140,5.53000020980835,10.177000045776367,-7.730000019073486,0.6280000209808348,-9.687000274658203,0.722000002861023
1621841246150,5.880000114440918,10.517999649047852,-7.243999958038329,0.6669999957084655,-9.687000274658203,0.722000002861023
1621841246160,5.460000038146973,10.746999740600586,-7.13249969482422,0.6669999957084655,-9.770999908447264,0.746999979019165
1621841246170,5.039999961853027,10.97599983215332,-7.020999908447266,0.6669999957084655,-9.803000450134276,0.7009999752044677
1621841246180,4.480000019073486,11.633000373840332,-7.118000030517578,0.6669999957084655,-9.803000450134276,0.7009999752044677
1621841246190,3.6400001049041744,11.847999572753906,-7.933000087738037,0.6280000209808348,-9.89400005340576,0.7649999856948853
1621841246200,3.1500000953674316,12.366999626159668,-8.055000305175781,0.6280000209808348,-9.89400005340576,0.7649999856948853
1621841246210,2.1700000762939453,12.99899959564209,-8.013999938964844,0.6280000209808348,-9.854999542236328,0.7720000147819519
1621841246220,1.9600000381469729,13.465999603271484,-7.434999942779541,0.6669999957084655,-9.815999984741213,0.7789999842643737
1621841246230,1.8200000524520872,13.920000076293944,-6.785999774932861,0.7059999704360961,-9.78499984741211,0.8240000009536743
1621841246240,1.5399999618530271,14.119000434875488,-5.8979997634887695,0.7059999704360961,-9.78499984741211,0.8240000009536743
1621841246250,1.399999976158142,14.345999717712402,-5.573999881744385,0.6669999957084655,-9.822999954223633,0.8169999718666076
1621841246260,0.9100000262260436,15.17300033569336,-5.427999973297119,0.5879999995231628,-9.869000434875488,0.8489999771118164
1621841246270,0.0700000002980232,15.930999755859377,-5.294000148773193,0.4709999859333038,-9.939000129699709,0.7969999909400939
1621841246280,-0.8399999737739563,17.82900047302246,-5.172999858856201,0.3919999897480011,-9.946000099182127,0.8349999785423278
1621841246290,-2.240000009536743,20.21299934387207,-5.392000198364258,0.3529999852180481,-9.939000129699709,0.7969999909400939
1621841246300,-3.430000066757202,22.2450008392334,-6.0289998054504395,0.3919999897480011,-9.899999618530272,0.8040000200271606
1621841246310,-4.550000190734863,24.017000198364254,-6.000999927520752,0.4309999942779541,-9.854999542236328,0.7720000147819519
1621841246320,-5.320000171661377,25.493000030517575,-5.10099983215332,0.5099999904632568,-9.822999954223633,0.8169999718666076
1621841246330,-5.739999771118164,26.83099937438965,-3.0169999599456787,0.5099999904632568,-9.753000259399414,0.8690000176429749
1621841246340,-6.019999980926514,27.163999557495117,-1.6779999732971191,0.5490000247955322,-9.70699977874756,0.8379999995231628
1621841246350,-5.739999771118164,27.854000091552734,-1.5570000410079956,0.5879999995231628,-9.654999732971191,0.7670000195503234
1621841246360,-5.599999904632568,28.128999710083008,-2.7170000076293945,0.5879999995231628,-9.694000244140623,0.7599999904632568
1621841246370,-5.739999771118164,28.027999877929688,-4.156000137329102,0.5879999995231628,-9.732000350952148,0.7530000209808348
1621841246380,-5.809999942779541,28.413000106811523,-4.728000164031982,0.6280000209808348,-9.725000381469728,0.7149999737739563
1621841246390,-5.039999961853027,28.25,-5.822999954223633,0.6280000209808348,-9.725000381469728,0.7149999737739563
1621841246400,-4.970000267028809,28.063499450683594,-6.17549991607666,0.6669999957084655,-9.725000381469728,0.7149999737739563
1621841246410,-4.900000095367432,27.87700080871582,-6.5279998779296875,0.6669999957084655,-9.725000381469728,0.7149999737739563
1621841246420,-5.110000133514404,27.666000366210938,-7.347000122070312,0.6669999957084655,-9.763999938964846,0.7080000042915344
1621841246430,-5.25,27.718999862670895,-8.048999786376953,0.6669999957084655,-9.803000450134276,0.7009999752044677
1621841246440,-5.179999828338623,27.937999725341797,-8.081000328063965,0.6280000209808348,-9.840999603271484,0.6940000057220459
1621841246450,-5.53000020980835,28.038999557495117,-7.849999904632568,0.5879999995231628,-9.835000038146973,0.656000018119812
1621841246460,-6.789999961853027,28.291000366210938,-7.664000034332275,0.5879999995231628,-9.904999732971191,0.6039999723434448
1621841246470,-7.9099998474121085,28.676000595092773,-7.0269999504089355,0.5490000247955322,-9.98900032043457,0.6290000081062316
1621841246480,-9.100000381469728,28.71299934387207,-6.026000022888184,0.5879999995231628,-10.072999954223633,0.6539999842643737
1621841246490,-10.850000381469728,28.534000396728516,-5.416999816894531,0.5879999995231628,-10.034999847412108,0.6600000262260437
1621841246500,-12.460000038146973,28.62700080871582,-5.543000221252441,0.5879999995231628,-10.072999954223633,0.6539999842643737
1621841246510,-13.720000267028809,28.92799949645996,-5.631999969482422,0.5879999995231628,-10.027999877929688,0.621999979019165
1621841246520,-14.630000114440918,29.552000045776367,-5.948999881744385,0.5490000247955322,-10.020999908447266,0.5830000042915344
1621841246530,-15.890000343322754,30.816999435424805,-5.868000030517578,0.4709999859333038,-10.065999984741213,0.615000009536743
1621841246540,-16.940000534057617,32.28900146484375,-5.75,0.5099999904632568,-10.0600004196167,0.5759999752044677
1621841246550,-18.1299991607666,33.137001037597656,-5.316999912261963,0.5490000247955322,-10.020999908447266,0.5830000042915344
1621841246560,-18.969999313354492,33.79800033569336,-4.63100004196167,0.5879999995231628,-9.937000274658203,0.5580000281333923
1621841246570,-19.459999084472656,34.069000244140625,-4.1570000648498535,0.5879999995231628,-9.968999862670898,0.5130000114440918
1621841246580,-20.229999542236328,34.025001525878906,-3.0989999771118164,0.6669999957084655,-9.92300033569336,0.481000006198883
1621841246590,-21.13999938964844,33.619998931884766,-2.815000057220459,0.7059999704360961,-9.954999923706056,0.4350000023841857
1621841246600,-21.6299991607666,33.20199966430664,-2.461999893188477,0.7450000047683715,-9.90999984741211,0.4040000140666961
1621841246610,-22.049999237060547,32.224998474121094,-2.562999963760376,0.7850000262260437,-9.86400032043457,0.3720000088214874
1621841246620,-22.154998779296875,32.09700012207031,-2.44350004196167,0.7450000047683715,-9.86400032043457,0.3720000088214874
1621841246630,-22.260000228881836,31.968999862670895,-2.3239998817443848,0.7450000047683715,-9.80500030517578,0.2630000114440918
1621841246640,-22.399999618530273,31.280000686645508,-2.444999933242798,0.7450000047683715,-9.760000228881836,0.231000006198883
1621841246650,-22.88999938964844,30.753000259399418,-2.680999994277954,0.7059999704360961,-9.753000259399414,0.19200000166893
1621841246660,-22.68000030517578,30.60700035095215,-3.062000036239624,0.7450000047683715,-9.746000289916992,0.1539999991655349
1621841246670,-22.68000030517578,30.100000381469727,-3.009000062942505,0.7850000262260437,-9.701000213623049,0.1220000013709068
1621841246680,-22.1200008392334,29.17099952697754,-3.385999917984009,0.7850000262260437,-9.616999626159668,0.0970000028610229
1621841246690,-21.350000381469727,28.18199920654297,-3.4179999828338623,0.7450000047683715,-9.526000022888184,0.032999999821186
1621841246700,-20.440000534057617,27.066999435424805,-3.5439999103546143,0.7850000262260437,-9.44200038909912,0.0080000003799796
1621841246710,-18.899999618530273,26.35300064086914,-3.5269999504089355,0.7450000047683715,-9.357000350952148,-0.0170000009238719
1621841246720,-16.8700008392334,25.663999557495117,-3.6489999294281006,0.7059999704360961,-9.35099983215332,-0.0560000017285346
1621841246730,-14.770000457763672,24.84000015258789,-4.2210001945495605,0.6669999957084655,-9.29800033569336,-0.1260000020265579
1621841246740,-12.949999809265137,23.923999786376953,-4.666999816894531,0.6669999957084655,-9.201000213623049,-0.2280000001192092
1621841246750,-10.359999656677246,23.36000061035156,-4.695000171661377,0.6280000209808348,-9.154999732971191,-0.2599999904632568
1621841246760,-7.769999980926514,23.20199966430664,-5.006999969482422,0.5879999995231628,-9.154999732971191,-0.2599999904632568
1621841246770,-5.179999828338623,23.274999618530273,-5.421000003814697,0.5099999904632568,-9.18000030517578,-0.3440000116825103
1621841246780,-2.869999885559082,23.48200035095215,-5.383999824523926,0.6280000209808348,-9.232999801635742,-0.2739999890327453
1621841246790,-1.0499999523162842,23.68899917602539,-5.3480000495910645,0.5490000247955322,-9.3100004196167,-0.2870000004768371
1621841246800,0.8399999737739563,23.643999099731445,-5.498000144958496,0.5879999995231628,-9.387000083923342,-0.3009999990463256
1621841246810,2.309999942779541,23.530000686645508,-5.659999847412109,0.4709999859333038,-9.39400005340576,-0.2619999945163726
1621841246820,3.009999990463257,23.686500549316406,-5.738999843597412,0.4709999859333038,-9.387000083923342,-0.3009999990463256
1621841246830,3.7100000381469727,23.843000411987305,-5.817999839782715,0.4309999942779541,-9.380000114440918,-0.3400000035762786
1621841246840,5.460000038146973,24.66200065612793,-6.0289998054504395,0.3140000104904174,-9.354999542236328,-0.2549999952316284
1621841246850,7.139999866485596,25.975000381469727,-6.223999977111816,0.2750000059604644,-9.277999877929688,-0.2419999986886978
1621841246860,8.890000343322754,27.395000457763672,-6.61299991607666,0.3140000104904174,-9.194000244140623,-0.2669999897480011
1621841246870,10.779999732971191,28.493999481201172,-5.993000030517578,0.3140000104904174,-9.270999908447264,-0.2800000011920929
1621841246880,12.949999809265137,29.885000228881836,-4.611000061035156,0.4309999942779541,-9.35099983215332,-0.0560000017285346
1621841246890,14.630000114440918,31.089000701904297,-2.9769999980926514,0.3919999897480011,-9.369000434875488,-0.1780000030994415
1621841246900,16.3799991607666,32.444000244140625,-1.3869999647140503,0.4309999942779541,-9.446000099182127,-0.19200000166893
1621841246910,18.270000457763672,32.80500030517578,-0.6129999756813049,0.4709999859333038,-9.562000274658203,-0.2119999974966049
1621841246920,19.18000030517578,33.4900016784668,-0.0649999976158142,0.4709999859333038,-9.645999908447264,-0.1870000064373016
1621841246930,19.600000381469727,33.64400100708008,-0.5360000133514404,0.4709999859333038,-9.697999954223633,-0.1169999986886978
1621841246940,20.09000015258789,33.68899917602539,-1.593999981880188,0.4709999859333038,-9.711999893188477,-0.0399999991059303
1621841246950,20.229999542236328,33.2869987487793,-2.944999933242798,0.4709999859333038,-9.67300033569336,-0.032999999821186
1621841246960,20.719999313354492,33.242000579833984,-4.302999973297119,0.4709999859333038,-9.642000198364256,0.0130000002682209
1621841246970,21.209999084472656,33.2140007019043,-4.947999954223633,0.5099999904632568,-9.609999656677246,0.0579999983310699
1621841246980,21.700000762939453,32.39500045776367,-4.736999988555908,0.5879999995231628,-9.647999763488768,0.0509999990463256
1621841246990,22.190000534057617,31.37700080871582,-4.204999923706055,0.7450000047683715,-9.694000244140623,0.0829999968409538
1621841247000,22.01499938964844,30.493000030517575,-3.8280000686645503,0.7850000262260437,-9.822999954223633,0.1400000005960464
1621841247010,21.84000015258789,29.608999252319336,-3.450999975204468,0.8240000009536743,-9.906999588012695,0.1650000065565109
1621841247020,20.86000061035156,27.459999084472656,-2.549999952316284,0.8240000009536743,-9.88199996948242,0.248999997973442
1621841247030,19.600000381469727,25.457000732421875,-2.4769999980926514,0.8629999756813049,-9.76599979400635,0.2689999938011169
1621841247040,18.969999313354492,23.218000411987305,-3.0850000381469727,0.8240000009536743,-9.696000099182127,0.3219999969005584
1621841247050,18.899999618530273,20.68400001525879,-4.0289998054504395,0.7450000047683715,-9.612000465393066,0.2969999909400939
1621841247060,19.18000030517578,18.63999938964844,-4.5320000648498535,0.7059999704360961,-9.53499984741211,0.3100000023841857
1621841247070,19.809999465942383,17.13599967956543,-4.868000030517578,0.7059999704360961,-9.510000228881836,0.3939999938011169
1621841247080,21.06999969482422,15.642999649047852,-5.27400016784668,0.7450000047683715,-9.579999923706056,0.3420000076293945
1621841247089,21.979999542236328,14.090000152587892,-5.334000110626221,0.7059999704360961,-9.755000114440918,0.4309999942779541
1621841247099,21.700000762939453,12.553999900817873,-4.681000232696533,0.7059999704360961,-9.93000030517578,0.5189999938011169
1621841247109,20.299999237060547,11.279999732971191,-3.91100001335144,0.6669999957084655,-10.065999984741213,0.615000009536743
1621841247119,18.690000534057617,9.503999710083008,-3.513000011444092,0.5879999995231628,-10.034999847412108,0.6600000262260437
1621841247129,17.5,7.611000061035157,-4.059999942779541,0.5490000247955322,-9.96399974822998,0.7129999995231628
1621841247139,16.170000076293945,6.21999979019165,-4.234000205993652,0.5099999904632568,-9.89400005340576,0.7649999856948853
1621841247149,15.81999969482422,5.586999893188477,-4.275000095367432,0.5099999904632568,-9.78499984741211,0.8240000009536743
1621841247159,15.81999969482422,4.460000038146973,-4.330999851226807,0.5099999904632568,-9.746000289916992,0.8309999704360961
1621841247169,15.890000343322754,3.3450000286102295,-5.664999961853027,0.6280000209808348,-9.727999687194824,0.953000009059906
1621841247179,15.715000152587892,2.2335000038146973,-6.216500282287598,0.7850000262260437,-9.668999671936035,0.8439999818801879
1621841247189,15.539999961853027,1.121999979019165,-6.76800012588501,0.981000006198883,-9.585000038146973,0.8190000057220459
1621841247199,15.75,-1.4889999628067017,-6.873000144958496,1.215999960899353,-9.604999542236328,0.9350000023841856
1621841247209,16.239999771118164,-6.565999984741211,-6.702000141143799,1.4119999408721924,-9.513999938964846,0.871999979019165
1621841247219,16.8700008392334,-13.029999732971191,-5.922999858856201,1.491000056266785,-9.437000274658203,0.8849999904632568
1621841247229,17.709999084472656,-19.968000411987305,-6.079999923706055,1.4119999408721924,-9.25100040435791,0.9580000042915344
1621841247239,18.969999313354492,-26.290000915527344,-8.118000030517578,1.3730000257492063,-9.095999717712402,0.9850000143051147
1621841247249,21.0,-31.606000900268555,-11.828000068664553,1.3339999914169312,-9.01900005340576,0.9990000128746032
1621841247259,23.729999542236328,-36.88999938964844,-15.319000244140623,1.3730000257492063,-9.102999687194824,1.02400004863739
1621841247269,25.6200008392334,-41.301998138427734,-17.30500030517578,1.3339999914169312,-9.329999923706056,1.1829999685287476
1621841247279,26.8799991607666,-45.98600006103515,-17.349000930786133,1.3339999914169312,-9.536999702453612,1.22599995136261
1621841247289,26.739999771118164,-50.145999908447266,-16.73200035095215,1.2549999952316284,-9.744000434875488,1.2690000534057615
1621841247299,26.38999938964844,-53.553001403808594,-16.763999938964844,1.1380000114440918,-9.873000144958496,1.3259999752044678
1621841247309,24.989999771118164,-56.61800003051758,-17.51799964904785,1.0980000495910645,-9.96399974822998,1.3899999856948853
1621841247319,23.3799991607666,-59.12799835205078,-17.392000198364258,0.9020000100135804,-9.996000289916992,1.343999981880188
1621841247329,21.13999938964844,-60.10100173950195,-16.709999084472656,0.7450000047683715,-10.100000381469728,1.4850000143051147
1621841247339,17.780000686645508,-60.29999923706055,-15.182000160217283,0.5879999995231628,-10.237000465393066,1.5809999704360962
1621841247349,14.279999732971191,-58.58000183105469,-14.45199966430664,0.4309999942779541,-10.41800022125244,1.7079999446868896
1621841247359,10.010000228881836,-56.61399841308594,-14.317999839782717,0.3140000104904174,-10.54800033569336,1.7649999856948853
1621841247369,7.80500030517578,-55.08100128173828,-13.941499710083008,0.1959999948740005,-10.645999908447266,1.8669999837875368
1621841247379,5.599999904632568,-53.54800033569336,-13.5649995803833,0.1959999948740005,-10.76200008392334,1.8470000028610227
1621841247389,0.7699999809265136,-49.935001373291016,-12.288000106811523,0.2349999994039535,-10.954999923706056,1.812999963760376
1621841247399,-5.53000020980835,-46.23199844360352,-10.711000442504885,0.2349999994039535,-11.130000114440918,1.9010000228881836
1621841247409,-12.18000030517578,-42.87900161743164,-8.769000053405762,0.2349999994039535,-11.251999855041504,1.919000029563904
1621841247419,-19.670000076293945,-40.06800079345703,-7.776000022888184,0.2750000059604644,-11.343000411987305,1.9830000400543213
1621841247429,-26.950000762939453,-37.03499984741211,-7.241000175476073,0.3140000104904174,-11.27299976348877,2.0350000858306885
1621841247439,-34.02000045776367,-34.979000091552734,-6.808000087738037,0.3919999897480011,-11.041000366210936,2.075999975204468
1621841247449,-40.11000061035156,-32.8380012512207,-6.855999946594238,0.4309999942779541,-10.859000205993652,1.9490000009536743
1621841247459,-45.0099983215332,-30.312000274658203,-6.269000053405762,0.4309999942779541,-10.76200008392334,1.8470000028610227
1621841247469,-49.630001068115234,-28.06100082397461,-5.730000019073486,0.3919999897480011,-10.79300022125244,1.8009999990463257
1621841247479,-54.7400016784668,-25.785999298095703,-5.328999996185303,0.3919999897480011,-10.656999588012695,1.7059999704360962
1621841247489,-58.380001068115234,-23.555999755859375,-6.285999774932861,0.3919999897480011,-10.54599952697754,1.5260000228881836
1621841247499,-60.7599983215332,-21.406999588012695,-7.186999797821045,0.3919999897480011,-10.395999908447266,1.3530000448226929
1621841247509,-63.06999969482422,-18.81599998474121,-7.368999958038329,0.4709999859333038,-10.29800033569336,1.2510000467300415
1621841247519,-64.95999908447266,-16.548999786376953,-6.117000102996826,0.4709999859333038,-10.04599952697754,1.1759999990463257
1621841247529,-65.80000305175781,-15.048999786376951,-5.355000019073486,0.5490000247955322,-9.727999687194824,0.953000009059906
1621841247539,-64.95999908447266,-13.609000205993652,-5.455999851226807,0.5490000247955322,-9.585000038146973,0.8190000057220459
1621841247549,-63.279998779296875,-12.10099983215332,-5.546000003814697,0.5490000247955322,-9.4350004196167,0.6470000147819519
1621841247559,-62.61499786376953,-11.332500457763672,-5.872499942779541,0.5490000247955322,-9.322999954223633,0.4670000076293945
1621841247569,-61.95000076293945,-10.564000129699709,-6.198999881744385,0.5490000247955322,-9.277999877929688,0.4350000023841857
1621841247579,-60.27000045776367,-9.210000038146973,-7.026000022888184,0.5490000247955322,-9.17300033569336,0.2939999997615814
1621841247589,-58.099998474121094,-8.302000045776367,-8.145000457763672,0.5879999995231628,-9.029999732971191,0.1599999964237213
1621841247599,-54.880001068115234,-7.235000133514405,-8.95199966430664,0.5490000247955322,-8.88700008392334,0.0260000005364418
1621841247609,-51.029998779296875,-6.703999996185303,-9.142999649047852,0.5879999995231628,-8.699000358581543,-0.1400000005960464
1621841247619,-46.689998626708984,-6.169000148773193,-8.550999641418457,0.6280000209808348,-8.548999786376953,-0.3120000064373016
1621841247629,-41.439998626708984,-5.0980000495910645,-8.576000213623047,0.6280000209808348,-8.444000244140625,-0.453000009059906
1621841247639,-35.70000076293945,-3.7279999256134033,-8.689000129699707,0.6280000209808348,-8.423999786376953,-0.5690000057220459
1621841247649,-29.81999969482422,-2.377000093460083,-9.090999603271484,0.6669999957084655,-8.449000358581543,-0.652999997138977
1621841247659,-24.36000061035156,-1.0470000505447388,-8.571999549865723,0.7059999704360961,-8.51200008392334,-0.7440000176429749
1621841247669,-19.040000915527344,-0.3740000128746032,-7.955999851226807,0.7059999704360961,-8.460000038146973,-0.8149999976158142
1621841247679,-13.300000190734863,0.1449999958276748,-8.07800006866455,0.7450000047683715,-8.45300006866455,-0.8529999852180481
1621841247689,-7.0,1.2109999656677246,-7.676000118255616,0.7450000047683715,-8.446000099182129,-0.8920000195503234
1621841247699,-0.699999988079071,2.075000047683716,-6.5289998054504395,0.7850000262260437,-8.505000114440918,-0.7829999923706054
1621841247709,5.110000133514404,2.5420000553131104,-5.948999881744385,0.7450000047683715,-8.536999702453613,-0.828000009059906
1621841247719,10.56999969482422,4.03000020980835,-6.326000213623047,0.6669999957084655,-8.536999702453613,-0.828000009059906
1621841247729,15.68000030517578,5.784999847412109,-7.01200008392334,0.6280000209808348,-8.491999626159668,-0.8600000143051147
1621841247739,18.375,6.314499855041504,-6.989500045776367,0.7059999704360961,-8.536999702453613,-0.828000009059906
1621841247749,21.06999969482422,6.843999862670898,-6.9670000076293945,0.7850000262260437,-8.782999992370605,-0.7919999957084655
1621841247759,25.969999313354492,7.686999797821045,-6.107999801635742,0.8240000009536743,-9.0600004196167,-0.8009999990463256
1621841247769,29.75,8.373000144958496,-4.3520002365112305,0.8629999756813049,-9.312000274658203,-0.7260000109672546
1621841247779,32.20000076293945,9.123000144958496,-2.1589999198913574,0.8240000009536743,-9.402999877929688,-0.662000000476837
1621841247789,33.95000076293945,9.220999717712402,-1.5019999742507937,0.7850000262260437,-9.416999816894531,-0.5849999785423278
1621841247799,35.0,9.128000259399414,-1.3760000467300415,0.7450000047683715,-9.352999687194824,-0.4939999878406524
1621841247809,35.77000045776367,9.491999626159668,-2.236000061035156,0.7450000047683715,-9.282999992370604,-0.44200000166893
1621841247819,37.380001068115234,9.541000366210936,-2.510999917984009,0.7850000262260437,-9.359999656677246,-0.4550000131130218
1621841247829,39.130001068115234,10.631999969482422,-2.247999906539917,0.9020000100135804,-9.637000083923342,-0.4639999866485595
1621841247839,39.900001525878906,11.350000381469728,-1.4819999933242798,0.9409999847412108,-9.972999572753906,-0.363999992609024
1621841247849,39.27000045776367,10.85099983215332,-1.0720000267028809,1.0199999809265137,-10.154999732971191,-0.2370000034570694
1621841247859,36.470001220703125,9.39099979400635,-1.2580000162124634,1.0590000152587893,-10.104999542236328,-0.0689999982714653
1621841247869,33.18000030517578,6.88100004196167,-2.3410000801086426,0.981000006198883,-9.96399974822998,0.0350000001490116
1621841247879,31.149999618530273,4.10699987411499,-3.5409998893737793,1.0199999809265137,-9.791000366210936,0.1850000023841857
1621841247889,30.239999771118164,2.431999921798706,-4.119999885559082,0.981000006198883,-9.656999588012695,0.3289999961853027
1621841247899,30.239999771118164,1.381999969482422,-3.8080000877380367,0.8629999756813049,-9.51599979400635,0.4329999983310699
1621841247909,31.010000228881836,0.3889999985694885,-4.623000144958496,0.7450000047683715,-9.401000022888184,0.4539999961853027
1621841247919,32.7599983215332,0.0680000036954879,-6.03000020980835,0.6280000209808348,-9.322999954223633,0.4670000076293945
1621841247929,34.720001220703125,0.1369999945163726,-7.22599983215332,0.6280000209808348,-9.322999954223633,0.4670000076293945
1621841247939,35.630001068115234,0.6639999747276306,-7.595000267028808,0.5879999995231628,-9.477999687194824,0.4399999976158142
1621841247949,36.540000915527344,1.1909999847412107,-7.96400022506714,0.5879999995231628,-9.729999542236328,0.5149999856948853
1621841247959,37.380001068115234,2.4560000896453857,-7.882999897003175,0.5879999995231628,-9.949999809265137,0.6349999904632568
1621841247969,36.75,3.2829999923706055,-7.736999988555909,0.5879999995231628,-10.079999923706056,0.6919999718666076
1621841247979,35.06999969482422,3.50600004196167,-8.196000099182129,0.6280000209808348,-10.178000450134276,0.7940000295639038
1621841247989,32.83000183105469,3.7460000514984126,-9.14900016784668,0.6280000209808348,-10.215999603271484,0.7879999876022338
1621841247999,30.030000686645508,3.4210000038146973,-10.130000114440918,0.6280000209808348,-10.215999603271484,0.7879999876022338
1621841248009,27.790000915527344,3.5910000801086426,-9.887000083923342,0.7059999704360961,-10.159000396728516,0.9169999957084656
1621841248019,25.270000457763672,3.5829999446868896,-9.03499984741211,0.7450000047683715,-10.17300033569336,0.9940000176429749
1621841248029,22.75,3.377000093460083,-9.071000099182127,0.7850000262260437,-10.071000099182127,1.0920000076293943
1621841248039,20.229999542236328,2.7799999713897705,-9.319000244140623,0.8240000009536743,-10.006999969482422,1.1829999685287476
1621841248049,18.270000457763672,2.436000108718872,-9.380000114440918,0.7850000262260437,-9.975000381469728,1.2280000448226929
1621841248059,17.010000228881836,1.7059999704360962,-8.869000434875488,0.7850000262260437,-9.982000350952148,1.2669999599456787
1621841248069,15.329999923706056,1.7949999570846558,-8.567999839782715,0.7850000262260437,-10.027999877929688,1.2990000247955322
1621841248079,14.0,1.531999945640564,-8.685999870300293,0.7059999704360961,-10.034000396728516,1.3380000591278076
1621841248089,12.880000114440918,1.5679999589920044,-8.892999649047852,0.7059999704360961,-9.996000289916992,1.343999981880188
1621841248099,11.199999809265137,1.9290000200271609,-9.32699966430664,0.7059999704360961,-9.95699977874756,1.35099995136261
1621841248109,9.65999984741211,2.4110000133514404,-9.241999626159668,0.7059999704360961,-10.041000366210936,1.3760000467300415
1621841248119,8.329999923706055,2.881999969482422,-9.088000297546388,0.7059999704360961,-10.008999824523926,1.4220000505447388
1621841248129,7.070000171661377,3.1489999294281006,-9.395999908447264,0.7450000047683715,-9.932000160217283,1.434999942779541
1621841248139,6.545000076293945,3.378499984741211,-9.284500122070312,0.7450000047683715,-9.918999671936035,1.3580000400543213
1621841248149,6.019999980926514,3.6080000400543217,-9.17300033569336,0.7450000047683715,-9.887000083923342,1.4029999971389773
1621841248159,4.96999979019165,3.513999938964844,-9.046999931335447,0.7450000047683715,-9.809000015258787,1.4170000553131104
1621841248169,4.340000152587891,3.7049999237060542,-8.515999794006348,0.7450000047683715,-9.815999984741213,1.4559999704360962
1621841248179,3.849999904632568,4.301000118255615,-8.269000053405762,0.7450000047683715,-9.770999908447264,1.4240000247955322
1621841248189,3.2899999618530273,4.815999984741211,-7.9650001525878915,0.7059999704360961,-9.725000381469728,1.3919999599456787
1621841248199,2.799999952316284,4.896999835968018,-8.020999908447266,0.7450000047683715,-9.68000030517578,1.3600000143051147
1621841248209,2.6600000858306885,5.623000144958496,-8.107000350952148,0.7450000047683715,-9.68000030517578,1.3600000143051147
1621841248219,2.1700000762939453,5.448999881744385,-7.923999786376954,0.7450000047683715,-9.67300033569336,1.3220000267028809
1621841248229,2.0299999713897705,5.699999809265137,-7.737999916076661,0.7450000047683715,-9.67300033569336,1.3220000267028809
1621841248239,2.240000009536743,6.017000198364258,-7.11299991607666,0.7850000262260437,-9.635000228881836,1.3279999494552612
1621841248249,1.8899999856948853,6.438000202178955,-6.684000015258789,0.7450000047683715,-9.687000274658203,1.39900004863739
1621841248259,1.8200000524520872,6.426000118255615,-6.614999771118164,0.8240000009536743,-9.647999763488768,1.406000018119812
1621841248269,1.75,6.276000022888184,-6.570000171661377,0.9020000100135804,-9.64099979400635,1.3669999837875366
1621841248279,2.0299999713897705,6.263999938964844,-6.500999927520752,0.9409999847412108,-9.647999763488768,1.406000018119812
1621841248289,2.0299999713897705,6.459000110626221,-6.395999908447266,0.9020000100135804,-9.647999763488768,1.406000018119812
1621841248299,2.0299999713897705,5.59499979019165,-6.335000038146973,0.9020000100135804,-9.647999763488768,1.406000018119812
1621841248309,2.1700000762939453,5.428999900817871,-7.004000186920166,0.9020000100135804,-9.609999656677246,1.4119999408721924
1621841248319,2.0299999713897705,4.85699987411499,-7.388999938964843,0.9020000100135804,-9.602999687194824,1.3739999532699585
1621841248329,2.240000009536743,4.5320000648498535,-7.1620001792907715,0.8629999756813049,-9.571000099182127,1.4190000295639038
1621841248339,2.1700000762939453,4.199999809265137,-7.290999889373779,0.8629999756813049,-9.571000099182127,1.4190000295639038
1621841248349,2.450000047683716,4.442999839782715,-7.461999893188477,0.9020000100135804,-9.609999656677246,1.4119999408721924
1621841248359,2.3450000286102295,4.49399995803833,-7.3464999198913565,0.8629999756813049,-9.732000350952148,1.430999994277954
1621841248369,2.240000009536743,4.545000076293945,-7.230999946594238,0.8629999756813049,-9.694000244140623,1.437000036239624
1621841248379,1.4700000286102295,4.256999969482422,-7.210000038146973,0.7850000262260437,-9.732000350952148,1.430999994277954
1621841248389,0.9100000262260436,3.7739999294281006,-7.295000076293945,0.7450000047683715,-9.647999763488768,1.406000018119812
1621841248399,0.7699999809265136,3.8919999599456783,-7.559000015258789,0.7450000047683715,-9.711999893188477,1.315000057220459
1621841248409,0.8399999737739563,4.609000205993652,-8.00100040435791,0.7450000047683715,-9.67300033569336,1.3220000267028809
1621841248419,0.6299999952316284,4.735000133514404,-7.907999992370605,0.7450000047683715,-9.609999656677246,1.4119999408721924
1621841248429,0.5600000023841857,5.056000232696533,-7.709000110626221,0.7850000262260437,-9.616000175476074,1.4509999752044678
1621841248439,0.4900000095367431,5.769000053405762,-7.72599983215332,0.7850000262260437,-9.654999732971191,1.444000005722046
1621841248449,0.0700000002980232,6.353000164031982,-7.4089999198913565,0.7850000262260437,-9.654999732971191,1.444000005722046
1621841248459,-0.0700000002980232,6.880000114440918,-7.173999786376953,0.7850000262260437,-9.623000144958496,1.4900000095367432
1621841248469,-0.209999993443489,7.074999809265137,-7.068999767303467,0.7850000262260437,-9.616000175476074,1.4509999752044678
1621841248479,-0.4900000095367431,7.460000038146973,-7.640999794006347,0.8240000009536743,-9.623000144958496,1.4900000095367432
1621841248489,-0.5600000023841857,7.359000205993653,-7.872000217437744,0.8629999756813049,-9.585000038146973,1.496999979019165
1621841248499,-0.3499999940395355,6.925000190734863,-7.02400016784668,0.8629999756813049,-9.538999557495115,1.4650000333786013
1621841248509,0.0700000002980232,6.843999862670898,-6.9670000076293945,0.9020000100135804,-9.54599952697754,1.503000020980835
1621841248519,0.4199999868869781,6.271999835968018,-7.353000164031982,0.9020000100135804,-9.538999557495115,1.4650000333786013
1621841248529,0.7699999809265136,5.849999904632568,-7.782000064849853,0.9020000100135804,-9.50699996948242,1.5099999904632568
1621841248539,1.1200000047683716,5.254000186920166,-8.029999732971191,0.9020000100135804,-9.50699996948242,1.5099999904632568
1621841248549,1.4700000286102295,5.4039998054504395,-8.074000358581543,0.9020000100135804,-9.553000450134276,1.5420000553131104
1621841248559,1.75,5.468999862670898,-7.636000156402587,0.9020000100135804,-9.623000144958496,1.4900000095367432
1621841248569,1.6799999475479126,5.363999843597412,-7.441999912261963,0.9409999847412108,-9.623000144958496,1.4900000095367432
1621841248579,1.5049999952316284,5.432999610900879,-7.429499626159668,0.9409999847412108,-9.699999809265137,1.47599995136261
1621841248589,1.3300000429153442,5.501999855041504,-7.416999816894531,0.981000006198883,-9.777999877929688,1.462000012397766
1621841248599,0.8399999737739563,5.383999824523926,-7.1539998054504395,0.9409999847412108,-9.784000396728516,1.5010000467300415
1621841248609,0.0700000002980232,4.796000003814697,-7.044000148773193,0.981000006198883,-9.746000289916992,1.5080000162124634
1621841248619,-0.4900000095367431,5.072000026702881,-6.995999813079834,0.9409999847412108,-9.668999671936035,1.5219999551773071
1621841248629,-1.3300000429153442,4.841000080108643,-6.894000053405762,0.9020000100135804,-9.668999671936035,1.5219999551773071
1621841248639,-1.6799999475479126,4.678999900817871,-6.781000137329102,0.9409999847412108,-9.70699977874756,1.5149999856948853
1621841248649,-2.1700000762939453,4.803999900817871,-6.686999797821045,0.9020000100135804,-9.753000259399414,1.5470000505447388
1621841248659,-2.869999885559082,4.921999931335449,-6.951000213623047,0.9020000100135804,-9.746000289916992,1.5080000162124634
1621841248669,-3.9200000762939458,4.322000026702881,-6.771999835968018,0.8629999756813049,-9.73900032043457,1.468999981880188
1621841248679,-4.199999809265137,4.841000080108643,-6.894000053405762,0.8629999756813049,-9.687000274658203,1.39900004863739
1621841248688,-4.269999980926514,4.622000217437744,-6.861999988555908,0.8629999756813049,-9.623000144958496,1.4900000095367432
1621841248698,-4.059999942779541,4.6539998054504395,-6.64300012588501,0.8629999756813049,-9.57800006866455,1.4579999446868896
1621841248708,-3.7100000381469727,4.698999881744385,-6.493000030517578,0.8629999756813049,-9.538999557495115,1.4650000333786013
1621841248719,-3.2899999618530273,4.791999816894531,-6.618000030517578,0.9020000100135804,-9.57800006866455,1.4579999446868896
1621841248728,-3.359999895095825,4.642000198364258,-6.573999881744385,0.9020000100135804,-9.609999656677246,1.4119999408721924
1621841248738,-3.2200000286102295,4.241000175476074,-6.716000080108643,0.9409999847412108,-9.609999656677246,1.4119999408721924
1621841248748,-3.009999990463257,4.09499979019165,-7.0970001220703125,0.9409999847412108,-9.571000099182127,1.4190000295639038
1621841248758,-2.6600000858306885,3.7049999237060542,-7.308000087738037,0.9020000100135804,-9.564000129699709,1.38100004196167
1621841248768,-2.450000047683716,3.177999973297119,-7.543000221252441,0.9020000100135804,-9.564000129699709,1.38100004196167
1621841248778,-1.9600000381469729,2.934999942779541,-7.372000217437744,0.9020000100135804,-9.472999572753906,1.3170000314712524
1621841248788,-1.2599999904632568,3.1500000953674316,-6.979000091552734,0.9020000100135804,-9.472999572753906,1.3170000314712524
1621841248798,-0.699999988079071,3.413000106811523,-6.861999988555908,0.8629999756813049,-9.524999618530272,1.3869999647140503
1621841248808,-0.0700000002980232,3.0969998836517334,-6.2779998779296875,0.8629999756813049,-9.550000190734863,1.3029999732971191
1621841248818,0.2450000047683715,2.930999994277954,-6.342499732971191,0.8629999756813049,-9.57800006866455,1.4579999446868896
1621841248828,0.5600000023841857,2.765000104904175,-6.4070000648498535,0.8629999756813049,-9.524999618530272,1.3869999647140503
1621841248838,0.9100000262260436,2.74399995803833,-6.695000171661377,0.8629999756813049,-9.487000465393066,1.3940000534057615
1621841248848,1.5399999618530271,2.950999975204468,-6.658999919891357,0.8629999756813049,-9.440999984741213,1.3619999885559082
1621841248858,2.5899999141693115,2.865999937057495,-6.176000118255615,0.8629999756813049,-9.440999984741213,1.3619999885559082
1621841248868,3.6400001049041744,2.9590001106262207,-6.302000045776367,0.8240000009536743,-9.324999809265137,1.3830000162124634
1621841248878,5.110000133514404,3.194000005722046,-6.828999996185303,0.8240000009536743,-9.324999809265137,1.3830000162124634
1621841248888,6.159999847412109,3.0439999103546143,-6.783999919891357,0.9020000100135804,-9.395999908447264,1.3309999704360962
1621841248898,6.579999923706055,3.499000072479248,-6.136000156402588,0.9409999847412108,-9.711999893188477,1.315000057220459
1621841248908,5.949999809265137,3.3239998817443848,-5.953000068664551,0.9020000100135804,-9.833999633789062,1.3329999446868896
1621841248918,4.900000095367432,2.752000093460083,-6.3379998207092285,0.9409999847412108,-9.847999572753906,1.4099999666213987
1621841248928,4.059999942779541,2.197000026702881,-7.217999935150147,0.9020000100135804,-9.784000396728516,1.5010000467300415
1621841248938,2.940000057220459,1.1419999599456787,-7.688000202178955,0.9409999847412108,-9.699999809265137,1.47599995136261
1621841248948,2.6600000858306885,0.8100000023841857,-7.817999839782715,0.9020000100135804,-9.57800006866455,1.4579999446868896
1621841248958,2.940000057220459,0.7009999752044677,-7.197999954223633,0.8629999756813049,-9.538999557495115,1.4650000333786013
1621841248968,3.359999895095825,0.8019999861717224,-6.9670000076293945,0.8240000009536743,-9.5,1.4720000028610227
1621841248978,4.269999980926514,1.4470000267028809,-6.994999885559082,0.7850000262260437,-9.385000228881836,1.4919999837875366
1621841248988,5.389999866485596,1.9329999685287476,-7.335999965667725,0.7850000262260437,-9.385000228881836,1.4919999837875366
1621841248998,6.440000057220459,2.9670000076293945,-7.1529998779296875,0.7850000262260437,-9.378000259399414,1.4529999494552612
1621841249008,7.420000076293945,3.7300000190734863,-7.445000171661377,0.7850000262260437,-9.378000259399414,1.4529999494552612
1621841249018,8.470000267028809,3.9570000171661377,-7.120999813079834,0.7450000047683715,-9.371000289916992,1.4149999618530271
1621841249028,9.100000381469728,4.618000030517578,-6.435999870300293,0.7450000047683715,-9.454999923706056,1.440000057220459
1621841249038,10.010000228881836,5.550000190734863,-6.485000133514404,0.7850000262260437,-9.494000434875488,1.4329999685287476
1621841249048,10.149999618530272,5.617000102996826,-6.86400032043457,0.7850000262260437,-9.571000099182127,1.4190000295639038
1621841249058,10.289999961853027,5.684000015258789,-7.243000030517577,0.8629999756813049,-9.647999763488768,1.406000018119812
1621841249068,10.149999618530272,5.826000213623047,-7.644000053405762,0.9020000100135804,-9.73900032043457,1.468999981880188
1621841249078,9.520000457763674,5.679999828338623,-8.026000022888184,1.0590000152587893,-9.875,1.565000057220459
1621841249088,8.399999618530273,5.25,-7.604000091552734,1.0199999809265137,-9.934000015258787,1.6740000247955322
1621841249098,6.789999961853027,4.625999927520752,-7.2870001792907715,1.0199999809265137,-9.934000015258787,1.6740000247955322
1621841249108,5.460000038146973,4.15500020980835,-7.440999984741211,1.0590000152587893,-9.819000244140623,1.694000005722046
1621841249118,4.199999809265137,3.121000051498413,-7.624000072479248,1.0590000152587893,-9.708999633789062,1.753000020980835
1621841249128,3.7100000381469727,2.4200000762939453,-7.676000118255616,0.981000006198883,-9.663999557495115,1.7220000028610227
1621841249138,3.569999933242798,1.937000036239624,-6.552999973297119,0.9409999847412108,-9.663999557495115,1.7220000028610227
1621841249148,3.0799999237060547,1.8519999980926511,-6.071000099182129,0.9020000100135804,-9.70300006866455,1.7150000333786013
1621841249158,2.240000009536743,1.99399995803833,-6.4720001220703125,0.9409999847412108,-9.741000175476074,1.7079999446868896
1621841249168,1.2599999904632568,2.111999988555908,-6.736000061035156,0.8629999756813049,-9.779999732971191,1.7009999752044678
1621841249178,0.699999988079071,2.447999954223633,-7.0320000648498535,0.8629999756813049,-9.772999763488768,1.6619999408721924
1621841249188,-0.0700000002980232,2.4519999027252197,-6.249000072479248,0.9020000100135804,-9.779999732971191,1.7009999752044678
1621841249198,-0.9800000190734864,2.885999917984009,-5.888000011444092,0.8629999756813049,-9.741000175476074,1.7079999446868896
1621841249208,-1.3300000429153442,3.243000030517578,-5.895999908447266,0.8629999756813049,-9.70300006866455,1.7150000333786013
1621841249218,-1.75,2.9670000076293945,-5.945000171661377,0.9020000100135804,-9.722999572753906,1.830999970436096
1621841249228,-2.309999942779541,3.0,-5.72599983215332,0.9409999847412108,-9.793999671936035,1.7779999971389773
1621841249238,-3.2899999618530273,3.0450000762939453,-5.576000213623047,0.9020000100135804,-9.741000175476074,1.7079999446868896
1621841249248,-3.569999933242798,2.680000066757202,-5.925000190734863,0.8629999756813049,-9.741000175476074,1.7079999446868896
1621841249258,-3.990000009536743,2.7039999961853027,-6.063000202178955,0.8629999756813049,-9.755000114440918,1.7849999666213987
1621841249268,-4.760000228881836,2.8459999561309814,-6.464000225067139,0.8629999756813049,-9.793999671936035,1.7779999971389773
1621841249278,-5.18000030517578,2.736500024795532,-6.447999954223633,0.8629999756813049,-9.708999633789062,1.753000020980835
1621841249288,-5.599999904632568,2.627000093460083,-6.432000160217285,0.8629999756813049,-9.586999893188477,1.7350000143051147
1621841249298,-5.880000114440918,2.687999963760376,-6.776000022888184,0.8240000009536743,-9.579999923706056,1.6959999799728394
1621841249308,-5.53000020980835,2.75600004196167,-6.763999938964844,0.8240000009536743,-9.534000396728516,1.6649999618530271
1621841249318,-5.460000038146973,3.3970000743865967,-6.367000102996826,0.8240000009536743,-9.482000350952148,1.593999981880188
1621841249328,-5.179999828338623,3.624000072479248,-6.041999816894531,0.8629999756813049,-9.520999908447264,1.587000012397766
1621841249338,-4.900000095367432,3.7780001163482666,-6.513000011444092,0.8629999756813049,-9.559000015258787,1.5809999704360962
1621841249348,-5.039999961853027,3.688999891281128,-6.813000202178955,0.9020000100135804,-9.597999572753906,1.5740000009536743
1621841249358,-4.96999979019165,3.822999954223633,-7.57100009918213,0.9020000100135804,-9.565999984741213,1.61899995803833
1621841249368,-4.760000228881836,3.3559999465942383,-8.151000022888184,0.9020000100135804,-9.482000350952148,1.593999981880188
1621841249378,-4.199999809265137,3.2709999084472656,-8.876999855041504,0.8629999756813049,-9.482000350952148,1.593999981880188
1621841249388,-3.9200000762939458,3.1449999809265137,-8.970000267028809,0.8629999756813049,-9.449999809265137,1.6399999856948853
1621841249398,-3.359999895095825,2.759999990463257,-8.39799976348877,0.8629999756813049,-9.527999877929688,1.6260000467300415
1621841249408,-3.2200000286102295,2.878000020980835,-8.661999702453613,0.8240000009536743,-9.572999954223633,1.6579999923706057
1621841249418,-3.009999990463257,3.555000066757202,-8.470999717712402,0.8629999756813049,-9.604999542236328,1.6119999885559082
1621841249428,-3.6400001049041744,3.79800009727478,-8.642000198364258,0.8629999756813049,-9.64400005340576,1.6059999465942385
1621841249438,-3.990000009536743,4.2769999504089355,-9.33899974822998,0.9020000100135804,-9.720999717712402,1.5920000076293943
1621841249448,-4.760000228881836,4.747000217437744,-9.1850004196167,0.981000006198883,-9.913999557495115,1.5579999685287476
1621841249458,-6.510000228881836,4.670000076293945,-8.345999717712402,0.981000006198883,-10.069000244140623,1.531000018119812
1621841249468,-9.239999771118164,4.296999931335449,-7.842999935150147,1.0199999809265137,-10.300000190734863,1.4900000095367432
1621841249478,-13.090000152587892,3.486000061035156,-7.275000095367432,1.0980000495910645,-10.538999557495115,1.4880000352859497
1621841249488,-18.059999465942383,2.7039999961853027,-7.270999908447266,1.0980000495910645,-10.71399974822998,1.5759999752044678
1621841249498,-24.010000228881836,1.5759999752044678,-7.328000068664551,1.0980000495910645,-10.77299976348877,1.684999942779541
1621841249508,-26.739999771118164,1.0469999313354492,-7.350000381469727,1.1380000114440918,-10.70199966430664,1.7380000352859497
1621841249518,-29.469999313354492,0.5180000066757202,-7.372000217437744,1.215999960899353,-10.54800033569336,1.7649999856948853
1621841249528,-33.95000076293945,-0.3659999966621398,-7.598999977111816,1.1770000457763672,-10.38700008392334,1.753000020980835
1621841249538,-37.380001068115234,-1.1080000400543213,-7.019000053405762,1.215999960899353,-10.328000068664553,1.6440000534057615
1621841249548,-40.18000030517578,-1.7970000505447388,-7.140999794006348,1.1770000457763672,-10.274999618530272,1.5740000009536743
1621841249558,-42.84000015258789,-2.6570000648498535,-7.505000114440918,1.1770000457763672,-10.267999649047852,1.5349999666213987
1621841249568,-45.63999938964844,-3.500999927520752,-8.364999771118164,1.0980000495910645,-10.255000114440918,1.4579999446868896
1621841249578,-48.5099983215332,-4.255000114440918,-8.923999786376953,1.0980000495910645,-10.093999862670898,1.4470000267028809
1621841249588,-50.33000183105469,-4.75,-8.940999984741211,1.0590000152587893,-9.873000144958496,1.3259999752044678
1621841249598,-51.16999816894531,-4.818999767303467,-8.95300006866455,0.981000006198883,-9.774999618530272,1.2239999771118164
1621841249608,-51.2400016784668,-4.340000152587891,-8.442000389099121,0.9020000100135804,-9.619000434875488,1.0130000114440918
1621841249618,-50.88999938964844,-3.663000106811523,-8.25100040435791,0.9020000100135804,-9.590999603271484,0.8579999804496765
1621841249628,-50.61000061035156,-2.871999979019165,-7.89900016784668,0.9020000100135804,-9.647999763488768,0.7279999852180481
1621841249638,-50.75,-1.8179999589920044,-7.427999973297118,0.9409999847412108,-9.64099979400635,0.6899999976158142
1621841249648,-50.470001220703125,-1.9149999618530271,-6.876999855041504,0.9409999847412108,-9.543999671936035,0.5879999995231628
1621841249658,-50.2599983215332,-1.7970000505447388,-5.932000160217285,0.981000006198883,-9.37600040435791,0.5379999876022338
1621841249668,-48.93000030517578,-1.5290000438690186,-5.0320000648498535,0.981000006198883,-9.3100004196167,0.3899999856948852
1621841249678,-46.54999923706055,-1.5700000524520874,-4.39900016784668,0.9409999847412108,-9.281999588012695,0.2349999994039535
1621841249688,-44.59000015258789,-1.7890000343322754,-4.367000102996826,0.9409999847412108,-9.378000259399414,0.0989999994635581
1621841249698,-42.90999984741211,-1.6920000314712524,-4.918000221252441,0.9409999847412108,-9.40999984741211,0.0540000014007091
1621841249708,-41.650001525878906,-1.6349999904632568,-6.046000003814697,0.9409999847412108,-9.35099983215332,-0.0560000017285346
1621841249718,-39.83000183105469,-1.753000020980835,-6.991000175476074,0.9020000100135804,-9.175999641418455,-0.1439999938011169
1621841249728,-38.43000030517578,-1.3880000114440918,-7.246500015258789,0.9409999847412108,-9.161999702453612,-0.221000000834465
1621841249738,-37.029998779296875,-1.0230000019073486,-7.501999855041504,0.9020000100135804,-9.026000022888184,-0.31700000166893
1621841249748,-34.22999954223633,-0.5849999785423278,-7.566999912261963,0.9409999847412108,-8.946000099182129,-0.5419999957084655
1621841249758,-30.65999984741211,0.1609999984502792,-7.363999843597413,0.9020000100135804,-8.95300006866455,-0.5030000209808348
1621841249768,-27.440000534057617,0.5540000200271606,-7.578999996185303,0.9409999847412108,-9.062000274658203,-0.5619999766349792
1621841249778,-24.709999084472656,0.944000005722046,-7.368000030517577,0.981000006198883,-9.138999938964846,-0.5759999752044677
1621841249788,-22.190000534057617,1.6449999809265137,-7.315000057220459,0.981000006198883,-9.217000007629396,-0.5899999737739563
1621841249798,-20.229999542236328,1.7100000381469729,-6.877999782562256,1.0199999809265137,-9.286999702453612,-0.6420000195503234
1621841249808,-18.760000228881836,1.3090000152587893,-5.810999870300293,1.0199999809265137,-9.248000144958496,-0.6349999904632568
1621841249818,-16.8700008392334,0.8669999837875366,-5.320000171661377,0.981000006198883,-9.163999557495115,-0.6600000262260437
1621841249828,-14.909999847412108,0.8140000104904174,-4.61899995803833,0.9409999847412108,-9.112000465393066,-0.7300000190734863
1621841249838,-12.25,0.9120000004768372,-3.961999893188477,0.9020000100135804,-9.14400005340576,-0.7760000228881835
1621841249848,-9.380000114440918,1.0210000276565552,-3.374000072479248,0.9020000100135804,-9.14400005340576,-0.7760000228881835
1621841249858,-6.440000057220459,1.3580000400543213,-3.6700000762939458,0.8629999756813049,-9.0600004196167,-0.8009999990463256
1621841249868,-3.5,2.2260000705718994,-4.1570000648498535,0.8240000009536743,-8.98900032043457,-0.7490000128746032
1621841249878,0.1400000005960464,2.380000114440918,-4.626999855041504,0.7850000262260437,-8.944000244140625,-0.7799999713897705
1621841249888,3.430000066757202,2.865999937057495,-4.9679999351501465,0.7450000047683715,-8.944000244140625,-0.7799999713897705
1621841249898,7.139999866485596,3.510999917984009,-4.995999813079834,0.7850000262260437,-9.053000450134276,-0.8399999737739563
1621841249908,10.289999961853027,4.361999988555908,-4.98799991607666,0.8240000009536743,-9.253000259399414,-0.8349999785423278
1621841249918,12.18000030517578,4.986999988555908,-5.304999828338623,0.8629999756813049,-9.407999992370604,-0.8619999885559082
1621841249928,12.390000343322754,4.841000080108643,-5.685999870300293,0.9020000100135804,-9.491999626159668,-0.8370000123977661
1621841249938,12.565000534057615,4.352499961853027,-5.736499786376953,0.9020000100135804,-9.467000007629396,-0.7530000209808348
1621841249948,12.739999771118164,3.864000082015991,-5.7870001792907715,0.9020000100135804,-9.388999938964846,-0.7390000224113464
1621841249958,13.4399995803833,3.4179999828338623,-6.078999996185303,0.8240000009536743,-9.234999656677246,-0.7120000123977661
1621841249968,15.119999885559082,2.7809998989105225,-5.693999767303467,0.8629999756813049,-9.119000434875488,-0.6919999718666076
1621841249978,17.079999923706055,2.4649999141693115,-5.110000133514404,0.8240000009536743,-9.093999862670898,-0.6079999804496765
1621841249988,19.600000381469727,2.2780001163482666,-4.857999801635742,0.7450000047683715,-9.02400016784668,-0.5550000071525573
1621841249998,22.959999084472656,2.930999994277954,-4.53000020980835,0.7450000047683715,-8.984999656677246,-0.5490000247955322
1621841250008,26.38999938964844,3.73799991607666,-4.671999931335449,0.6669999957084655,-8.907999992370605,-0.5350000262260437
1621841250018,30.030000686645508,4.39900016784668,-5.195000171661377,0.6669999957084655,-8.901000022888184,-0.5740000009536743
1621841250028,33.95000076293945,5.413000106811523,-5.301000118255615,0.7059999704360961,-9.048999786376951,-0.6399999856948853
1621841250038,37.310001373291016,6.629000186920166,-4.943999767303467,0.7450000047683715,-9.326000213623049,-0.6489999890327453
1621841250048,39.7599983215332,7.407999992370605,-4.521999835968018,0.7850000262260437,-9.494000434875488,-0.5989999771118164
1621841250058,40.66999816894531,7.107999801635742,-4.433000087738037,0.8240000009536743,-9.592000007629396,-0.4959999918937683
1621841250068,40.18000030517578,6.389999866485596,-5.198999881744385,0.9020000100135804,-9.53499984741211,-0.367000013589859
1621841250078,39.900001525878906,5.160999774932861,-6.696000099182129,0.9409999847412108,-9.43299961090088,-0.2689999938011169
1621841250088,39.970001220703125,4.239999771118164,-7.923999786376954,0.981000006198883,-9.45300006866455,-0.152999997138977
1621841250098,40.18000030517578,3.2709999084472656,-7.668000221252441,0.981000006198883,-9.550999641418455,-0.0509999990463256
1621841250108,40.040000915527344,2.558000087738037,-7.651999950408936,0.981000006198883,-9.72599983215332,0.0379999987781047
1621841250118,39.47999954223633,1.7100000381469729,-8.086000442504883,0.9409999847412108,-9.913999557495115,0.2039999961853027
1621841250128,38.08000183105469,1.0119999647140503,-9.772999763488768,0.981000006198883,-10.01200008392334,0.3059999942779541
1621841250138,37.099998474121094,0.4099999666213989,-10.590000152587892,1.0199999809265137,-10.18000030517578,0.356000006198883
1621841250148,36.119998931884766,-0.19200000166893,-11.406999588012695,0.981000006198883,-10.168999671936035,0.5170000195503234
1621841250158,33.599998474121094,-1.1449999809265137,-12.854000091552734,0.981000006198883,-10.149999618530272,0.6399999856948853
1621841250168,30.940000534057617,-2.2079999446868896,-13.680999755859377,0.9020000100135804,-10.079999923706056,0.6919999718666076
1621841250178,28.979999542236328,-3.003000020980835,-14.81700038909912,0.7850000262260437,-10.125,0.7239999771118164
1621841250188,27.299999237060547,-3.2060000896453857,-16.48699951171875,0.7450000047683715,-10.33199977874756,0.7670000195503234
1621841250198,24.989999771118164,-2.4230000972747803,-17.700000762939453,0.7450000047683715,-10.70699977874756,0.8600000143051147
1621841250208,20.510000228881836,-1.0529999732971191,-17.812999725341797,0.8629999756813049,-11.036999702453612,0.921999990940094
1621841250218,14.699999809265137,0.2649999856948852,-17.22599983215332,0.9409999847412108,-11.256999969482422,1.0420000553131104
1621841250228,7.420000076293945,0.675000011920929,-15.519000053405762,1.0199999809265137,-11.38700008392334,1.0989999771118164
1621841250238,-0.2800000011920929,1.0889999866485596,-13.029000282287598,1.0590000152587893,-11.329999923706056,1.2289999723434448
1621841250248,-7.699999809265136,1.0329999923706057,-10.692999839782717,1.0980000495910645,-11.083999633789064,1.1920000314712524
1621841250258,-14.0,0.6389999985694885,-9.270000457763674,1.1770000457763672,-10.909000396728516,1.1039999723434448
1621841250268,-19.600000381469727,0.2460000067949295,-9.05500030517578,1.1770000457763672,-10.909000396728516,1.1039999723434448
1621841250278,-24.63999938964844,0.4329999983310699,-8.097999572753906,1.0980000495910645,-10.850000381469728,0.9950000047683716
1621841250288,-29.61000061035156,0.9800000190734864,-7.574999809265136,1.1380000114440918,-10.703000068664553,1.059999942779541
1621841250298,-34.5099983215332,0.875,-7.380000114440918,1.1380000114440918,-10.559000015258787,0.9259999990463256
1621841250308,-38.220001220703125,0.8510000109672546,-7.242000102996825,1.1380000114440918,-10.411999702453612,0.9919999837875366
1621841250318,-40.7400016784668,1.6699999570846558,-6.244999885559082,1.1380000114440918,-10.204999923706056,0.9490000009536744
1621841250327,-42.279998779296875,2.200999975204468,-5.2270002365112305,1.1380000114440918,-9.991000175476074,0.8669999837875366
1621841250337,-42.349998474121094,2.4260001182556152,-4.690000057220459,1.0980000495910645,-9.725000381469728,0.7149999737739563
1621841250347,-42.41999816894531,2.6510000228881836,-4.1529998779296875,1.0980000495910645,-9.460000038146973,0.5630000233650208
1621841250357,-41.58000183105469,3.1059999465942383,-3.503999948501587,1.0590000152587893,-9.23900032043457,0.44200000166893
1621841250367,-39.83000183105469,3.4019999504089355,-3.1670000553131104,1.0590000152587893,-9.012000083923342,0.2829999923706054
1621841250377,-37.310001373291016,3.430000066757202,-2.5230000019073486,1.0980000495910645,-8.946000099182129,0.135000005364418
1621841250387,-34.22999954223633,3.5280001163482666,-1.866000056266785,1.0590000152587893,-8.8100004196167,0.0399999991059303
1621841250397,-30.170000076293945,3.674000024795532,-1.4850000143051147,1.0590000152587893,-8.75100040435791,-0.0689999982714653
1621841250407,-25.969999313354492,3.9530000686645503,-1.861999988555908,1.0590000152587893,-8.699000358581543,-0.1400000005960464
1621841250417,-21.84000015258789,3.6819999217987065,-2.3359999656677246,0.981000006198883,-8.65999984741211,-0.1330000013113021
1621841250427,-17.010000228881836,3.6410000324249263,-2.9119999408721924,0.981000006198883,-8.607999801635742,-0.2029999941587448
1621841250437,-12.31999969482422,3.2190001010894775,-3.3420000076293945,0.981000006198883,-8.536999702453613,-0.1509999930858612
1621841250447,-6.860000133514404,3.437999963760376,-3.374000072479248,0.9409999847412108,-8.52400016784668,-0.2280000001192092
1621841250457,-1.1200000047683716,4.11899995803833,-3.6099998950958256,0.9409999847412108,-8.477999687194824,-0.2599999904632568
1621841250467,4.130000114440918,4.038000106811523,-3.552999973297119,0.9409999847412108,-8.579999923706055,-0.3580000102519989
1621841250477,9.100000381469728,4.329999923706055,-3.999000072479248,0.9409999847412108,-8.70300006866455,-0.3400000035762786
1621841250487,13.159999847412108,4.610000133514404,-4.375999927520752,1.0199999809265137,-8.819000244140625,-0.3600000143051147
1621841250497,16.170000076293945,4.3379998207092285,-4.849999904632568,1.0199999809265137,-8.949000358581543,-0.3030000030994415
1621841250507,18.760000228881836,4.026000022888184,-5.901000022888184,1.0199999809265137,-9.085000038146973,-0.2080000042915344
1621841250517,20.86000061035156,3.5510001182556152,-6.836999893188477,1.0590000152587893,-9.175999641418455,-0.1439999938011169
1621841250527,23.100000381469727,2.700000047683716,-8.053999900817871,1.0590000152587893,-9.21399974822998,-0.1509999930858612
1621841250537,24.010000228881836,2.310500144958496,-8.868999481201172,1.0980000495910645,-9.253000259399414,-0.1580000072717666
1621841250547,24.920000076293945,1.9210000038146973,-9.684000015258787,1.0590000152587893,-9.395999908447264,-0.0240000002086162
1621841250557,26.530000686645508,1.2350000143051147,-10.230999946594238,1.0980000495910645,-9.454999923706056,0.0850000008940696
1621841250567,27.649999618530273,0.5049999952316284,-10.928000450134276,1.0980000495910645,-9.592000007629396,0.1809999942779541
1621841250577,27.93000030517578,-0.6990000009536743,-11.354000091552734,1.1380000114440918,-9.76599979400635,0.2689999938011169
1621841250587,27.790000915527344,-1.409000039100647,-11.762999534606934,1.1380000114440918,-9.86400032043457,0.3720000088214874
1621841250597,26.38999938964844,-2.63700008392334,-12.050999641418455,1.1380000114440918,-10.0,0.4670000076293945
1621841250607,24.850000381469727,-3.23799991607666,-11.873000144958496,1.1380000114440918,-10.020999908447266,0.5830000042915344
1621841250617,23.030000686645508,-3.9189999103546143,-11.63700008392334,1.1380000114440918,-10.034999847412108,0.6600000262260437
1621841250627,21.489999771118164,-4.303999900817871,-11.0649995803833,1.0980000495910645,-9.949999809265137,0.6349999904632568
1621841250637,20.440000534057617,-3.812999963760376,-10.62399959564209,1.0590000152587893,-9.98900032043457,0.6290000081062316
1621841250647,19.31999969482422,-3.244999885559082,-9.812999725341797,1.0590000152587893,-10.041000366210936,0.6990000009536743
1621841250657,17.43000030517578,-2.746000051498413,-9.013999938964846,0.981000006198883,-10.17099952697754,0.7559999823570251
1621841250667,14.909999847412108,-1.6959999799728394,-9.326000213623049,0.9409999847412108,-10.255000114440918,0.781000018119812
1621841250677,12.109999656677246,-0.7879999876022338,-9.237000465393066,1.0199999809265137,-10.314000129699709,0.8899999856948853
1621841250687,9.800000190734863,0.356000006198883,-8.467000007629395,0.981000006198883,-10.345999717712402,0.8439999818801879
1621841250697,7.349999904632568,1.3700000047683716,-7.363999843597413,0.981000006198883,-10.314000129699709,0.8899999856948853
1621841250707,5.179999828338623,2.2660000324249268,-5.998000144958496,0.981000006198883,-10.274999618530272,0.8970000147819519
1621841250717,2.799999952316284,2.9189999103546143,-4.460999965667725,1.0199999809265137,-10.229999542236328,0.865000009536743
1621841250727,1.6799999475479126,3.288000106811523,-3.9340000152587886,1.0199999809265137,-10.229999542236328,0.865000009536743
1621841250737,0.5600000023841857,3.6570000648498535,-3.4070000648498535,1.0199999809265137,-10.300000190734863,0.8130000233650208
1621841250747,-2.380000114440918,4.179999828338623,-2.746000051498413,0.981000006198883,-10.352999687194824,0.8830000162124633
1621841250757,-5.25,4.2820000648498535,-2.515000104904175,0.981000006198883,-10.352999687194824,0.8830000162124633
1621841250767,-8.680000305175781,4.201000213623047,-2.4579999446868896,0.981000006198883,-10.314000129699709,0.8899999856948853
1621841250777,-11.409999847412108,4.01800012588501,-2.631999969482422,0.981000006198883,-10.152999877929688,0.8790000081062316
1621841250787,-13.789999961853027,4.314000129699707,-2.2960000038146973,0.9409999847412108,-9.977999687194824,0.7900000214576721
1621841250797,-14.699999809265137,4.921999931335449,-2.1170001029968266,0.9020000100135804,-9.854999542236328,0.7720000147819519
1621841250807,-14.5600004196167,5.40500020980835,-2.0320000648498535,0.8629999756813049,-9.763999938964846,0.7080000042915344
1621841250817,-14.630000114440918,5.875,-1.878000020980835,0.8629999756813049,-9.58899974822998,0.6190000176429749
1621841250827,-14.350000381469728,6.24399995803833,-1.955000042915344,0.9020000100135804,-9.536999702453612,0.5490000247955322
1621841250837,-13.93000030517578,6.7270002365112305,-1.8700000047683716,0.8629999756813049,-9.460000038146973,0.5630000233650208
1621841250847,-12.949999809265137,6.864999771118164,-1.8459999561309817,0.8629999756813049,-9.387000083923342,0.3759999871253967
1621841250857,-11.760000228881836,7.395999908447266,-2.0369999408721924,0.8629999756813049,-9.270999908447264,0.3970000147819519
1621841250867,-10.079999923706056,7.744999885559082,-2.4019999504089355,0.8629999756813049,-9.270999908447264,0.3970000147819519
1621841250877,-8.119999885559082,8.041000366210938,-2.065000057220459,0.8629999756813049,-9.263999938964846,0.3580000102519989
1621841250887,-5.599999904632568,8.503000259399414,-2.2679998874664307,0.8629999756813049,-9.22599983215332,0.3650000095367431
1621841250897,-3.1500000953674316,9.114999771118164,-2.515000104904175,0.9020000100135804,-9.25699996948242,0.3190000057220459
1621841250907,-0.4199999868869781,8.984999656677246,-3.3910000324249268,0.9409999847412108,-9.335000038146973,0.3059999942779541
1621841250917,1.2599999904632568,8.847999572753906,-3.4159998893737793,0.981000006198883,-9.45699977874756,0.3240000009536743
1621841250927,2.450000047683716,8.83899974822998,-3.7720000743865967,0.981000006198883,-9.579999923706056,0.3420000076293945
1621841250937,2.940000057220459,7.984000205993653,-4.563000202178955,1.0199999809265137,-9.579999923706056,0.3420000076293945
1621841250947,3.184999942779541,7.560000419616699,-4.78000020980835,0.981000006198883,-9.48900032043457,0.2790000140666961
1621841250957,3.430000066757202,7.136000156402588,-4.997000217437744,1.0199999809265137,-9.53499984741211,0.3100000023841857
1621841250967,3.9200000762939458,6.251999855041504,-5.223999977111816,1.0199999809265137,-9.503000259399414,0.356000006198883
1621841250977,4.829999923706055,5.468999862670898,-5.21999979019165,1.0199999809265137,-9.477999687194824,0.4399999976158142
1621841250987,5.460000038146973,5.067999839782715,-5.361000061035156,0.981000006198883,-9.477999687194824,0.4399999976158142
1621841250997,6.510000228881836,4.690999984741211,-5.640999794006348,1.0199999809265137,-9.51599979400635,0.4329999983310699
1621841251007,7.139999866485596,3.924000024795532,-6.131999969482422,0.981000006198883,-9.638999938964846,0.4510000050067901
1621841251017,7.489999771118165,3.434000015258789,-6.573999881744385,0.981000006198883,-9.6850004196167,0.4830000102519989
1621841251027,7.559999942779541,2.825000047683716,-6.751999855041504,0.981000006198883,-9.76900005340576,0.5080000162124633
1621841251037,6.860000133514404,2.4639999866485596,-7.526000022888184,0.981000006198883,-9.807000160217283,0.5009999871253967
1621841251047,6.510000228881836,1.8480000495910645,-8.062000274658203,0.9409999847412108,-9.807000160217283,0.5009999871253967
1621841251057,5.949999809265137,1.815000057220459,-8.281000137329102,0.9020000100135804,-9.76900005340576,0.5080000162124633
1621841251067,5.670000076293945,1.8240000009536743,-7.923999786376954,0.8629999756813049,-9.737000465393066,0.5540000200271606
1621841251077,5.670000076293945,2.371000051498413,-7.401000022888184,0.9020000100135804,-9.776000022888184,0.5469999909400939
1621841251087,5.179999828338623,2.447999954223633,-7.0320000648498535,0.8629999756813049,-9.859999656677246,0.5720000267028807
1621841251097,4.480000019073486,2.553999900817871,-7.22599983215332,0.8240000009536743,-9.897999763488768,0.5649999976158142
1621841251107,3.849999904632568,2.7679998874664307,-8.041000366210938,0.7850000262260437,-9.847999572753906,0.7329999804496765
1621841251117,3.2899999618530273,2.921999931335449,-8.51200008392334,0.8240000009536743,-9.840999603271484,0.6940000057220459
1621841251127,2.5199999809265137,2.687000036239624,-7.985000133514405,0.9020000100135804,-9.79599952697754,0.6629999876022338
1621841251137,2.240000009536743,2.8580000400543213,-7.741000175476073,0.9020000100135804,-9.788999557495115,0.6240000128746032
1621841251147,1.6799999475479126,3.0360000133514404,-7.140999794006348,0.8629999756813049,-9.75100040435791,0.6309999823570251
1621841251157,1.6799999475479126,3.4260001182556152,-6.929999828338623,0.8629999756813049,-9.75100040435791,0.6309999823570251
1621841251167,1.434999942779541,3.4725000858306885,-6.993000030517578,0.9020000100135804,-9.788999557495115,0.6240000128746032
1621841251177,1.190000057220459,3.5190000534057617,-7.056000232696533,0.8240000009536743,-9.75699996948242,0.6690000295639038
1621841251187,0.9100000262260436,3.263000011444092,-6.816999912261963,0.8629999756813049,-9.75100040435791,0.6309999823570251
1621841251197,0.4900000095367431,3.6530001163482666,-6.605999946594238,0.8629999756813049,-9.75699996948242,0.6690000295639038
1621841251207,0.4199999868869781,4.058000087738037,-6.889999866485596,0.8629999756813049,-9.763999938964846,0.7080000042915344
1621841251217,-0.1400000005960464,4.5370001792907715,-6.379000186920166,0.8629999756813049,-9.732000350952148,0.7530000209808348
1621841251227,-0.2800000011920929,4.5329999923706055,-5.953000068664551,0.9020000100135804,-9.694000244140623,0.7599999904632568
1621841251237,-0.4900000095367431,4.455999851226807,-6.322000026702881,0.8629999756813049,-9.687000274658203,0.722000002861023
1621841251247,-0.3499999940395355,4.979000091552734,-6.869999885559082,0.8240000009536743,-9.666000366210936,0.606000006198883
1621841251257,0.0,5.172999858856201,-6.763999938964844,0.8240000009536743,-9.68000030517578,0.6830000281333923
1621841251267,0.4199999868869781,5.355999946594238,-6.590000152587891,0.8629999756813049,-9.67300033569336,0.6439999938011169
1621841251277,0.7699999809265136,5.468999862670898,-6.427999973297119,0.8629999756813049,-9.666000366210936,0.606000006198883
1621841251287,0.9100000262260436,5.9070000648498535,-6.493000030517578,0.8629999756813049,-9.744000434875488,0.5920000076293945
1621841251297,0.9100000262260436,5.9070000648498535,-6.493000030517578,0.9020000100135804,-9.781999588012695,0.5849999785423278
1621841251307,0.4199999868869781,5.932000160217285,-6.63100004196167,0.9020000100135804,-9.82800006866455,0.6169999837875366
1621841251317,-0.209999993443489,6.0,-6.61899995803833,0.9409999847412108,-9.866000175476074,0.6100000143051147
1621841251327,-1.399999976158142,5.688000202178955,-6.460000038146973,0.981000006198883,-9.880000114440918,0.6880000233650208
1621841251337,-2.309999942779541,5.550000190734863,-6.485000133514404,0.9409999847412108,-9.835000038146973,0.656000018119812
1621841251347,-2.7300000190734863,5.14900016784668,-6.626999855041504,0.981000006198883,-9.75100040435791,0.6309999823570251
1621841251357,-2.869999885559082,4.885000228881836,-6.74399995803833,0.9409999847412108,-9.67300033569336,0.6439999938011169
1621841251367,-3.009999990463257,4.836999893188477,-6.4679999351501465,0.9409999847412108,-9.697999954223633,0.5600000023841857
1621841251377,-3.009999990463257,4.999000072479248,-6.581999778747559,0.9020000100135804,-9.744000434875488,0.5920000076293945
1621841251387,-3.2200000286102295,5.132499694824219,-6.736000061035156,0.9020000100135804,-9.75699996948242,0.6690000295639038
1621841251397,-3.430000066757202,5.265999794006348,-6.889999866485596,0.8629999756813049,-9.82800006866455,0.6169999837875366
1621841251407,-3.849999904632568,5.4079999923706055,-7.291999816894531,0.9020000100135804,-9.904999732971191,0.6039999723434448
1621841251417,-4.96999979019165,5.468999862670898,-7.636000156402587,0.9020000100135804,-9.98900032043457,0.6290000081062316
1621841251427,-6.650000095367432,5.456999778747559,-7.566999912261963,0.9409999847412108,-9.996000289916992,0.6669999957084655
1621841251437,-7.8400001525878915,4.934000015258789,-7.019999980926514,0.9409999847412108,-9.918999671936035,0.6809999942779541
1621841251447,-8.609999656677246,4.803999900817871,-6.686999797821045,0.981000006198883,-9.873000144958496,0.6489999890327453
1621841251457,-8.890000343322754,4.515999794006348,-6.666999816894531,0.981000006198883,-9.75699996948242,0.6690000295639038
1621841251467,-9.170000076293944,4.249000072479248,-6.359000205993652,0.9409999847412108,-9.711999893188477,0.6380000114440918
1621841251477,-9.029999732971191,4.199999809265137,-6.083000183105469,0.9409999847412108,-9.67300033569336,0.6439999938011169
1621841251487,-8.75,4.168000221252441,-6.302000045776367,0.9020000100135804,-9.628000259399414,0.6129999756813049
1621841251497,-7.980000019073486,4.184000015258789,-6.796999931335449,0.9020000100135804,-9.543999671936035,0.5879999995231628
1621841251507,-7.349999904632568,4.625999927520752,-7.2870001792907715,0.8629999756813049,-9.536999702453612,0.5490000247955322
1621841251517,-6.159999847412109,4.946000099182129,-7.089000225067139,0.9409999847412108,-9.498000144958496,0.5559999942779541
1621841251527,-4.690000057220459,5.2870001792907715,-6.6020002365112305,0.9020000100135804,-9.413999557495115,0.531000018119812
1621841251537,-3.5,5.598999977111816,-6.760000228881836,0.9020000100135804,-9.446000099182127,0.4850000143051147
1621841251547,-2.1700000762939453,5.922999858856201,-6.98799991607666,0.8629999756813049,-9.446000099182127,0.4850000143051147
1621841251557,-0.7699999809265136,6.065000057220459,-6.181000232696533,0.981000006198883,-9.477999687194824,0.4399999976158142
1621841251567,0.0700000002980232,5.806000232696533,-5.515999794006348,0.981000006198883,-9.60099983215332,0.4580000042915344
1621841251577,-0.209999993443489,5.623000144958496,-5.690000057220459,1.0199999809265137,-9.6850004196167,0.4830000102519989
1621841251587,-0.7699999809265136,5.2220001220703125,-5.831999778747559,1.0199999809265137,-9.807000160217283,0.5009999871253967
1621841251597,-1.9600000381469729,5.160999774932861,-6.696000099182129,1.0590000152587893,-9.92300033569336,0.481000006198883
1621841251607,-2.555000066757202,4.873000144958496,-6.67549991607666,1.0590000152587893,-9.968999862670898,0.5130000114440918
1621841251617,-3.1500000953674316,4.585000038146973,-6.65500020980835,1.0199999809265137,-10.013999938964844,0.5440000295639038
1621841251627,-4.340000152587891,3.700999975204468,-6.881999969482422,1.0199999809265137,-9.89099979400635,0.5260000228881835
1621841251637,-5.25,3.243000030517578,-7.105000019073486,0.981000006198883,-9.800999641418455,0.4629999995231628
1621841251647,-5.809999942779541,2.711999893188477,-6.914000034332275,0.981000006198883,-9.814000129699709,0.5400000214576721
1621841251657,-6.369999885559082,2.8940000534057617,-6.739999771118164,0.9020000100135804,-9.897999763488768,0.5649999976158142
1621841251667,-6.510000228881836,2.6710000038146973,-6.2820000648498535,0.7850000262260437,-9.814000129699709,0.5400000214576721
1621841251677,-6.650000095367432,3.441999912261963,-6.2170000076293945,0.7450000047683715,-9.729999542236328,0.5149999856948853
1621841251687,-6.650000095367432,4.800000190734863,-6.26200008392334,0.6669999957084655,-9.690999984741213,0.5220000147819519
1621841251697,-6.090000152587891,6.7789998054504395,-6.197000026702881,0.6280000209808348,-9.645999908447264,0.4900000095367431
1621841251707,-5.110000133514404,8.538999557495117,-4.892000198364258,0.5879999995231628,-9.645999908447264,0.4900000095367431
1621841251717,-4.199999809265137,10.821999549865724,-4.133999824523926,0.5879999995231628,-9.562000274658203,0.4650000035762786
1621841251727,-3.2200000286102295,12.378999710083008,-3.2899999618530273,0.5879999995231628,-9.562000274658203,0.4650000035762786
1621841251737,-2.1700000762939453,14.342000007629396,-2.7309999465942383,0.6669999957084655,-9.593999862670898,0.4189999997615814
1621841251747,-1.399999976158142,15.282999992370604,-2.4230000972747803,0.6280000209808348,-9.586999893188477,0.3810000121593475
1621841251757,-0.7699999809265136,15.993000030517578,-2.013999938964844,0.6669999957084655,-9.593999862670898,0.4189999997615814
1621841251767,-0.4199999868869781,16.155000686645508,-2.127000093460083,0.7450000047683715,-9.63199996948242,0.4129999876022338
1621841251777,-0.2800000011920929,16.17099952697754,-2.621999979019165,0.7450000047683715,-9.638999938964846,0.4510000050067901
1621841251787,-0.209999993443489,16.35700035095215,-2.872999906539917,0.7450000047683715,-9.704999923706056,0.5989999771118164
1621841251797,-0.0700000002980232,16.628999710083008,-3.60700011253357,0.7450000047683715,-9.6850004196167,0.4830000102519989
1621841251807,-0.1400000005960464,16.625,-4.389999866485596,0.7850000262260437,-9.710000038146973,0.3989999890327453
1621841251817,-0.4199999868869781,16.54800033569336,-4.758999824523926,0.7850000262260437,-9.755000114440918,0.4309999942779541
1621841251827,-0.9100000262260436,16.583999633789062,-4.966000080108643,0.7850000262260437,-9.715999603271484,0.4379999935626983
1621841251837,-0.840000033378601,16.517000198364258,-5.190999984741211,0.7850000262260437,-9.748000144958496,0.3919999897480011
1621841251847,-0.7699999809265136,16.450000762939453,-5.415999889373779,0.8240000009536743,-9.710000038146973,0.3989999890327453
1621841251857,-1.190000057220459,15.906999588012695,-5.156000137329102,0.8629999756813049,-9.715999603271484,0.4379999935626983
1621841251867,-1.399999976158142,15.623000144958496,-5.561999797821045,0.8240000009536743,-9.710000038146973,0.3989999890327453
1621841251877,-1.3300000429153442,15.303000450134276,-5.760000228881836,0.8240000009536743,-9.722999572753906,0.4760000109672546
1621841251887,-1.5399999618530271,15.140999794006348,-5.646999835968018,0.8240000009536743,-9.871000289916992,0.4099999964237213
1621841251897,-2.799999952316284,15.493000030517578,-5.229000091552734,0.7850000262260437,-10.031999588012695,0.4219999909400939
1621841251907,-5.599999904632568,16.05299949645996,-4.775000095367432,0.7850000262260437,-10.218999862670898,0.3490000069141387
1621841251917,-9.029999732971191,16.174999237060547,-4.25600004196167,0.7059999704360961,-10.425000190734863,0.3919999897480011
1621841251926,-13.090000152587892,17.006000518798828,-3.3269999027252197,0.6669999957084655,-10.54800033569336,0.4099999964237213
1621841251936,-17.56999969482422,17.816999435424805,-2.687000036239624,0.6280000209808348,-10.579999923706056,0.3650000095367431
1621841251946,-20.93000030517578,18.88800048828125,-1.503000020980835,0.5879999995231628,-10.515999794006348,0.4560000002384185
1621841251956,-24.149999618530273,20.20599937438965,-0.915000021457672,0.5879999995231628,-10.399999618530272,0.4760000109672546
1621841251966,-26.600000381469727,21.29700088500977,-0.6520000100135803,0.5099999904632568,-10.362000465393066,0.4830000102519989
1621841251976,-28.979999542236328,22.674999237060547,-0.4090000092983245,0.5099999904632568,-10.246000289916992,0.5040000081062316
1621841251986,-30.3799991607666,24.34600067138672,-0.6119999885559082,0.5099999904632568,-10.123000144958496,0.4850000143051147
1621841251996,-31.010000228881836,25.489999771118164,-1.0499999523162842,0.5490000247955322,-9.968999862670898,0.5130000114440918
1621841252006,-31.010000228881836,26.35700035095215,-1.5360000133514404,0.5490000247955322,-9.83899974822998,0.4560000002384185
1621841252016,-31.219999313354492,27.326000213623047,-1.7920000553131104,0.5490000247955322,-9.772999763488768,0.3079999983310699
1621841252026,-32.060001373291016,28.25900077819824,-1.840999960899353,0.5490000247955322,-9.869000434875488,0.1720000058412551
1621841252036,-34.02000045776367,28.54700088500977,-1.8609999418258667,0.6280000209808348,-10.015999794006348,0.1059999987483024
1621841252046,-36.959999084472656,28.55500030517578,-1.5039999485015867,0.6280000209808348,-10.227999687194824,-0.0509999990463256
1621841252056,-39.900001525878906,28.733999252319336,-0.9039999842643736,0.6280000209808348,-10.29800033569336,-0.1030000001192092
1621841252066,-40.775001525878906,28.70349884033203,-0.7319999933242797,0.6669999957084655,-10.27299976348877,-0.0189999993890523
1621841252076,-41.650001525878906,28.67300033569336,-0.5600000023841857,0.7059999704360961,-10.027999877929688,-0.0549999997019767
1621841252086,-41.93000030517578,28.628000259399418,-0.7099999785423278,0.7450000047683715,-9.446000099182127,-0.19200000166893
1621841252096,-40.95000076293945,28.604000091552734,-0.5720000267028807,0.7059999704360961,-9.303000450134276,-0.3260000050067901
1621841252106,-38.779998779296875,28.323999404907227,-0.1949999928474426,0.6669999957084655,-9.32800006866455,-0.4099999964237213
1621841252116,-36.2599983215332,28.474000930786133,-0.238999992609024,0.6280000209808348,-9.237000465393066,-0.4740000069141387
1621841252126,-34.439998626708984,28.34000015258789,-0.6890000104904174,0.6280000209808348,-9.178000450134276,-0.5830000042915344
1621841252136,-32.130001068115234,28.429000854492188,-1.5980000495910645,0.6669999957084655,-9.079999923706056,-0.6850000023841857
1621841252146,-29.68000030517578,28.757999420166016,-2.25,0.6669999957084655,-9.098999977111816,-0.8080000281333923
1621841252156,-27.299999237060547,28.972999572753903,-1.85699999332428,0.6669999957084655,-9.201000213623049,-0.9049999713897704
1621841252166,-25.40999984741211,29.36599922180176,-0.8640000224113464,0.7059999704360961,-9.31700038909912,-0.9259999990463256
1621841252176,-24.36000061035156,29.06599998474121,-0.7739999890327453,0.7059999704360961,-9.418999671936035,-1.02400004863739
1621841252186,-23.59000015258789,27.64299964904785,-1.1679999828338623,0.7450000047683715,-9.470999717712402,-0.953000009059906
1621841252196,-22.469999313354492,26.823999404907227,-0.9570000171661376,0.7450000047683715,-9.418999671936035,-1.02400004863739
1621841252206,-21.6299991607666,25.805999755859375,-0.4250000119209289,0.8240000009536743,-9.527999877929688,-1.0829999446868896
1621841252216,-21.489999771118164,24.71500015258789,0.5199999809265136,0.8240000009536743,-9.5600004196167,-1.128000020980835
1621841252226,-21.209999084472656,23.86000061035156,0.9369999766349792,0.7850000262260437,-9.513999938964846,-1.1599999666213987
1621841252236,-20.020000457763672,22.958999633789062,-0.003000000026077,0.7850000262260437,-9.39900016784668,-1.1390000581741333
1621841252246,-18.760000228881836,22.05500030517578,-0.5180000066757202,0.7450000047683715,-9.282999992370604,-1.11899995803833
1621841252256,-16.450000762939453,21.673999786376953,-0.3720000088214874,0.7450000047683715,-9.204999923706056,-1.1050000190734863
1621841252266,-13.859999656677246,20.920000076293945,0.2770000100135803,0.7850000262260437,-9.173999786376951,-1.059999942779541
1621841252276,-10.5,20.267000198364254,1.156999945640564,0.7059999704360961,-9.005000114440918,-1.1100000143051147
1621841252286,-8.71500015258789,19.911998748779297,1.55649995803833,0.6669999957084655,-8.920999526977539,-1.1349999904632568
1621841252296,-6.929999828338623,19.55699920654297,1.955999970436096,0.5879999995231628,-8.829999923706055,-1.1990000009536743
1621841252306,-2.7300000190734863,19.76799964904785,2.7750000953674316,0.5099999904632568,-8.836999893188477,-1.1599999666213987
1621841252316,1.0499999523162842,19.854000091552734,3.500999927520752,0.5099999904632568,-8.946000099182129,-1.218999981880188
1621841252326,4.199999809265137,20.13800048828125,3.9059998989105225,0.4709999859333038,-9.017000198364256,-1.2710000276565552
1621841252336,6.929999828338623,20.753999710083008,4.440999984741211,0.4309999942779541,-9.210000038146973,-1.3049999475479126
1621841252346,9.239999771118164,21.215999603271484,4.238999843597412,0.4709999859333038,-9.35099983215332,-1.4099999666213987
1621841252356,10.5,21.18400001525879,2.811000108718872,0.5099999904632568,-9.550999641418455,-1.4049999713897705
1621841252366,10.779999732971191,20.839000701904297,1.5420000553131104,0.5099999904632568,-9.571000099182127,-1.2890000343322754
1621841252376,10.779999732971191,20.035999298095703,0.050000000745058,0.5490000247955322,-9.564000129699709,-1.3279999494552612
1621841252386,11.270000457763672,18.70599937438965,-0.4690000116825103,0.5490000247955322,-9.487000465393066,-1.3140000104904177
1621841252396,12.109999656677246,17.51300048828125,-0.9629999995231628,0.5099999904632568,-9.326000213623049,-1.3259999752044678
1621841252406,13.579999923706056,16.454999923706055,-1.0080000162124634,0.4709999859333038,-9.262000083923342,-1.2350000143051147
1621841252416,15.470000267028809,15.571000099182127,-1.2350000143051147,0.4309999942779541,-9.19200038909912,-1.1829999685287476
1621841252426,17.639999389648438,15.182000160217283,-1.4459999799728394,0.4309999942779541,-9.145999908447264,-1.2139999866485596
1621841252436,19.31999969482422,14.91800022125244,-1.562999963760376,0.4309999942779541,-9.333000183105469,-1.2869999408721924
1621841252446,20.09000015258789,14.618000030517578,-1.4739999771118164,0.4709999859333038,-9.642000198364256,-1.3420000076293943
1621841252456,18.969999313354492,14.237000465393066,-1.3279999494552612,0.4709999859333038,-9.847999572753906,-1.2979999780654907
1621841252466,17.149999618530273,12.541999816894531,-2.194999933242798,0.4709999859333038,-9.93299961090088,-1.2730000019073486
1621841252476,16.170000076293945,10.95199966430664,-3.2579998970031734,0.4709999859333038,-9.869000434875488,-1.1829999685287476
1621841252486,15.470000267028809,9.79599952697754,-3.9590001106262207,0.5490000247955322,-9.732999801635742,-1.2779999971389773
1621841252496,15.539999961853027,8.958999633789062,-3.6445000171661377,0.5490000247955322,-9.612000465393066,-1.0579999685287476
1621841252506,15.609999656677246,8.121999740600586,-3.3299999237060547,0.5099999904632568,-9.54800033569336,-0.9670000076293944
1621841252516,16.450000762939453,6.921000003814697,-2.9730000495910645,0.4709999859333038,-9.477999687194824,-0.9139999747276306
1621841252526,17.639999389648438,6.166999816894531,-3.5329999923706055,0.4309999942779541,-9.362000465393066,-0.8939999938011169
1621841252536,19.25,5.473999977111816,-4.436999797821045,0.3529999852180481,-9.329999923706056,-0.8489999771118164
1621841252546,21.0,5.688000202178955,-5.251999855041504,0.3140000104904174,-9.45300006866455,-0.8299999833106994
1621841252556,21.489999771118164,5.671999931335449,-5.966000080108643,0.2750000059604644,-9.536999702453612,-0.8050000071525573
1621841252566,21.700000762939453,5.586999893188477,-5.482999801635742,0.2750000059604644,-9.65999984741211,-0.787000000476837
1621841252576,21.06999969482422,5.566999912261963,-5.770999908447266,0.2750000059604644,-9.782999992370604,-0.7689999938011169
1621841252586,20.15999984741211,5.425000190734863,-6.578000068664551,0.2750000059604644,-9.82800006866455,-0.7369999885559082
1621841252596,19.18000030517578,5.315000057220459,-7.165999889373779,0.2349999994039535,-9.842000007629396,-0.6600000262260437
1621841252606,19.11000061035156,5.0960001945495605,-7.132999897003174,0.2349999994039535,-9.763999938964846,-0.6460000276565551
1621841252616,19.11000061035156,5.059999942779541,-6.927000045776367,0.2349999994039535,-9.694000244140623,-0.5939999818801879
1621841252626,19.11000061035156,5.372000217437744,-7.085000038146973,0.2349999994039535,-9.630000114440918,-0.5030000209808348
1621841252636,19.25,5.699999809265137,-7.737999916076661,0.2349999994039535,-9.592000007629396,-0.4959999918937683
1621841252646,19.670000076293945,5.679999828338623,-8.026000022888184,0.2349999994039535,-9.64400005340576,-0.4259999990463256
1621841252656,19.8799991607666,5.659999847412109,-8.314000129699707,0.2750000059604644,-9.741999626159668,-0.3240000009536743
1621841252666,19.530000686645508,5.565999984741211,-8.187999725341797,0.3140000104904174,-9.793999671936035,-0.2529999911785125
1621841252676,19.25,4.958000183105469,-8.366000175476074,0.2750000059604644,-9.83199977874756,-0.2599999904632568
1621841252686,18.969999313354492,4.650000095367432,-8.633999824523926,0.2750000059604644,-9.83199977874756,-0.2599999904632568
1621841252696,18.6200008392334,4.248000144958496,-8.776000022888184,0.3140000104904174,-9.800999641418455,-0.2150000035762786
1621841252706,18.23500061035156,3.9300000667572026,-9.1875,0.3140000104904174,-9.76900005340576,-0.1689999997615814
1621841252716,17.850000381469727,3.611999988555908,-9.598999977111816,0.3140000104904174,-9.762000083923342,-0.2080000042915344
1621841252726,17.989999771118164,3.368000030517578,-9.428000450134276,0.2750000059604644,-9.722999572753906,-0.2010000050067901
1621841252736,17.780000686645508,3.38100004196167,-9.496999740600586,0.3140000104904174,-9.76900005340576,-0.1689999997615814
1621841252746,17.360000610351562,3.461999893188477,-9.553999900817873,0.3140000104904174,-9.781999588012695,-0.0920000001788139
1621841252756,16.799999237060547,3.497999906539917,-9.76099967956543,0.3140000104904174,-9.781999588012695,-0.0920000001788139
1621841252766,16.450000762939453,3.49399995803833,-9.335000038146973,0.3140000104904174,-9.803000450134276,0.0240000002086162
1621841252776,16.59000015258789,3.3320000171661377,-9.222000122070312,0.3140000104904174,-9.770999908447264,0.0700000002980232
1621841252786,16.8700008392334,3.3559999465942383,-9.359000205993652,0.3140000104904174,-9.746000289916992,0.1539999991655349
1621841252796,16.799999237060547,3.4489998817443848,-9.484999656677246,0.3529999852180481,-9.70699977874756,0.1599999964237213
1621841252806,16.940000534057617,3.121000051498413,-10.041000366210936,0.3529999852180481,-9.70699977874756,0.1599999964237213
1621841252816,17.219999313354492,3.006999969482422,-10.203000068664553,0.3919999897480011,-9.746000289916992,0.1539999991655349
1621841252826,17.219999313354492,2.890000104904175,-9.939000129699709,0.4309999942779541,-9.79800033569336,0.2240000069141387
1621841252836,16.799999237060547,2.4800000190734863,-9.229999542236328,0.4309999942779541,-9.888999938964846,0.2879999876022338
1621841252846,15.960000038146973,2.2130000591278076,-8.920999526977539,0.4709999859333038,-9.9350004196167,0.3199999928474426
1621841252856,14.279999732971191,1.5679999589920044,-8.892999649047852,0.4309999942779541,-10.019000053405762,0.3449999988079071
1621841252866,12.529999732971191,1.0729999542236328,-8.909000396728516,0.4309999942779541,-10.057000160217283,0.3379999995231628
1621841252876,10.640000343322754,0.8100000023841857,-9.027000427246092,0.4709999859333038,-10.109999656677246,0.4079999923706054
1621841252886,9.3100004196167,0.2829999923706054,-9.262000083923342,0.3919999897480011,-9.994000434875488,0.4289999902248382
1621841252896,8.399999618530273,-0.0299999993294477,-9.102999687194824,0.3529999852180481,-9.92300033569336,0.481000006198883
1621841252906,7.9099998474121085,0.2660000026226043,-8.767000198364258,0.3919999897480011,-9.845999717712402,0.4939999878406524
1621841252916,7.980000019073486,0.3980000019073486,-8.708000183105469,0.3529999852180481,-9.76900005340576,0.5080000162124633
1621841252926,8.050000190734863,0.5299999713897705,-8.64900016784668,0.3529999852180481,-9.690999984741213,0.5220000147819519
1621841252936,8.1899995803833,0.6520000100135803,-8.130000114440918,0.3529999852180481,-9.621000289916992,0.5740000009536743
1621841252946,8.539999961853027,0.859000027179718,-8.093999862670898,0.3529999852180481,-9.65999984741211,0.5669999718666076
1621841252956,9.170000076293944,1.381999969482422,-8.640999794006348,0.3529999852180481,-9.737000465393066,0.5540000200271606
1621841252966,9.170000076293944,2.187999963760376,-8.782999992370605,0.3140000104904174,-9.859999656677246,0.5720000267028807
1621841252976,9.3100004196167,2.4679999351501465,-9.16100025177002,0.3140000104904174,-9.866000175476074,0.6100000143051147
1621841252986,8.609999656677246,2.885999917984009,-9.512999534606934,0.3529999852180481,-9.788999557495115,0.6240000128746032
1621841252996,7.489999771118165,3.003000020980835,-9.777000427246092,0.4309999942779541,-9.781999588012695,0.5849999785423278
1621841253006,7.070000171661377,3.3480000495910645,-9.715999603271484,0.4309999942779541,-9.781999588012695,0.5849999785423278
1621841253016,6.579999923706055,2.885999917984009,-9.512999534606934,0.4309999942779541,-9.781999588012695,0.5849999785423278
1621841253026,6.159999847412109,2.9749999046325684,-9.213000297546388,0.3919999897480011,-9.744000434875488,0.5920000076293945
1621841253036,5.809999942779541,2.7279999256134033,-8.616999626159668,0.3919999897480011,-9.744000434875488,0.5920000076293945
1621841253046,6.440000057220459,3.2269999980926514,-9.027000427246092,0.4309999942779541,-9.67300033569336,0.6439999938011169
1621841253056,6.860000133514404,3.2829999923706055,-8.946000099182129,0.3919999897480011,-9.68000030517578,0.6830000281333923
1621841253066,7.210000038146973,3.651999950408935,-9.022999763488768,0.4309999942779541,-9.609999656677246,0.7350000143051147
1621841253076,8.119999885559082,3.996999979019165,-8.961999893188477,0.4309999942779541,-9.609999656677246,0.7350000143051147
1621841253086,8.609999656677246,4.547999858856201,-8.864999771118164,0.4309999942779541,-9.635000228881836,0.6510000228881835
1621841253096,9.3100004196167,4.916999816894531,-8.942000389099121,0.4709999859333038,-9.68000030517578,0.6830000281333923
1621841253106,9.729999542236328,5.181000232696533,-8.824000358581543,0.5099999904632568,-9.725000381469728,0.7149999737739563
1621841253116,9.59000015258789,5.136000156402588,-8.973999977111816,0.5490000247955322,-9.763999938964846,0.7080000042915344
1621841253126,9.3100004196167,5.0920000076293945,-9.12399959564209,0.5099999904632568,-9.8100004196167,0.740000009536743
1621841253136,9.3100004196167,5.1020002365112305,-8.980499267578125,0.5490000247955322,-9.847999572753906,0.7329999804496765
1621841253146,9.3100004196167,5.111999988555908,-8.836999893188477,0.5490000247955322,-9.8100004196167,0.740000009536743
1621841253156,8.399999618530273,5.051000118255615,-8.491999626159668,0.5879999995231628,-9.777999877929688,0.7850000262260437
1621841253166,7.9099998474121085,4.999000072479248,-7.789999961853027,0.5490000247955322,-9.777999877929688,0.7850000262260437
1621841253176,7.699999809265136,4.557000160217285,-7.300000190734864,0.5099999904632568,-9.822999954223633,0.8169999718666076
1621841253186,7.349999904632568,4.86899995803833,-7.458000183105469,0.5099999904632568,-9.822999954223633,0.8169999718666076
1621841253196,6.860000133514404,4.89300012588501,-7.59600019454956,0.5099999904632568,-9.79800033569336,0.9010000228881836
1621841253206,6.300000190734863,4.3420000076293945,-7.692999839782715,0.5099999904632568,-9.79800033569336,0.9010000228881836
1621841253216,5.880000114440918,4.203999996185303,-7.717000007629395,0.5099999904632568,-9.791000366210936,0.8629999756813049
1621841253226,5.880000114440918,4.2729997634887695,-7.704999923706055,0.4709999859333038,-9.79800033569336,0.9010000228881836
1621841253236,5.599999904632568,4.447000026702881,-7.888000011444091,0.5099999904632568,-9.79800033569336,0.9010000228881836
1621841253246,5.599999904632568,4.539999961853027,-8.012999534606934,0.4709999859333038,-9.772999763488768,0.9850000143051147
1621841253256,5.599999904632568,4.738999843597412,-8.333999633789062,0.3919999897480011,-9.696000099182127,0.9990000128746032
1621841253266,5.25,4.577000141143799,-8.220000267028809,0.4309999942779541,-9.727999687194824,0.953000009059906
1621841253276,4.96999979019165,4.896999835968018,-8.020999908447266,0.4709999859333038,-9.812000274658203,0.977999985218048
1621841253286,4.829999923706055,5.0879998207092285,-7.489999771118165,0.4709999859333038,-9.812000274658203,0.977999985218048
1621841253296,4.409999847412109,5.084000110626221,-7.065000057220459,0.5099999904632568,-9.857000350952148,1.0099999904632568
