timestamp,gyro_x,gyro_y,gyro_z,acc_x,acc_y,acc_z
1621840563068,0.0,0.0,0.0,0.0,0.0,0.0
1621840563707,0.0,0.0,0.0,0.0,0.0,0.0
1621840563717,-3.2200000286102295,5.27400016784668,-7.742000102996825,-0.1959999948740005,-9.704999923706056,0.5989999771118164
1621840563727,-3.359999895095825,5.111999988555908,-7.627999782562256,-0.1959999948740005,-9.704999923706056,0.5989999771118164
1621840563737,-3.359999895095825,5.059000015258789,-8.135000228881836,-0.1570000052452087,-9.690999984741213,0.5220000147819519
1621840563747,-3.2899999618530273,4.934000015258789,-8.227999687194824,-0.1570000052452087,-9.65999984741211,0.5669999718666076
1621840563757,-2.869999885559082,4.451000213623047,-8.312999725341797,-0.1570000052452087,-9.690999984741213,0.5220000147819519
1621840563767,-2.5199999809265137,4.357999801635742,-8.187999725341797,-0.1959999948740005,-9.697999954223633,0.5600000023841857
1621840563777,-2.0999999046325684,4.685999870300293,-8.840999603271484,-0.2349999994039535,-9.697999954223633,0.5600000023841857
1621840563787,-1.9600000381469729,4.755000114440918,-8.82800006866455,-0.1959999948740005,-9.652999877929688,0.5289999842643737
1621840563797,-0.9100000262260436,5.0269999504089355,-8.354000091552734,-0.2349999994039535,-9.645999908447264,0.4900000095367431
1621840563807,-0.6299999952316284,4.994500160217285,-8.572999954223633,-0.2349999994039535,-9.628000259399414,0.6129999756813049
1621840563817,-0.3499999940395355,4.961999893188477,-8.791999816894531,-0.2750000059604644,-9.621000289916992,0.5740000009536743
1621840563827,0.4199999868869781,5.242000102996826,-9.168999671936035,-0.2750000059604644,-9.621000289916992,0.5740000009536743
1621840563837,0.9100000262260436,5.749000072479248,-9.222000122070312,-0.2750000059604644,-9.61400032043457,0.5350000262260437
1621840563847,1.4700000286102295,6.276000022888184,-8.987000465393066,-0.2750000059604644,-9.65999984741211,0.5669999718666076
1621840563857,1.6799999475479126,6.7220001220703125,-8.694999694824219,-0.2349999994039535,-9.697999954223633,0.5600000023841857
1621840563867,1.8200000524520872,6.940999984741211,-8.72700023651123,-0.1959999948740005,-9.65999984741211,0.5669999718666076
1621840563877,1.8200000524520872,7.367000102996825,-8.722999572753906,-0.1959999948740005,-9.65999984741211,0.5669999718666076
1621840563887,2.0299999713897705,7.47599983215332,-8.135000228881836,-0.1959999948740005,-9.65999984741211,0.5669999718666076
1621840563897,2.240000009536743,7.994999885559082,-8.256999969482422,-0.1959999948740005,-9.697999954223633,0.5600000023841857
1621840563907,2.6600000858306885,7.5370001792907715,-8.479999542236328,-0.1959999948740005,-9.666000366210936,0.606000006198883
1621840563917,2.869999885559082,7.718999862670899,-9.513999938964846,-0.1959999948740005,-9.704999923706056,0.5989999771118164
1621840563927,2.940000057220459,7.41099977493286,-9.781999588012695,-0.1959999948740005,-9.704999923706056,0.5989999771118164
1621840563937,3.359999895095825,7.387000083923339,-9.64400005340576,-0.1570000052452087,-9.666000366210936,0.606000006198883
1621840563947,3.2899999618530273,7.294000148773193,-9.517999649047852,-0.1570000052452087,-9.711999893188477,0.6380000114440918
1621840563957,3.2899999618530273,7.41099977493286,-9.781999588012695,-0.1959999948740005,-9.67300033569336,0.6439999938011169
1621840563967,3.009999990463257,7.598000049591064,-10.032999992370604,-0.1959999948740005,-9.744000434875488,0.5920000076293945
1621840563977,3.1500000953674316,7.500499725341797,-10.086000442504885,-0.1959999948740005,-9.770999908447264,0.746999979019165
1621840563987,3.2899999618530273,7.402999877929688,-10.138999938964844,-0.1959999948740005,-9.75699996948242,0.6690000295639038
1621840563997,3.1500000953674316,8.015000343322754,-10.38599967956543,-0.2349999994039535,-9.711999893188477,0.6380000114440918
1621840564007,3.0799999237060547,8.607000350952148,-9.713000297546388,-0.2349999994039535,-9.711999893188477,0.6380000114440918
1621840564017,3.0799999237060547,8.935999870300293,-9.156999588012695,-0.1959999948740005,-9.67300033569336,0.6439999938011169
1621840564027,3.2899999618530273,9.07800006866455,-8.350000381469727,-0.1959999948740005,-9.64099979400635,0.6899999976158142
1621840564037,4.199999809265137,9.065999984741213,-8.281999588012695,-0.1959999948740005,-9.602999687194824,0.6970000267028807
1621840564047,4.760000228881836,9.147000312805178,-8.338000297546387,-0.2349999994039535,-9.564000129699709,0.703000009059906
1621840564057,5.039999961853027,9.430999755859377,-7.933000087738037,-0.2349999994039535,-9.571000099182127,0.7419999837875366
1621840564067,5.53000020980835,9.779000282287598,-8.29800033569336,-0.2750000059604644,-9.609999656677246,0.7350000143051147
1621840564077,5.739999771118164,9.678000450134276,-8.529000282287598,-0.2750000059604644,-9.609999656677246,0.7350000143051147
1621840564087,5.880000114440918,9.949999809265137,-9.262999534606934,-0.2349999994039535,-9.699999809265137,0.7990000247955322
1621840564097,6.159999847412109,10.229000091552734,-9.640000343322754,-0.2349999994039535,-9.699999809265137,0.7990000247955322
1621840564107,6.090000152587891,10.529000282287598,-9.729000091552734,-0.2349999994039535,-9.699999809265137,0.7990000247955322
1621840564117,6.019999980926514,10.60200023651123,-10.142999649047852,-0.2750000059604644,-9.661999702453612,0.8059999942779541
1621840564127,5.670000076293945,11.093000411987305,-10.909000396728516,-0.2750000059604644,-9.654999732971191,0.7670000195503234
1621840564137,5.845000267028809,11.545000076293944,-11.256000518798828,-0.3140000104904174,-9.654999732971191,0.7670000195503234
1621840564147,6.019999980926514,11.996999740600586,-11.602999687194824,-0.3529999852180481,-9.661999702453612,0.8059999942779541
1621840564157,6.090000152587891,12.991000175476074,-11.996000289916992,-0.3529999852180481,-9.654999732971191,0.7670000195503234
1621840564167,5.880000114440918,13.902999877929688,-12.333000183105469,-0.3919999897480011,-9.668999671936035,0.8439999818801879
1621840564177,5.880000114440918,14.928999900817873,-12.508000373840332,-0.3529999852180481,-9.597999572753906,0.8970000147819519
1621840564187,6.369999885559082,16.079999923706055,-12.58899974822998,-0.3140000104904174,-9.565999984741213,0.9419999718666076
1621840564197,6.929999828338623,17.017000198364258,-13.062999725341797,-0.2750000059604644,-9.565999984741213,0.9419999718666076
1621840564207,7.489999771118165,17.714000701904297,-13.79300022125244,-0.2750000059604644,-9.604999542236328,0.9350000023841856
1621840564217,7.980000019073486,18.73200035095215,-14.324999809265137,-0.2750000059604644,-9.565999984741213,0.9419999718666076
1621840564227,8.1899995803833,19.68899917602539,-14.51200008392334,-0.2750000059604644,-9.597999572753906,0.8970000147819519
1621840564237,8.1899995803833,20.27300071716309,-14.19499969482422,-0.2349999994039535,-9.675000190734863,0.8830000162124633
1621840564247,7.559999942779541,20.77199935913086,-14.604999542236328,-0.1959999948740005,-9.71399974822998,0.8759999871253967
1621840564257,7.139999866485596,21.36000061035156,-14.71399974822998,-0.1959999948740005,-9.675000190734863,0.8830000162124633
1621840564267,6.789999961853027,21.52199935913086,-14.828000068664553,-0.1570000052452087,-9.637000083923342,0.8899999856948853
1621840564277,6.440000057220459,21.992000579833984,-14.673999786376951,-0.1570000052452087,-9.682000160217283,0.921999990940094
1621840564287,5.880000114440918,22.48699951171875,-14.657999992370604,-0.1570000052452087,-9.637000083923342,0.8899999856948853
1621840564297,5.914999961853027,22.792999267578125,-14.781499862670898,-0.1570000052452087,-9.720999717712402,0.915000021457672
1621840564307,5.949999809265137,23.099000930786133,-14.904999732971191,-0.1570000052452087,-9.675000190734863,0.8830000162124633
1621840564317,6.090000152587891,23.55699920654297,-14.682000160217283,-0.1570000052452087,-9.64400005340576,0.9279999732971193
1621840564327,6.369999885559082,24.076000213623047,-14.803999900817873,-0.1570000052452087,-9.675000190734863,0.8830000162124633
1621840564337,6.579999923706055,24.55900001525879,-14.718999862670898,-0.1570000052452087,-9.682000160217283,0.921999990940094
1621840564347,6.440000057220459,24.55900001525879,-14.718999862670898,-0.1180000007152557,-9.71399974822998,0.8759999871253967
1621840564357,6.300000190734863,25.46299934387207,-14.20400047302246,-0.1180000007152557,-9.71399974822998,0.8759999871253967
1621840564367,6.300000190734863,25.98200035095215,-14.326000213623049,-0.1570000052452087,-9.76599979400635,0.9470000267028807
1621840564377,6.300000190734863,26.3799991607666,-14.967000007629396,-0.1180000007152557,-9.73900032043457,0.7919999957084655
1621840564387,5.809999942779541,26.599000930786133,-14.99899959564209,-0.1180000007152557,-9.70699977874756,0.8379999995231628
1621840564397,6.159999847412109,26.756999969482425,-14.687000274658203,-0.1959999948740005,-9.630000114440918,0.8510000109672546
1621840564407,6.440000057220459,26.768999099731445,-14.755999565124512,-0.1570000052452087,-9.616000175476074,0.7739999890327453
1621840564417,6.71999979019165,26.700000762939453,-14.767999649047852,-0.1180000007152557,-9.531999588012695,0.7490000128746032
1621840564427,7.489999771118165,26.65999984741211,-14.135000228881836,-0.1959999948740005,-9.609999656677246,0.7350000143051147
1621840564437,8.609999656677246,26.934999465942383,-14.086999893188477,-0.1959999948740005,-9.616000175476074,0.7739999890327453
1621840564447,9.729999542236328,27.406000137329105,-13.93299961090088,-0.2349999994039535,-9.54599952697754,0.8259999752044677
1621840564457,9.975000381469728,27.714000701904297,-14.26949977874756,-0.2349999994039535,-9.54599952697754,0.8259999752044677
1621840564467,10.220000267028809,28.02199935913086,-14.605999946594238,-0.2349999994039535,-9.5600004196167,0.902999997138977
1621840564477,11.270000457763672,28.517000198364254,-14.590000152587892,-0.2750000059604644,-9.553000450134276,0.865000009536743
1621840564487,12.25,29.30699920654297,-15.44499969482422,-0.2750000059604644,-9.590999603271484,0.8579999804496765
1621840564497,13.159999847412108,30.406000137329105,-16.034000396728516,-0.2349999994039535,-9.513999938964846,0.871999979019165
1621840564507,13.859999656677246,31.1200008392334,-16.049999237060547,-0.2750000059604644,-9.590999603271484,0.8579999804496765
1621840564517,13.789999961853027,32.1619987487793,-16.7189998626709,-0.2750000059604644,-9.637000083923342,0.8899999856948853
1621840564527,14.06999969482422,33.39899826049805,-17.283000946044922,-0.2750000059604644,-9.597999572753906,0.8970000147819519
1621840564537,14.210000038146973,34.303001403808594,-17.97599983215332,-0.2750000059604644,-9.637000083923342,0.8899999856948853
1621840564547,14.350000381469728,35.96500015258789,-18.535999298095703,-0.2750000059604644,-9.656999588012695,1.00600004196167
1621840564557,14.420000076293944,37.64400100708008,-18.381999969482425,-0.2349999994039535,-9.579999923706056,1.0190000534057615
1621840564567,14.840000152587892,39.06700134277344,-17.98900032043457,-0.2349999994039535,-9.53499984741211,0.9879999756813048
1621840564577,15.81999969482422,40.571998596191406,-17.652999877929688,-0.2750000059604644,-9.432000160217283,1.0850000381469729
1621840564587,17.149999618530273,42.38399887084961,-17.048999786376953,-0.2750000059604644,-9.470999717712402,1.0779999494552612
1621840564597,19.11000061035156,44.03900146484375,-16.756999969482422,-0.2349999994039535,-9.522999763488768,1.14900004863739
1621840564607,20.579999923706055,45.29199981689453,-16.60700035095215,-0.2750000059604644,-9.574999809265137,1.218999981880188
1621840564617,22.190000534057617,46.756000518798835,-16.847000122070312,-0.2750000059604644,-9.635000228881836,1.3279999494552612
1621840564627,22.78499984741211,47.5364990234375,-17.24250030517578,-0.3140000104904174,-9.718999862670898,1.3530000448226929
1621840564636,23.3799991607666,48.31700134277344,-17.63800048828125,-0.3140000104904174,-9.73900032043457,1.468999981880188
1621840564646,24.43000030517578,50.12900161743164,-18.242000579833984,-0.3529999852180481,-9.758999824523924,1.5850000381469729
1621840564656,24.63999938964844,52.20500183105469,-18.729000091552734,-0.3140000104904174,-9.649999618530272,1.6440000534057615
1621840564666,25.270000457763672,54.118999481201165,-19.10199928283691,-0.3140000104904174,-9.579999923706056,1.6959999799728394
1621840564676,26.25,56.28400039672851,-20.49799919128418,-0.3140000104904174,-9.508999824523924,1.7489999532699585
1621840564686,27.649999618530273,58.77000045776367,-21.694000244140625,-0.3140000104904174,-9.439000129699709,1.8009999990463257
1621840564696,29.260000228881836,61.31700134277344,-22.027000427246097,-0.2750000059604644,-9.369000434875488,1.8530000448226929
1621840564706,31.010000228881836,63.04399871826172,-22.14900016784668,-0.1959999948740005,-9.369000434875488,1.8530000448226929
1621840564716,32.83000183105469,64.92500305175781,-22.74099922180176,-0.1180000007152557,-9.42099952697754,1.924000024795532
1621840564726,34.09000015258789,66.68099975585938,-22.218000411987305,-0.0780000016093254,-9.595999717712402,2.01200008392334
1621840564736,34.86000061035156,67.87300109863281,-21.724000930786133,-0.0390000008046627,-9.718000411987305,2.0309998989105225
1621840564746,34.58000183105469,69.2040023803711,-21.204999923706055,-0.0390000008046627,-9.692999839782717,2.115000009536743
1621840564756,33.66999816894531,70.6719970703125,-20.66200065612793,-0.0390000008046627,-9.70699977874756,2.191999912261963
1621840564766,32.83000183105469,72.14800262451172,-20.969999313354492,-0.0390000008046627,-9.753000259399414,2.2239999771118164
1621840564776,31.780000686645508,73.6240005493164,-21.27899932861328,0.0,-9.753000259399414,2.2239999771118164
1621840564786,30.520000457763672,75.03500366210938,-20.816999435424805,0.0,-9.642999649047852,2.2829999923706055
1621840564796,29.399999618530273,76.2030029296875,-20.18400001525879,0.0390000008046627,-9.649999618530272,2.321000099182129
1621840564806,28.90999984741211,76.71800231933594,-19.88000106811523,0.0780000016093254,-9.618000030517578,2.3670001029968266
1621840564816,28.420000076293945,77.23300170898438,-19.576000213623047,0.1180000007152557,-9.625,2.4049999713897705
1621840564826,26.8799991607666,77.7229995727539,-19.13400077819824,0.1570000052452087,-9.618000030517578,2.3670001029968266
1621840564836,25.1299991607666,78.34400177001953,-19.024999618530273,0.1180000007152557,-9.612000465393066,2.328000068664551
1621840564846,23.100000381469727,78.59100341796875,-19.621000289916992,0.1180000007152557,-9.656999588012695,2.359999895095825
1621840564856,20.86000061035156,79.1259994506836,-20.23699951171875,0.1570000052452087,-9.734000205993652,2.3459999561309814
1621840564866,18.969999313354492,79.36100006103516,-20.763999938964844,0.1570000052452087,-9.708999633789062,2.430000066757202
1621840564876,16.940000534057617,80.14399719238281,-20.768999099731445,0.2349999994039535,-9.63199996948242,2.444000005722046
1621840564886,15.1899995803833,80.53299713134764,-21.766000747680664,0.2750000059604644,-9.522999763488768,2.503000020980835
1621840564896,14.0,81.24299621582033,-22.565000534057617,0.3140000104904174,-9.413999557495115,2.562000036239624
1621840564906,13.789999961853027,81.9520034790039,-23.36400032043457,0.3529999852180481,-9.329999923706056,2.5369999408721924
1621840564916,14.0,82.11799621582033,-23.902999877929688,0.3919999897480011,-9.343000411987305,2.614000082015991
1621840564926,14.210000038146973,82.3740005493164,-24.14299964904785,0.3919999897480011,-9.30500030517578,2.621000051498413
1621840564936,14.5600004196167,82.87200164794922,-24.552000045776367,0.3529999852180481,-9.30500030517578,2.621000051498413
1621840564946,14.979999542236328,83.375,-25.38800048828125,0.3140000104904174,-9.350000381469728,2.6530001163482666
1621840564956,15.260000228881836,83.93099975585938,-25.715999603271484,0.3919999897480011,-9.472999572753906,2.6710000038146973
1621840564966,15.399999618530272,84.56700134277344,-24.89299964904785,0.3529999852180481,-9.524999618530272,2.7420001029968266
1621840564976,15.470000267028809,85.36199951171875,-23.757999420166016,0.3529999852180481,-9.564000129699709,2.734999895095825
1621840564986,15.539999961853027,85.90599822998047,-22.80900001525879,0.3140000104904174,-9.692999839782717,2.7920000553131104
1621840564996,15.75,86.43699645996094,-21.791000366210938,0.3529999852180481,-9.791000366210936,2.8940000534057617
1621840565006,15.505000114440918,86.70500183105469,-21.49499893188477,0.3529999852180481,-9.791000366210936,2.8940000534057617
1621840565016,15.260000228881836,86.9729995727539,-21.198999404907227,0.3140000104904174,-9.72700023651123,2.984999895095825
1621840565026,15.050000190734863,86.95999908447266,-21.131000518798828,0.2750000059604644,-9.696000099182127,3.0299999713897705
1621840565036,14.770000457763672,87.03299713134764,-21.54400062561035,0.2750000059604644,-9.625,3.0829999446868896
1621840565046,14.630000114440918,87.29299926757812,-22.208999633789062,0.2349999994039535,-9.586999893188477,3.0889999866485596
1621840565056,14.909999847412108,87.36199951171875,-23.405000686645508,0.1959999948740005,-9.55500030517578,3.134999990463257
1621840565066,15.050000190734863,88.0260009765625,-24.354000091552734,0.1570000052452087,-9.55500030517578,3.134999990463257
1621840565076,15.119999885559082,88.02999877929688,-24.780000686645508,0.1570000052452087,-9.562000274658203,3.174000024795532
1621840565086,14.770000457763672,88.00199890136719,-24.215999603271484,0.1570000052452087,-9.645999908447264,3.1989998817443848
1621840565096,14.489999771118164,87.88899993896484,-23.170000076293945,0.1180000007152557,-9.607000350952148,3.2049999237060547
1621840565106,13.789999961853027,87.7509994506836,-21.986000061035156,0.1180000007152557,-9.529999732971191,3.2190001010894775
1621840565116,13.020000457763672,87.39800262451172,-21.19499969482422,0.1180000007152557,-9.413999557495115,3.239000082015991
1621840565126,12.390000343322754,86.9000015258789,-20.785999298095703,0.0780000016093254,-9.26599979400635,3.305000066757202
1621840565136,11.829999923706056,86.43699645996094,-20.58300018310547,0.0,-9.22700023651123,3.312000036239624
1621840565146,11.550000190734863,86.39299774169922,-20.732999801635746,-0.0390000008046627,-9.125,3.4100000858306885
1621840565156,11.6899995803833,85.97100067138672,-21.163000106811523,-0.0780000016093254,-9.04800033569336,3.4230000972747803
1621840565166,11.899999618530272,86.01499938964844,-22.22100067138672,-0.1180000007152557,-8.977999687194824,3.4760000705718994
1621840565176,12.31999969482422,86.18199920654298,-22.76099967956543,-0.1959999948740005,-8.906999588012695,3.5280001163482666
1621840565186,12.529999732971191,86.5989990234375,-23.113000869750977,-0.2750000059604644,-8.862000465393066,3.496000051498413
1621840565196,12.460000038146973,86.84200286865236,-23.284000396728516,-0.3919999897480011,-8.875,3.572999954223633
1621840565206,12.670000076293944,87.53600311279298,-23.58799934387207,-0.5099999904632568,-8.958999633789062,3.5980000495910645
1621840565216,12.460000038146973,89.21900177001953,-23.86000061035156,-0.6280000209808348,-8.972999572753906,3.6760001182556152
1621840565226,11.409999847412108,91.5540008544922,-25.011999130249023,-0.7450000047683715,-9.057000160217283,3.700999975204468
1621840565236,10.744999885559082,92.81500244140624,-25.7135009765625,-0.7850000262260437,-9.192999839782717,3.7960000038146977
1621840565246,10.079999923706056,94.07599639892578,-26.415000915527344,-0.8629999756813049,-9.322999954223633,3.8529999256134033
1621840565256,9.029999732971191,96.99099731445312,-28.03300094604492,-0.9020000100135804,-9.361000061035156,3.8459999561309814
1621840565266,7.420000076293945,99.66400146484376,-29.48200035095215,-0.9409999847412108,-9.399999618530272,3.83899998664856
1621840565276,5.809999942779541,102.36799621582033,-30.711000442504883,-0.8629999756813049,-9.354999542236328,3.8069999217987065
1621840565286,4.480000019073486,105.052001953125,-32.22700119018555,-0.8629999756813049,-9.309000015258787,3.776000022888184
1621840565296,2.940000057220459,108.16200256347656,-33.7400016784668,-0.8629999756813049,-9.225000381469728,3.750999927520752
1621840565306,1.6799999475479126,110.87100219726562,-35.39500045776367,-0.8240000009536743,-9.147999763488768,3.763999938964844
1621840565316,0.7699999809265136,113.38899993896484,-37.58100128173828,-0.7850000262260437,-8.972999572753906,3.6760001182556152
1621840565326,-0.2800000011920929,115.5500030517578,-39.75899887084961,-0.7059999704360961,-8.895999908447266,3.688999891281128
1621840565336,-1.1200000047683716,118.11199951171876,-41.79499816894531,-0.6669999957084655,-8.817999839782715,3.7030000686645503
1621840565346,-0.5600000023841857,120.11900329589844,-43.50199890136719,-0.5879999995231628,-8.857000350952148,3.696000099182129
1621840565356,0.7699999809265136,121.16899871826172,-45.02299880981445,-0.4709999859333038,-8.805000305175781,3.625999927520752
1621840565366,1.4700000286102295,122.5719985961914,-46.125999450683594,-0.3919999897480011,-8.758999824523926,3.5940001010894775
1621840565376,1.75,123.48799896240234,-46.88899993896485,-0.3140000104904174,-8.79800033569336,3.586999893188477
1621840565386,1.8899999856948853,124.4010009765625,-47.22600173950195,-0.2349999994039535,-8.829999923706055,3.5420000553131104
1621840565396,1.8899999856948853,124.91999816894533,-47.34700012207031,-0.1180000007152557,-8.913999557495117,3.566999912261963
1621840565406,2.309999942779541,124.80999755859376,-46.72700119018555,-0.0780000016093254,-8.906999588012695,3.5280001163482666
1621840565416,2.5899999141693115,124.3280029296875,-46.8120002746582,0.0,-8.815999984741211,3.4639999866485596
1621840565426,3.0799999237060547,123.31400299072266,-46.70600128173828,0.0780000016093254,-8.770999908447266,3.431999921798706
1621840565436,3.2899999618530273,121.95999908447266,-45.87900161743164,0.0780000016093254,-8.899999618530273,3.489000082015991
1621840565446,3.5,120.71099853515624,-45.24599838256836,0.0780000016093254,-8.932000160217285,3.444000005722046
1621840565456,3.7100000381469727,119.21099853515624,-44.79999923706055,0.0780000016093254,-8.977999687194824,3.4760000705718994
1621840565466,3.9200000762939458,117.83999633789062,-44.68600082397461,0.0390000008046627,-9.138999938964846,3.486999988555908
1621840565476,4.269999980926514,116.99299621582033,-43.9119987487793,-0.0390000008046627,-9.35200023651123,3.569000005722046
1621840565486,4.480000019073486,116.01100158691406,-43.58700180053711,-0.1959999948740005,-9.43000030517578,3.555000066757202
1621840565496,4.340000152587891,115.91400146484376,-43.0359992980957,-0.2349999994039535,-9.552000045776367,3.572999954223633
1621840565506,4.199999809265137,115.97499847412108,-42.172000885009766,-0.3919999897480011,-9.682000160217283,3.630000114440918
1621840565516,3.989999771118164,116.2509994506836,-41.51900100708008,-0.5099999904632568,-9.843000411987305,3.6419999599456783
1621840565526,3.7799999713897705,116.52700042724608,-40.86600112915039,-0.6669999957084655,-9.92099952697754,3.628000020980835
1621840565536,3.990000009536743,117.8769989013672,-40.05899810791016,-0.981000006198883,-9.71399974822998,3.5850000381469727
1621840565546,4.409999847412109,119.46299743652344,-39.779998779296875,-1.0199999809265137,-9.571000099182127,3.450999975204468
1621840565556,3.9200000762939458,120.82900238037108,-40.67599868774414,-1.2549999952316284,-9.60200023651123,3.4049999713897705
1621840565566,2.7300000190734863,122.96199798583984,-41.082000732421875,-1.491000056266785,-9.531999588012695,3.4579999446868896
1621840565576,1.6799999475479126,125.8249969482422,-40.790000915527344,-1.687000036239624,-9.5,3.503000020980835
1621840565586,-0.0700000002980232,129.68099975585935,-42.10100173950195,-1.843999981880188,-9.454999923706056,3.4709999561309814
1621840565596,-1.9600000381469729,134.52200317382812,-44.1609992980957,-2.000999927520752,-9.437000274658203,3.5940001010894775
1621840565606,-4.130000114440918,140.98599243164062,-44.94100189208984,-2.118000030517578,-9.39099979400635,3.562000036239624
1621840565616,-6.579999923706055,147.21800231933594,-44.40999984741211,-2.197000026702881,-9.274999618530272,3.5820000171661377
1621840565626,-9.100000381469728,153.9499969482422,-44.290000915527344,-2.1570000648498535,-9.274999618530272,3.5820000171661377
1621840565636,-10.920000076293944,160.7220001220703,-42.3849983215332,-2.118000030517578,-9.229999542236328,3.5510001182556152
1621840565646,-12.8100004196167,165.90899658203125,-39.55099868774414,-2.118000030517578,-9.20199966430664,3.3959999084472656
1621840565656,-14.420000076293944,170.86399841308594,-36.61600112915039,-2.0399999618530273,-9.220999717712402,3.2730000019073486
1621840565666,-15.399999618530272,175.2969970703125,-34.34199905395508,-2.000999927520752,-9.26599979400635,3.305000066757202
1621840565676,-16.450000762939453,179.052001953125,-32.257999420166016,-1.9609999656677248,-9.253000259399414,3.2279999256134033
1621840565686,-17.149999618530273,182.0399932861328,-30.665000915527344,-1.843999981880188,-9.322999954223633,3.1760001182556152
1621840565696,-18.270000457763672,185.0449981689453,-29.56599998474121,-1.72599995136261,-9.347999572753906,3.0920000076293945
1621840565706,-19.739999771118164,186.8090057373047,-28.687000274658203,-1.6080000400543213,-9.380000114440918,3.0460000038146973
1621840565716,-21.489999771118164,188.281005859375,-28.569000244140625,-1.491000056266785,-9.303000450134276,3.059999942779541
1621840565726,-23.170000076293945,188.91400146484375,-29.73699951171875,-1.4119999408721924,-9.133999824523924,3.009999990463257
1621840565736,-23.729999542236328,189.2220001220703,-31.88599967956543,-1.2940000295639038,-8.998000144958496,2.9140000343322754
1621840565746,-23.65999984741211,189.53399658203125,-34.46099853515625,-1.1770000457763672,-8.946000099182129,2.8440001010894775
1621840565756,-23.309999465942383,189.23300170898435,-35.58100128173828,-1.0199999809265137,-8.925000190734863,2.7279999256134033
1621840565766,-22.68000030517578,188.4340057373047,-36.290000915527344,-0.9020000100135804,-9.020999908447264,2.5920000076293945
1621840565776,-22.399999618530273,186.38299560546875,-35.941001892089844,-0.6669999957084655,-9.031999588012695,2.430000066757202
1621840565786,-22.190000534057617,183.8040008544922,-34.61899948120117,-0.4709999859333038,-9.057000160217283,2.3459999561309814
1621840565796,-21.489999771118164,180.4510040283203,-31.72699928283691,-0.2750000059604644,-9.159000396728516,2.249000072479248
1621840565806,-20.15999984741211,175.73899841308594,-27.582000732421875,-0.1180000007152557,-9.208999633789062,2.0799999237060547
1621840565816,-19.459999084472656,173.06298828125,-25.708499908447266,0.0,-9.29800033569336,1.906000018119812
1621840565826,-18.760000228881836,170.38699340820312,-23.834999084472656,0.0390000008046627,-9.3100004196167,1.74399995803833
1621840565836,-17.780000686645508,163.98500061035156,-19.774999618530273,0.0,-9.397999763488768,1.569000005722046
1621840565846,-16.799999237060547,157.5709991455078,-15.645999908447266,0.0,-9.447999954223633,1.4010000228881836
1621840565856,-16.100000381469727,150.64500427246094,-12.246999740600586,-0.0780000016093254,-9.505000114440918,1.2719999551773071
1621840565866,-15.75,144.5469970703125,-9.90999984741211,-0.1570000052452087,-9.63199996948242,1.0900000333786013
1621840565876,-15.329999923706056,138.28199768066406,-8.243000030517578,-0.2349999994039535,-9.80500030517578,0.9399999976158142
1621840565886,-15.539999961853027,132.08599853515625,-7.771999835968018,-0.3140000104904174,-9.939000129699709,0.7969999909400939
1621840565896,-16.170000076293945,126.11299896240234,-7.758999824523927,-0.3529999852180481,-10.027999877929688,0.621999979019165
1621840565906,-16.729999542236328,120.37899780273436,-7.489999771118165,-0.3919999897480011,-10.053000450134276,0.5379999876022338
1621840565916,-17.639999389648438,114.49199676513672,-6.750999927520752,-0.5490000247955322,-9.928000450134276,0.2809999883174896
1621840565926,-18.34000015258789,109.45999908447266,-6.429999828338623,-0.5490000247955322,-9.928000450134276,0.2809999883174896
1621840565936,-18.829999923706055,103.96099853515624,-6.689000129699707,-0.5490000247955322,-9.843999862670898,0.2560000121593475
1621840565946,-18.760000228881836,98.90399932861328,-7.438000202178955,-0.5879999995231628,-9.815999984741213,0.101000003516674
1621840565956,-18.899999618530273,94.11100006103516,-8.069999694824219,-0.6280000209808348,-9.718999862670898,-0.0010000000474974
1621840565966,-19.38999938964844,89.73600006103516,-9.05500030517578,-0.6669999957084655,-9.65999984741211,-0.1099999994039535
1621840565976,-19.530000686645508,85.38099670410156,-9.751999855041506,-0.6669999957084655,-9.586999893188477,-0.2960000038146972
1621840565986,-19.670000076293945,81.62999725341797,-9.845000267028809,-0.5879999995231628,-9.619000434875488,-0.3420000076293945
1621840565996,-19.950000762939453,77.86299896240233,-9.442999839782717,-0.5879999995231628,-9.604999542236328,-0.4189999997615814
1621840566006,-20.15999984741211,73.93699645996094,-9.352999687194824,-0.5879999995231628,-9.47599983215332,-0.4760000109672546
1621840566016,-19.739999771118164,69.93099975585938,-9.206000328063965,-0.5879999995231628,-9.385000228881836,-0.5400000214576721
1621840566026,-18.6200008392334,66.1760025024414,-8.873000144958496,-0.5490000247955322,-9.33899974822998,-0.5709999799728394
1621840566036,-16.8700008392334,62.63999938964844,-8.572999954223633,-0.5879999995231628,-9.255000114440918,-0.5960000157356262
1621840566046,-14.5600004196167,59.457000732421875,-9.062999725341797,-0.5879999995231628,-9.157999992370604,-0.6990000009536743
1621840566056,-12.25,56.23699951171875,-9.345999717712402,-0.5490000247955322,-9.18299961090088,-0.7829999923706054
1621840566066,-9.800000190734863,53.077999114990234,-9.975000381469728,-0.5879999995231628,-9.130000114440918,-0.8529999852180481
1621840566076,-7.699999809265136,50.256000518798835,-10.89900016784668,-0.6280000209808348,-9.175999641418455,-0.8209999799728394
1621840566086,-6.019999980926514,47.63999938964844,-11.78600025177002,-0.5879999995231628,-9.28499984741211,-0.8799999952316284
1621840566096,-5.355000019073486,46.387001037597656,-12.539999961853027,-0.6280000209808348,-9.208000183105469,-0.8669999837875366
1621840566106,-4.690000057220459,45.13399887084961,-13.293999671936035,-0.6280000209808348,-9.270999908447264,-0.9580000042915344
1621840566116,-4.130000114440918,42.652000427246094,-14.9399995803833,-0.6280000209808348,-9.43299961090088,-0.9459999799728392
1621840566126,-4.480000019073486,40.58000183105469,-16.08799934387207,-0.6280000209808348,-9.401000022888184,-0.9010000228881836
1621840566136,-4.409999847412109,38.722999572753906,-15.633000373840332,-0.5099999904632568,-9.12399959564209,-0.8920000195503234
1621840566146,-5.25,36.45199966430664,-15.251999855041504,-0.3529999852180481,-8.994000434875488,-0.9490000009536744
1621840566156,-5.949999809265137,34.16899871826172,-14.800999641418455,-0.3919999897480011,-9.187000274658203,-0.9829999804496764
1621840566166,-6.369999885559082,31.76499938964844,-13.661999702453612,-0.4309999942779541,-9.586999893188477,-0.9729999899864196
1621840566176,-5.949999809265137,29.98500061035156,-15.255000114440918,-0.5490000247955322,-10.057000160217283,-1.0169999599456787
1621840566186,-5.25,28.87299919128418,-18.222999572753903,-0.6669999957084655,-10.411999702453612,-1.0390000343322754
1621840566196,-5.039999961853027,28.743000030517575,-21.516000747680664,-0.6669999957084655,-10.612000465393066,-1.0349999666213987
1621840566206,-4.900000095367432,27.97599983215332,-23.21500015258789,-0.6669999957084655,-10.612000465393066,-1.0349999666213987
1621840566216,-4.829999923706055,26.763999938964844,-20.371999740600582,-0.7059999704360961,-10.380000114440918,-0.9940000176429749
1621840566226,-4.900000095367432,25.118999481201172,-14.265000343322754,-0.7059999704360961,-10.026000022888184,-0.9710000157356262
1621840566236,-4.96999979019165,22.488000869750977,-7.407999992370605,-0.7059999704360961,-9.748000144958496,-0.962000012397766
1621840566246,-4.550000190734863,19.825000762939453,-0.7689999938011169,-0.7850000262260437,-9.562000274658203,-0.8889999985694885
1621840566256,-4.130000114440918,17.32699966430664,2.913000106811523,-0.8240000009536743,-9.446000099182127,-0.8690000176429749
1621840566266,-3.430000066757202,15.49899959564209,2.803999900817871,-0.8629999756813049,-9.446000099182127,-0.8690000176429749
1621840566275,-3.430000066757202,14.812999725341797,-0.1599999964237213,-0.8629999756813049,-9.529999732971191,-0.8439999818801879
1621840566285,-3.569999933242798,14.381999969482422,-4.572000026702881,-0.9020000100135804,-9.621000289916992,-0.7799999713897705
1621840566295,-4.340000152587891,13.914999961853027,-9.984999656677246,-0.9020000100135804,-9.621000289916992,-0.7799999713897705
1621840566305,-5.389999866485596,13.842000007629396,-14.404999732971191,-0.8629999756813049,-9.65999984741211,-0.787000000476837
1621840566315,-6.71999979019165,13.038000106811523,-17.106000900268555,-0.7850000262260437,-9.737000465393066,-0.8009999990463256
1621840566325,-7.980000019073486,12.491000175476074,-17.628999710083008,-0.7450000047683715,-9.729999542236328,-0.8389999866485595
1621840566335,-9.3100004196167,11.128000259399414,-18.367000579833984,-0.6669999957084655,-9.61400032043457,-0.8190000057220459
1621840566345,-9.55500030517578,10.468999862670898,-18.660499572753903,-0.6280000209808348,-9.6850004196167,-0.8709999918937683
1621840566355,-9.800000190734863,9.8100004196167,-18.95400047302246,-0.5490000247955322,-9.871000289916992,-0.944000005722046
1621840566365,-11.550000190734863,9.020000457763674,-18.099000930786133,-0.5490000247955322,-10.102999687194824,-0.9850000143051147
1621840566375,-15.329999923706056,7.936999797821045,-16.797000885009766,-0.5490000247955322,-10.18000030517578,-0.9980000257492064
1621840566385,-20.579999923706055,6.859000205993652,-15.92099952697754,-0.5879999995231628,-10.256999969482422,-1.0119999647140503
1621840566395,-25.969999313354492,6.947999954223633,-15.621000289916992,-0.6669999957084655,-10.18000030517578,-0.9980000257492064
1621840566405,-31.780000686645508,7.239999771118165,-14.857999801635742,-0.6669999957084655,-10.135000228881836,-1.0299999713897705
1621840566415,-37.2400016784668,8.298999786376953,-13.605999946594238,-0.7059999704360961,-10.229999542236328,-1.1670000553131104
1621840566425,-42.279998779296875,9.72599983215332,-13.637999534606934,-0.6669999957084655,-10.642000198364258,-1.319000005722046
1621840566435,-49.77000045776367,11.182000160217283,-14.234999656677246,-0.6280000209808348,-10.918999671936035,-1.3279999494552612
1621840566445,-59.5,12.402000427246094,-14.303999900817873,-0.5490000247955322,-11.003000259399414,-1.3029999732971191
1621840566455,-70.48999786376953,13.083000183105469,-14.538999557495115,-0.4309999942779541,-10.720999717712402,-1.093999981880188
1621840566465,-78.68000030517578,13.343000411987305,-15.20400047302246,-0.4709999859333038,-10.29599952697754,-1.0190000534057615
1621840566475,-82.73999786376953,14.081000328063965,-16.566999435424805,-0.4709999859333038,-10.083000183105469,-1.10099995136261
1621840566485,-83.72000122070312,15.515999794006348,-18.659000396728516,-0.5099999904632568,-9.78499984741211,-1.2079999446868896
1621840566495,-82.45999908447266,16.261999130249023,-19.665000915527344,-0.4709999859333038,-9.68000030517578,-1.3480000495910645
1621840566505,-79.94000244140625,17.770000457763672,-19.753999710083008,-0.3529999852180481,-9.388999938964846,-1.4170000553131104
1621840566515,-75.25,18.799999237060547,-19.145999908447266,-0.3529999852180481,-9.008000373840332,-1.5479999780654907
1621840566525,-68.18000030517578,19.214000701904297,-17.864999771118164,-0.3529999852180481,-8.70300006866455,-1.694000005722046
1621840566535,-57.959999084472656,19.85099983215332,-17.04199981689453,-0.2349999994039535,-8.366999626159668,-1.7940000295639038
1621840566545,-46.27000045776367,20.138999938964844,-17.062000274658203,-0.1570000052452087,-8.152999877929688,-1.8760000467300415
1621840566555,-35.06999969482422,19.972999572753903,-16.523000717163086,-0.1570000052452087,-7.972000122070312,-2.003000020980835
1621840566565,-29.260000228881836,19.751998901367188,-15.673500061035156,-0.1180000007152557,-7.913000106811523,-2.111999988555908
1621840566575,-23.450000762939453,19.531000137329105,-14.824000358581545,-0.0780000016093254,-7.931000232696533,-2.234999895095825
1621840566585,-12.670000076293944,19.961000442504883,-12.82900047302246,0.0,-8.008000373840332,-2.247999906539917
1621840566595,-1.8899999856948853,20.038000106811523,-11.25100040435791,0.0390000008046627,-8.04699993133545,-2.255000114440918
1621840566605,8.119999885559082,19.13800048828125,-10.984000205993652,0.0390000008046627,-7.9629998207092285,-2.2799999713897705
1621840566615,17.5,18.3799991607666,-11.116999626159668,0.1180000007152557,-7.854000091552734,-2.2209999561309814
1621840566625,26.739999771118164,18.051000595092773,-11.67300033569336,0.1959999948740005,-7.822000026702882,-2.1760001182556152
1621840566635,35.06999969482422,17.466999053955078,-11.98900032043457,0.2750000059604644,-7.906000137329101,-2.1510000228881836
1621840566645,42.630001068115234,16.777999877929688,-12.111000061035156,0.3140000104904174,-8.003000259399414,-2.049000024795532
1621840566655,49.06999969482422,15.987000465393066,-12.463000297546388,0.2750000059604644,-8.267000198364258,-2.134999990463257
1621840566665,52.849998474121094,15.059000015258787,-11.631999969482422,0.3140000104904174,-8.75100040435791,-2.1010000705718994
1621840566675,54.18000030517578,14.973999977111816,-9.940999984741213,0.3529999852180481,-9.081000328063965,-2.0390000343322754
1621840566685,53.83000183105469,14.54800033569336,-8.736000061035156,0.3919999897480011,-9.229999542236328,-1.8669999837875368
1621840566695,52.5,14.086000442504885,-7.324999809265136,0.3919999897480011,-9.218999862670898,-1.7050000429153442
1621840566705,51.2400016784668,14.163000106811523,-5.748000144958496,0.3529999852180481,-9.291999816894531,-1.5190000534057615
1621840566715,50.119998931884766,13.746000289916992,-4.186999797821045,0.3529999852180481,-9.279999732971191,-1.3580000400543213
1621840566725,49.209999084472656,13.87600040435791,-3.311000108718872,0.3919999897480011,-9.352999687194824,-1.1710000038146973
1621840566735,48.22999954223633,14.5,-3.627000093460083,0.3529999852180481,-9.503000259399414,-0.9990000128746032
1621840566745,46.54999923706055,14.711000442504885,-4.015999794006348,0.3529999852180481,-9.762000083923342,-0.8849999904632568
1621840566755,43.470001220703125,13.868000030517578,-3.6679999828338623,0.3919999897480011,-9.982000350952148,-0.7639999985694885
1621840566765,38.849998474121094,13.588000297546388,-3.2899999618530273,0.4309999942779541,-10.17099952697754,-0.5979999899864196
1621840566775,34.15999984741211,13.133999824523926,-2.7309999465942383,0.4709999859333038,-10.366000175476074,-0.3939999938011169
1621840566785,32.025001525878906,12.699999809265137,-3.0920000076293945,0.4309999942779541,-10.432000160217283,-0.2460000067949295
1621840566795,29.88999938964844,12.265999794006348,-3.453000068664551,0.5099999904632568,-10.52299976348877,-0.1829999983310699
1621840566805,26.38999938964844,11.137999534606934,-4.7179999351501465,0.4709999859333038,-10.498000144958496,-0.0989999994635581
1621840566815,24.079999923706055,9.472000122070312,-4.940000057220459,0.4309999942779541,-10.350000381469728,-0.032999999821186
1621840566825,23.520000457763672,8.185999870300293,-5.309000015258789,0.4709999859333038,-10.286999702453612,0.0579999983310699
1621840566835,22.959999084472656,6.304999828338623,-4.7170000076293945,0.5099999904632568,-10.324999809265137,0.0509999990463256
1621840566845,22.469999313354492,3.9449999332427974,-3.427000045776367,0.5490000247955322,-10.416000366210936,0.1150000020861625
1621840566855,21.6299991607666,1.1840000152587893,-3.486999988555908,0.5099999904632568,-10.416000366210936,0.1150000020861625
1621840566865,19.670000076293945,-1.156000018119812,-5.534999847412109,0.3919999897480011,-10.840999603271484,0.0399999991059303
1621840566875,16.3799991607666,-2.446000099182129,-6.685999870300293,0.3140000104904174,-10.96399974822998,0.0579999983310699
1621840566885,11.409999847412108,-2.7139999866485596,-10.003000259399414,0.1959999948740005,-10.961999893188477,-0.1800000071525573
1621840566895,7.210000038146973,-1.3890000581741333,-12.684000015258787,0.1570000052452087,-10.878000259399414,-0.2049999982118606
1621840566905,4.130000114440918,-0.1319999992847442,-15.376999855041504,0.0780000016093254,-10.734999656677246,-0.3389999866485595
1621840566915,1.399999976158142,2.0940001010894775,-18.325000762939453,-0.0780000016093254,-10.668999671936035,-0.4869999885559082
1621840566925,0.5600000023841857,4.870999813079834,-19.96699905395508,-0.0390000008046627,-10.42300033569336,-0.5230000019073486
1621840566935,0.2800000011920929,7.998000144958496,-20.767000198364254,-0.0780000016093254,-10.255000114440918,-0.5730000138282775
1621840566945,-0.699999988079071,11.447999954223633,-20.584999084472656,-0.1180000007152557,-10.227999687194824,-0.7279999852180481
1621840566955,-2.309999942779541,15.260000228881836,-19.628000259399418,-0.1180000007152557,-10.079999923706056,-0.662000000476837
1621840566965,-4.269999980926514,18.468000411987305,-18.06800079345703,-0.0780000016093254,-9.854999542236328,-0.5830000042915344
1621840566975,-5.460000038146973,21.599000930786133,-15.666999816894531,0.0,-9.654999732971191,-0.5870000123977661
1621840566985,-5.074999809265137,22.88249969482422,-14.481499671936035,0.1570000052452087,-9.461999893188477,-0.5529999732971191
1621840566995,-4.690000057220459,24.166000366210938,-13.29599952697754,0.2349999994039535,-9.33899974822998,-0.5709999799728394
1621840567005,-2.940000057220459,26.006999969482425,-13.255000114440918,0.3140000104904174,-9.222999572753906,-0.5509999990463256
1621840567015,-0.7699999809265136,27.121999740600582,-13.130000114440918,0.5490000247955322,-9.093999862670898,-0.6079999804496765
1621840567025,1.2599999904632568,27.00900077819824,-12.083999633789064,0.6669999957084655,-9.133000373840332,-0.615000009536743
1621840567035,2.5199999809265137,26.461000442504883,-10.1899995803833,0.7450000047683715,-9.107999801635742,-0.5299999713897705
1621840567045,3.2200000286102295,25.281999588012695,-8.336999893188477,0.8629999756813049,-9.197999954223633,-0.4670000076293945
1621840567055,3.430000066757202,23.17300033569336,-6.860000133514404,0.9409999847412108,-9.366999626159668,-0.4169999957084655
1621840567065,2.6600000858306885,21.364999771118164,-5.4730000495910645,0.981000006198883,-9.520999908447264,-0.4440000057220459
1621840567075,2.0299999713897705,19.000999450683594,-4.966000080108643,0.9409999847412108,-9.597999572753906,-0.4580000042915344
1621840567085,1.190000057220459,17.204999923706055,-4.855999946594238,0.8629999756813049,-9.630000114440918,-0.5030000209808348
1621840567095,1.5399999618530271,15.611000061035156,-5.493000030517578,0.7850000262260437,-9.538999557495115,-0.5669999718666076
1621840567105,2.450000047683716,14.38599967956543,-6.205999851226807,0.7059999704360961,-9.571000099182127,-0.6119999885559082
1621840567115,3.7100000381469727,13.644000053405762,-6.835000038146973,0.5879999995231628,-9.788999557495115,-0.7300000190734863
1621840567125,4.550000190734863,12.88599967956543,-8.177000045776367,0.5099999904632568,-9.897999763488768,-0.7889999747276306
1621840567135,4.900000095367432,12.152000427246094,-8.447999954223633,0.5099999904632568,-10.0600004196167,-0.777999997138977
1621840567145,5.599999904632568,11.43000030517578,-8.788999557495117,0.4709999859333038,-10.119000434875488,-0.6690000295639038
1621840567155,5.599999904632568,11.031999588012695,-9.355999946594238,0.4709999859333038,-10.17099952697754,-0.5979999899864196
1621840567165,5.320000171661377,10.366999626159668,-9.616000175476074,0.4709999859333038,-10.178000450134276,-0.5600000023841857
1621840567175,5.494999885559082,9.859999656677246,-10.167499542236328,0.4709999859333038,-10.02299976348877,-0.5329999923706054
1621840567185,5.670000076293945,9.352999687194824,-10.718999862670898,0.4709999859333038,-9.80500030517578,-0.414000004529953
1621840567195,6.440000057220459,8.310999870300293,-12.465999603271484,0.4709999859333038,-9.604999542236328,-0.4189999997615814
1621840567205,7.769999980926514,7.171000003814697,-13.661999702453612,0.4709999859333038,-9.572999954223633,-0.3740000128746032
1621840567215,9.029999732971191,5.84499979019165,-13.39900016784668,0.4709999859333038,-9.593999862670898,-0.2579999864101409
1621840567225,10.010000228881836,4.547999858856201,-11.281999588012695,0.4309999942779541,-9.762000083923342,-0.2080000042915344
1621840567235,9.100000381469728,3.1010000705718994,-9.119999885559082,0.3529999852180481,-9.93000030517578,-0.1580000072717666
1621840567245,7.280000209808349,1.52400004863739,-6.625999927520752,0.3140000104904174,-10.0600004196167,-0.101000003516674
1621840567255,4.550000190734863,0.3600000143051147,-4.059000015258789,0.1959999948740005,-10.065999984741213,-0.061999998986721
1621840567265,2.1700000762939453,-0.8069999814033508,-2.2750000953674316,0.0390000008046627,-9.932000160217283,0.0810000002384185
1621840567275,0.4199999868869781,-1.39900004863739,-1.7389999628067017,0.0,-9.732000350952148,0.0759999975562095
1621840567285,0.0,-1.5700000524520874,-1.9830000400543213,-0.0780000016093254,-9.616999626159668,0.0970000028610229
1621840567295,0.4199999868869781,-1.508999943733215,-2.3269999027252197,-0.1959999948740005,-9.557000160217283,-0.0120000001043081
1621840567305,0.4199999868869781,-0.9129999876022338,-3.288000106811523,-0.2750000059604644,-9.505000114440918,-0.0829999968409538
1621840567315,-0.3499999940395355,0.003000000026077,-4.051000118255615,-0.3140000104904174,-9.621000289916992,-0.1030000001192092
1621840567325,-1.190000057220459,1.0049999952316284,-5.296000003814697,-0.3140000104904174,-9.621000289916992,-0.1030000001192092
1621840567335,-2.6600000858306885,2.062999963760376,-6.460000038146973,-0.3140000104904174,-9.536999702453612,-0.1280000060796737
1621840567345,-3.1500000953674316,2.663000106811523,-7.847000122070312,-0.3140000104904174,-9.45300006866455,-0.152999997138977
1621840567355,-3.2200000286102295,3.624000072479248,-8.458999633789062,-0.3140000104904174,-9.529999732971191,-0.1669999957084655
1621840567365,-3.115000009536743,3.877500057220459,-8.48550033569336,-0.3529999852180481,-9.562000274658203,-0.2119999974966049
1621840567375,-3.009999990463257,4.13100004196167,-8.51200008392334,-0.3529999852180481,-9.470999717712402,-0.2759999930858612
1621840567385,-2.380000114440918,4.1020002365112305,-9.156999588012695,-0.3529999852180481,-9.387000083923342,-0.3009999990463256
1621840567395,-0.9100000262260436,4.111000061035156,-8.800000190734863,-0.3529999852180481,-9.484999656677246,-0.1990000009536743
1621840567405,0.8399999737739563,3.9769999980926514,-8.041999816894531,-0.3529999852180481,-9.55500030517578,-0.2509999871253967
1621840567415,1.6100000143051147,4.357999801635742,-6.979000091552734,-0.2750000059604644,-9.748000144958496,-0.2849999964237213
1621840567425,1.6100000143051147,4.548999786376953,-6.447999954223633,-0.2750000059604644,-9.902999877929688,-0.3120000064373016
1621840567435,-0.0700000002980232,4.480000019073486,-5.251999855041504,-0.2349999994039535,-9.979999542236328,-0.3260000050067901
1621840567445,-2.240000009536743,4.5370001792907715,-3.961999893188477,-0.1959999948740005,-9.9350004196167,-0.3580000102519989
1621840567455,-3.569999933242798,4.083000183105469,-3.4030001163482666,-0.1570000052452087,-9.857000350952148,-0.3440000116825103
1621840567465,-4.199999809265137,3.5799999237060547,-3.776000022888184,-0.1180000007152557,-9.70300006866455,-0.31700000166893
1621840567475,-4.340000152587891,3.1579999923706055,-4.204999923706055,-0.1180000007152557,-9.527999877929688,-0.4050000011920929
1621840567485,-3.359999895095825,2.7929999828338623,-4.553999900817871,-0.1570000052452087,-9.496000289916992,-0.3600000143051147
1621840567495,-2.380000114440918,2.436000108718872,-4.546000003814697,-0.1959999948740005,-9.48900032043457,-0.3989999890327453
1621840567505,-1.75,2.436000108718872,-4.546000003814697,-0.2750000059604644,-9.604999542236328,-0.4189999997615814
1621840567515,-1.399999976158142,2.075999975204468,-4.111999988555908,-0.3140000104904174,-9.753000259399414,-0.4850000143051147
1621840567525,-2.1700000762939453,2.306999921798706,-4.2129998207092285,-0.3919999897480011,-9.822999954223633,-0.537000000476837
1621840567535,-2.940000057220459,2.4649999141693115,-3.901000022888184,-0.3919999897480011,-9.887000083923342,-0.6280000209808348
1621840567545,-3.325000047683716,2.553999900817871,-3.6010000705718994,-0.4309999942779541,-9.862000465393066,-0.5440000295639038
1621840567555,-3.7100000381469727,2.6429998874664307,-3.3010001182556152,-0.4309999942779541,-9.847999572753906,-0.6209999918937683
1621840567565,-4.059999942779541,2.8829998970031734,-3.0460000038146973,-0.4709999859333038,-9.803000450134276,-0.652999997138977
1621840567575,-4.619999885559082,3.499000072479248,-2.510999917984009,-0.5099999904632568,-9.79599952697754,-0.6919999718666076
1621840567585,-4.619999885559082,3.8069999217987065,-2.243000030517578,-0.4709999859333038,-9.744000434875488,-0.762000024318695
1621840567595,-4.130000114440918,4.038000106811523,-2.3440001010894775,-0.4709999859333038,-9.729999542236328,-0.8389999866485595
1621840567605,-3.569999933242798,4.171999931335449,-3.1029999256134033,-0.4709999859333038,-9.621000289916992,-0.7799999713897705
1621840567615,-3.0799999237060547,4.224999904632568,-3.803999900817871,-0.4709999859333038,-9.529999732971191,-0.8439999818801879
1621840567625,-1.6799999475479126,4.1519999504089355,-4.598999977111816,-0.4309999942779541,-9.536999702453612,-0.8050000071525573
1621840567635,-0.9800000190734864,3.7950000762939458,-4.591000080108643,-0.4709999859333038,-9.666999816894531,-0.7490000128746032
1621840567645,-0.9100000262260436,3.9210000038146977,-4.498000144958496,-0.4709999859333038,-9.628000259399414,-0.7419999837875366
1621840567655,-1.3300000429153442,3.8429999351501465,-4.867000102996826,-0.5099999904632568,-9.729999542236328,-0.8389999866485595
1621840567665,-1.8200000524520872,3.799000024795532,-5.017000198364258,-0.5490000247955322,-9.885000228881836,-0.8669999837875366
1621840567675,-2.869999885559082,4.144000053405762,-4.955999851226807,-0.5490000247955322,-9.93000030517578,-0.8349999785423278
1621840567685,-3.6400001049041744,4.306000232696533,-5.068999767303467,-0.5879999995231628,-9.878000259399414,-0.9049999713897704
1621840567695,-4.409999847412109,4.422999858856201,-5.333000183105469,-0.5879999995231628,-9.833000183105469,-0.9369999766349792
1621840567705,-4.340000152587891,4.135000228881836,-5.313000202178955,-0.5879999995231628,-9.819000244140623,-1.0140000581741333
1621840567715,-4.130000114440918,4.281000137329102,-4.931000232696533,-0.5490000247955322,-9.85099983215332,-1.059999942779541
1621840567725,-4.199999809265137,4.362500190734863,-4.98799991607666,-0.5490000247955322,-9.79800033569336,-1.1299999952316284
1621840567735,-4.269999980926514,4.443999767303467,-5.045000076293945,-0.5490000247955322,-9.71399974822998,-1.1549999713897705
1621840567745,-3.7100000381469727,4.224999904632568,-5.013000011444092,-0.5490000247955322,-9.675999641418455,-1.1480000019073486
1621840567755,-2.7300000190734863,3.8559999465942383,-4.934999942779541,-0.5099999904632568,-9.637000083923342,-1.1419999599456787
1621840567765,-1.6100000143051147,3.4579999446868896,-5.502999782562256,-0.4709999859333038,-9.637000083923342,-1.1419999599456787
1621840567775,-0.209999993443489,2.424000024795532,-5.684999942779541,-0.3140000104904174,-9.630000114440918,-1.1799999475479126
1621840567785,0.0,1.5440000295639038,-6.3379998207092285,-0.1180000007152557,-9.637000083923342,-1.1419999599456787
1621840567795,0.209999993443489,-1.1690000295639038,-6.673999786376953,0.1180000007152557,-9.604999542236328,-1.0959999561309814
1621840567805,0.0700000002980232,-5.743000030517578,-6.130000114440918,0.2750000059604644,-9.604999542236328,-1.0959999561309814
1621840567815,0.209999993443489,-11.447999954223633,-5.2170000076293945,0.3529999852180481,-9.579999923706056,-1.0119999647140503
1621840567825,0.699999988079071,-17.368000030517578,-4.697000026702881,0.3919999897480011,-9.56700038909912,-1.0889999866485596
1621840567835,0.9800000190734864,-23.26799964904785,-5.0980000495910645,0.3919999897480011,-9.572999954223633,-1.0509999990463257
1621840567845,1.3300000429153442,-28.32900047302246,-5.421999931335449,0.2349999994039535,-9.612000465393066,-1.0579999685287476
1621840567855,1.2599999904632568,-31.864999771118164,-6.328999996185303,0.0780000016093254,-9.727999687194824,-1.0779999494552612
1621840567865,0.5600000023841857,-34.29800033569336,-7.043000221252441,-0.1570000052452087,-9.727999687194824,-1.0779999494552612
1621840567875,-0.4900000095367431,-35.20600128173828,-7.131999969482422,-0.3919999897480011,-9.80500030517578,-1.0920000076293943
1621840567885,-1.1200000047683716,-34.310001373291016,-6.973999977111816,-0.5879999995231628,-9.843999862670898,-1.0980000495910645
1621840567895,-1.8200000524520872,-32.672000885009766,-6.186999797821045,-0.7850000262260437,-9.843999862670898,-1.0980000495910645
1621840567905,-2.380000114440918,-30.527000427246097,-5.453999996185303,-0.9409999847412108,-9.80500030517578,-1.0920000076293943
1621840567914,-2.2750000953674316,-29.25749969482422,-5.194499969482422,-1.0980000495910645,-9.727999687194824,-1.0779999494552612
1621840567924,-2.1700000762939453,-27.988000869750977,-4.934999942779541,-1.2549999952316284,-9.689000129699709,-1.0709999799728394
1621840567934,-1.0499999523162842,-24.788999557495117,-4.940000057220459,-1.4119999408721924,-9.657999992370604,-1.0260000228881836
1621840567944,-0.2800000011920929,-20.933000564575195,-5.040999889373779,-1.6080000400543213,-9.56700038909912,-1.0889999866485596
1621840567954,0.2800000011920929,-16.350000381469727,-5.229000091552734,-1.72599995136261,-9.604999542236328,-1.0959999561309814
1621840567964,1.0499999523162842,-11.013999938964844,-4.855999946594238,-1.8830000162124632,-9.64400005340576,-1.1030000448226929
1621840567974,1.3300000429153442,-4.0269999504089355,-4.974999904632568,-2.0399999618530273,-9.604999542236328,-1.0959999561309814
1621840567984,1.6100000143051147,3.7539999485015874,-5.166999816894531,-2.236000061035156,-9.572999954223633,-1.0509999990463257
1621840567994,2.1700000762939453,12.435999870300291,-5.625999927520752,-2.313999891281128,-9.612000465393066,-1.0579999685287476
1621840568004,2.7300000190734863,21.52300071716309,-6.36899995803833,-2.2750000953674316,-9.619000434875488,-1.0190000534057615
1621840568014,3.1500000953674316,30.43600082397461,-5.7220001220703125,-2.236000061035156,-9.619000434875488,-1.0190000534057615
1621840568024,3.7799999713897705,37.641998291015625,-4.664000034332275,-2.0399999618530273,-9.619000434875488,-1.0190000534057615
1621840568034,3.6400001049041744,43.60300064086914,-3.4000000953674316,-1.8830000162124632,-9.619000434875488,-1.0190000534057615
1621840568044,3.6400001049041744,47.832000732421875,-2.7960000038146973,-1.569000005722046,-9.619000434875488,-1.0190000534057615
1621840568054,3.359999895095825,49.737998962402344,-2.318000078201294,-1.2549999952316284,-9.696000099182127,-1.0329999923706057
1621840568064,2.240000009536743,50.26100158691406,-1.656999945640564,-0.9409999847412108,-9.80500030517578,-1.0920000076293943
1621840568074,0.209999993443489,49.483001708984375,-0.8709999918937683,-0.7059999704360961,-9.928000450134276,-1.0729999542236328
1621840568084,-2.309999942779541,47.569000244140625,-0.4970000088214874,-0.4309999942779541,-9.967000007629396,-1.0800000429153442
1621840568094,-4.059999942779541,44.42599868774414,-0.4120000004768371,-0.2349999994039535,-10.057000160217283,-1.0169999599456787
1621840568104,-6.230000019073486,40.13999938964844,0.1120000034570694,0.0780000016093254,-10.11400032043457,-1.1460000276565552
1621840568114,-7.140000343322754,37.488502502441406,0.6395000219345092,0.1959999948740005,-10.069000244140623,-1.1779999732971191
1621840568124,-8.050000190734863,34.83700180053711,1.1670000553131104,0.3529999852180481,-9.907999992370604,-1.1890000104904177
1621840568134,-9.59000015258789,28.798999786376953,1.950000047683716,0.4709999859333038,-9.822999954223633,-1.2139999866485596
1621840568144,-10.149999618530272,21.836000442504883,1.930999994277954,0.5490000247955322,-9.760000228881836,-1.1230000257492063
1621840568154,-9.729999542236328,14.395000457763672,1.4010000228881836,0.5490000247955322,-9.720999717712402,-1.1169999837875366
1621840568164,-8.890000343322754,7.111999988555908,-0.025000000372529,0.4709999859333038,-9.753000259399414,-1.1619999408721924
1621840568174,-8.399999618530273,0.5759999752044677,-1.2489999532699585,0.3529999852180481,-9.79800033569336,-1.1299999952316284
1621840568184,-8.260000228881836,-5.353000164031982,-2.2939999103546143,0.1959999948740005,-9.760000228881836,-1.1230000257492063
1621840568194,-8.329999923706055,-10.33199977874756,-2.674999952316284,0.0780000016093254,-9.939000129699709,-1.2350000143051147
1621840568204,-8.819999694824219,-14.038999557495115,-2.618000030517578,-0.1959999948740005,-9.939000129699709,-1.2350000143051147
1621840568214,-9.449999809265137,-16.548999786376953,-1.2829999923706057,-0.3140000104904174,-9.791999816894531,-1.1690000295639038
1621840568224,-9.100000381469728,-18.48699951171875,-0.7720000147819519,-0.4309999942779541,-9.637000083923342,-1.1419999599456787
1621840568234,-8.260000228881836,-20.079999923706055,-0.2000000029802322,-0.5099999904632568,-9.404999732971191,-1.10099995136261
1621840568244,-6.789999961853027,-20.68400001525879,1.6130000352859497,-0.5879999995231628,-9.211999893188477,-1.0670000314712524
1621840568254,-4.760000228881836,-20.944000244140625,2.2780001163482666,-0.6669999957084655,-9.187000274658203,-0.9829999804496764
1621840568264,-2.5199999809265137,-20.871000289916992,1.8639999628067017,-0.7450000047683715,-9.263999938964846,-0.9959999918937684
1621840568274,-0.5600000023841857,-20.55500030517578,1.2799999713897705,-0.7850000262260437,-9.31700038909912,-0.9259999990463256
1621840568284,0.4199999868869781,-19.718999862670895,0.574999988079071,-0.8240000009536743,-9.39400005340576,-0.9390000104904174
1621840568294,1.6100000143051147,-18.697999954223633,-0.3829999864101409,-0.8629999756813049,-9.439000129699709,-0.9079999923706054
1621840568304,2.240000009536743,-17.180999755859375,-1.3240000009536743,-0.8629999756813049,-9.633000373840332,-0.9419999718666076
1621840568314,3.1500000953674316,-15.446000099182127,-2.296999931335449,-0.8629999756813049,-9.755000114440918,-0.9229999780654908
1621840568324,3.0799999237060547,-13.697999954223633,-3.3389999866485596,-0.8240000009536743,-9.852999687194824,-0.8209999799728394
1621840568334,3.009999990463257,-12.692500114440918,-3.801499843597412,-0.7850000262260437,-9.866999626159668,-0.7440000176429749
1621840568344,2.940000057220459,-11.687000274658203,-4.263999938964844,-0.7059999704360961,-9.803000450134276,-0.652999997138977
1621840568354,3.849999904632568,-10.081000328063965,-4.90500020980835,-0.6669999957084655,-9.763999938964846,-0.6460000276565551
1621840568364,5.389999866485596,-8.159000396728516,-6.130000114440918,-0.5490000247955322,-9.687000274658203,-0.6330000162124633
1621840568374,7.139999866485596,-6.611000061035156,-6.8520002365112305,-0.4309999942779541,-9.602999687194824,-0.6579999923706054
1621840568384,9.029999732971191,-4.616000175476074,-7.282000064849853,-0.3919999897480011,-9.661999702453612,-0.5490000247955322
1621840568394,10.43000030517578,-3.572999954223633,-6.743000030517578,-0.2750000059604644,-9.71399974822998,-0.4779999852180481
1621840568404,10.850000381469728,-2.8389999866485596,-5.263000011444092,-0.2349999994039535,-9.71399974822998,-0.4779999852180481
1621840568414,10.779999732971191,-1.934999942779541,-3.5399999618530273,-0.1959999948740005,-9.696000099182127,-0.3549999892711639
1621840568424,10.5,-2.1489999294281006,-1.5160000324249268,-0.1959999948740005,-9.741999626159668,-0.3240000009536743
1621840568434,10.079999923706056,-2.0480000972747803,-0.0769999995827674,-0.1959999948740005,-9.786999702453612,-0.2919999957084655
1621840568444,9.65999984741211,-2.2300000190734863,0.9570000171661376,-0.1959999948740005,-9.67099952697754,-0.2709999978542327
1621840568454,9.3100004196167,-2.622999906539917,1.1720000505447388,-0.1959999948740005,-9.67099952697754,-0.2709999978542327
1621840568464,9.869999885559082,-3.2200000286102295,0.9250000119209288,-0.2349999994039535,-9.67099952697754,-0.2709999978542327
1621840568474,10.220000267028809,-3.7950000762939458,0.9660000205039978,-0.2750000059604644,-9.663999557495115,-0.3100000023841857
1621840568484,10.359999656677246,-3.8199999332427974,-0.1049999967217445,-0.3140000104904174,-9.682000160217283,-0.4329999983310699
1621840568494,9.869999885559082,-4.322999954223633,-0.4779999852180481,-0.3529999852180481,-9.720999717712402,-0.4390000104904174
1621840568504,9.170000076293944,-4.679999828338623,-0.4699999988079071,-0.3529999852180481,-9.727999687194824,-0.4009999930858612
1621840568514,8.680000305175781,-4.322999954223633,-0.4779999852180481,-0.3529999852180481,-9.720999717712402,-0.4390000104904174
1621840568524,8.119999885559082,-4.172999858856201,-0.5230000019073486,-0.3140000104904174,-9.720999717712402,-0.4390000104904174
1621840568534,7.699999809265136,-4.054999828338623,-0.7860000133514404,-0.3140000104904174,-9.753000259399414,-0.4850000143051147
1621840568544,7.559999942779541,-4.28849983215332,-1.0759999752044678,-0.2349999994039535,-9.71399974822998,-0.4779999852180481
1621840568554,7.420000076293945,-4.521999835968018,-1.366000056266785,-0.2349999994039535,-9.637000083923342,-0.4639999866485595
1621840568564,7.630000114440918,-4.947000026702881,-2.578000068664551,-0.2349999994039535,-9.637000083923342,-0.4639999866485595
1621840568574,8.329999923706055,-5.260000228881836,-3.628000020980835,-0.2750000059604644,-9.682000160217283,-0.4329999983310699
1621840568584,8.539999961853027,-5.1020002365112305,-4.525000095367432,-0.3140000104904174,-9.753000259399414,-0.4850000143051147
1621840568594,8.680000305175781,-4.932000160217285,-5.489999771118164,-0.3529999852180481,-9.87600040435791,-0.4670000076293945
1621840568604,8.609999656677246,-4.315999984741211,-7.370999813079834,-0.3919999897480011,-9.895999908447264,-0.3510000109672546
1621840568614,8.470000267028809,-3.6989998817443848,-9.253000259399414,-0.3140000104904174,-9.826000213623049,-0.2989999949932098
1621840568624,8.539999961853027,-3.086999893188477,-10.708999633789064,-0.3140000104904174,-9.857000350952148,-0.3440000116825103
1621840568634,8.539999961853027,-2.9210000038146973,-10.039999961853027,-0.2349999994039535,-9.972999572753906,-0.363999992609024
1621840568644,7.9099998474121085,-2.628999948501587,-9.277000427246092,-0.1959999948740005,-9.888999938964846,-0.3889999985694885
1621840568654,6.440000057220459,-2.4670000076293945,-9.39099979400635,-0.1570000052452087,-9.857000350952148,-0.3440000116825103
1621840568664,5.460000038146973,-2.4749999046325684,-9.748000144958496,-0.0780000016093254,-9.767000198364256,-0.4079999923706054
1621840568674,4.550000190734863,-2.263999938964844,-10.13700008392334,0.0,-9.727999687194824,-0.4009999930858612
1621840568684,3.569999933242798,-2.559999942779541,-10.473999977111816,0.0390000008046627,-9.637000083923342,-0.4639999866485595
1621840568694,3.1500000953674316,-2.9049999713897705,-11.743000030517578,0.0780000016093254,-9.5600004196167,-0.4510000050067901
1621840568704,2.7300000190734863,-3.5299999713897705,-12.635000228881836,0.0780000016093254,-9.520999908447264,-0.4440000057220459
1621840568714,2.7300000190734863,-4.438000202178955,-12.723999977111816,0.1180000007152557,-9.48900032043457,-0.3989999890327453
1621840568724,3.2899999618530273,-5.322000026702881,-12.951000213623049,0.1180000007152557,-9.451000213623049,-0.3919999897480011
1621840568734,4.199999809265137,-5.545000076293945,-12.493000030517578,0.0780000016093254,-9.444000244140623,-0.4300000071525573
1621840568744,4.900000095367432,-5.7230000495910645,-11.883999824523926,0.0780000016093254,-9.48900032043457,-0.3989999890327453
1621840568754,5.599999904632568,-6.664000034332275,-10.984000205993652,0.0390000008046627,-9.451000213623049,-0.3919999897480011
1621840568764,5.809999942779541,-6.753000259399414,-10.68000030517578,0.0780000016093254,-9.496000289916992,-0.3600000143051147
1621840568774,6.019999980926514,-6.8420000076293945,-10.37600040435791,0.0780000016093254,-9.541999816894531,-0.328000009059906
1621840568784,6.159999847412109,-6.9070000648498535,-9.604999542236328,0.0780000016093254,-9.513999938964846,-0.4830000102519989
1621840568794,6.440000057220459,-7.364999771118165,-8.619999885559082,0.0780000016093254,-9.527999877929688,-0.4050000011920929
1621840568804,6.300000190734863,-7.599999904632568,-8.093000411987305,0.0780000016093254,-9.53499984741211,-0.367000013589859
1621840568814,6.579999923706055,-7.770999908447266,-8.336000442504883,0.0780000016093254,-9.541999816894531,-0.328000009059906
1621840568824,6.789999961853027,-7.336999893188477,-7.974999904632568,0.0390000008046627,-9.503000259399414,-0.3210000097751617
1621840568834,6.929999828338623,-7.247000217437744,-7.675000190734864,0.0780000016093254,-9.496000289916992,-0.3600000143051147
1621840568844,7.280000209808349,-7.368999958038329,-8.194000244140625,0.1180000007152557,-9.510000228881836,-0.2829999923706054
1621840568854,7.210000038146973,-6.910999774932861,-7.97100019454956,0.1180000007152557,-9.477999687194824,-0.2370000034570694
1621840568864,7.559999942779541,-6.8460001945495605,-8.741999626159668,0.1959999948740005,-9.446000099182127,-0.19200000166893
1621840568874,7.630000114440918,-6.756999969482422,-9.649999618530272,0.2750000059604644,-9.522999763488768,-0.2049999982118606
1621840568884,7.699999809265136,-6.375999927520752,-9.79599952697754,0.2349999994039535,-9.60099983215332,-0.2189999967813491
1621840568894,7.489999771118165,-6.339000225067139,-10.003000259399414,0.3140000104904174,-9.645999908447264,-0.1870000064373016
1621840568904,7.699999809265136,-6.488999843597412,-9.958000183105469,0.3529999852180481,-9.60099983215332,-0.2189999967813491
1621840568914,7.630000114440918,-6.914999961853027,-8.753999710083008,0.3919999897480011,-9.569000244140623,-0.1739999949932098
1621840568924,7.769999980926514,-7.9120001792907715,-6.72599983215332,0.4309999942779541,-9.498000144958496,-0.1209999993443489
1621840568934,7.980000019073486,-9.104000091552734,-4.803999900817871,0.5099999904632568,-9.536999702453612,-0.1280000060796737
1621840568944,8.260000228881836,-10.538999557495115,-2.7109999656677246,0.5099999904632568,-9.652999877929688,-0.1490000039339065
1621840568954,8.680000305175781,-12.279000282287598,-2.5199999809265137,0.4709999859333038,-9.76900005340576,-0.1689999997615814
1621840568964,8.819999694824219,-13.706000328063965,-3.696000099182129,0.4309999942779541,-9.845999717712402,-0.1829999983310699
1621840568974,8.470000267028809,-15.097000122070312,-3.869999885559082,0.4309999942779541,-9.885000228881836,-0.1889999955892562
1621840568984,7.980000019073486,-15.514999389648436,-4.121500015258789,0.3529999852180481,-9.89099979400635,-0.1509999930858612
1621840568994,7.489999771118165,-15.93299961090088,-4.373000144958496,0.2349999994039535,-9.744000434875488,-0.0850000008940696
1621840569004,6.369999885559082,-16.75200080871582,-5.370999813079834,0.1959999948740005,-9.58899974822998,-0.0579999983310699
1621840569014,5.599999904632568,-17.128999710083008,-5.650000095367432,0.0780000016093254,-9.58899974822998,-0.0579999983310699
1621840569024,5.179999828338623,-16.663000106811523,-5.070000171661377,0.0390000008046627,-9.609999656677246,0.0579999983310699
1621840569034,4.409999847412109,-15.965000152587892,-4.5920000076293945,-0.0390000008046627,-9.609999656677246,0.0579999983310699
1621840569044,4.199999809265137,-15.093000411987305,-4.296000003814697,-0.0780000016093254,-9.694000244140623,0.0829999968409538
1621840569054,4.550000190734863,-14.088000297546388,-3.549999952316284,-0.1570000052452087,-10.12600040435791,0.0469999983906745
1621840569064,4.409999847412109,-12.859000205993652,-3.26200008392334,-0.2349999994039535,-11.027999877929688,-0.032999999821186
1621840569074,3.569999933242798,-10.895999908447266,-2.703000068664551,-0.2349999994039535,-11.803000450134276,0.0700000002980232
1621840569084,3.009999990463257,-9.897999763488768,-1.1059999465942385,-0.3919999897480011,-11.538999557495115,0.1560000032186508
1621840569094,3.009999990463257,-10.19499969482422,-3.8589999675750737,-0.3919999897480011,-11.196000099182127,0.0170000009238719
1621840569104,1.5399999618530271,-10.142999649047852,-8.185999870300293,-0.3529999852180481,-11.312000274658203,-0.003000000026077
1621840569114,0.1400000005960464,-7.441999912261963,-5.363999843597412,-0.4709999859333038,-11.357000350952148,0.0289999991655349
1621840569124,-2.1700000762939453,-5.263999938964844,-3.203000068664551,-0.5490000247955322,-11.196000099182127,0.0170000009238719
1621840569134,-4.340000152587891,-4.611000061035156,-5.290999889373779,-0.5099999904632568,-10.866000175476074,-0.0439999997615814
1621840569144,-6.159999847412109,-4.210000038146973,-3.9409999847412114,-0.6280000209808348,-10.307000160217283,0.1739999949932098
1621840569154,-6.71999979019165,-3.078000068664551,-1.89300000667572,-0.6669999957084655,-9.960000038146973,0.2349999994039535
1621840569164,-6.860000133514404,-2.7980000972747803,-1.062000036239624,-0.6669999957084655,-9.604999542236328,0.2579999864101409
1621840569174,-5.809999942779541,-2.497999906539917,-1.1510000228881836,-0.5879999995231628,-9.39400005340576,0.4149999916553497
1621840569184,-3.849999904632568,-2.250999927520752,-0.5389999747276306,-0.6669999957084655,-9.246000289916992,0.481000006198883
1621840569194,-2.940000057220459,-2.382499933242798,-0.5979999899864196,-0.7059999704360961,-9.246000289916992,0.481000006198883
1621840569204,-2.0299999713897705,-2.513999938964844,-0.6570000052452087,-0.7450000047683715,-9.21399974822998,0.5260000228881835
1621840569214,0.1400000005960464,-2.546999931335449,-2.0840001106262207,-0.7450000047683715,-9.14400005340576,0.578000009059906
1621840569224,1.6100000143051147,-3.0980000495910645,-3.390000104904175,-0.7850000262260437,-9.14400005340576,0.578000009059906
1621840569234,2.7300000190734863,-3.450999975204468,-5.015999794006348,-0.7850000262260437,-9.112000465393066,0.6240000128746032
1621840569244,3.5,-3.322000026702881,-6.556000232696533,-0.8240000009536743,-9.196000099182127,0.6489999890327453
1621840569254,3.849999904632568,-3.325999975204468,-7.33900022506714,-0.8240000009536743,-9.196000099182127,0.6489999890327453
1621840569264,3.849999904632568,-2.7669999599456787,-8.093000411987305,-0.8240000009536743,-9.163999557495115,0.6940000057220459
1621840569274,3.6400001049041744,-2.868000030517578,-8.324000358581543,-0.8629999756813049,-9.119000434875488,0.6629999876022338
1621840569284,3.0799999237060547,-3.075000047683716,-8.361000061035156,-0.8240000009536743,-9.13199996948242,0.740000009536743
1621840569294,2.940000057220459,-2.99399995803833,-8.418000221252441,-0.8629999756813049,-9.138999938964846,0.777999997138977
1621840569304,2.0299999713897705,-2.9690001010894775,-8.555999755859375,-0.9020000100135804,-9.197999954223633,0.887000024318695
1621840569314,1.1200000047683716,-2.8480000495910645,-9.244999885559082,-0.981000006198883,-9.229999542236328,0.8420000076293945
1621840569324,-0.0700000002980232,-2.187000036239624,-9.767999649047852,-1.0590000152587893,-9.262000083923342,0.7969999909400939
1621840569334,-0.9100000262260436,-1.5829999446868896,-10.371999740600586,-1.0980000495910645,-9.286999702453612,0.7129999995231628
1621840569344,-1.5399999618530271,-1.319000005722046,-11.463000297546388,-1.1770000457763672,-9.35099983215332,0.621999979019165
1621840569354,-2.0299999713897705,-0.5289999842643737,-12.319000244140623,-1.215999960899353,-9.428000450134276,0.6079999804496765
1621840569364,-1.8200000524520872,-0.1560000032186508,-12.821999549865724,-1.2549999952316284,-9.428000450134276,0.6079999804496765
1621840569374,-1.1200000047683716,0.4399999976158142,-12.574999809265137,-1.2940000295639038,-9.512000083923342,0.6330000162124633
1621840569384,0.1400000005960464,0.9629999995231628,-11.913999557495115,-1.3339999914169312,-9.666000366210936,0.606000006198883
1621840569394,1.6799999475479126,1.4539999961853027,-10.262999534606934,-1.3730000257492063,-9.744000434875488,0.5920000076293945
1621840569404,3.0799999237060547,2.444000005722046,-9.022999763488768,-1.4119999408721924,-9.75100040435791,0.6309999823570251
1621840569414,4.550000190734863,3.068000078201294,-8.130999565124512,-1.491000056266785,-9.75100040435791,0.6309999823570251
1621840569424,5.320000171661377,3.3460001945495605,-7.690999984741211,-1.5299999713897705,-9.763999938964846,0.7080000042915344
1621840569434,6.090000152587891,3.624000072479248,-7.250999927520752,-1.6080000400543213,-9.835000038146973,0.656000018119812
1621840569444,7.0,4.480000019073486,-6.460000038146973,-1.6480000019073486,-9.918999671936035,0.6809999942779541
1621840569454,7.420000076293945,5.489999771118164,-6.139999866485596,-1.6480000019073486,-9.847999572753906,0.7329999804496765
1621840569464,7.769999980926514,6.364999771118164,-6.269999980926514,-1.6480000019073486,-9.822999954223633,0.8169999718666076
1621840569474,7.420000076293945,7.751999855041504,-6.877999782562256,-1.6480000019073486,-9.71399974822998,0.8759999871253967
1621840569484,6.929999828338623,9.163000106811523,-7.625,-1.6080000400543213,-9.637000083923342,0.8899999856948853
1621840569494,6.510000228881836,10.461000442504885,-8.532999992370605,-1.6080000400543213,-9.513999938964846,0.871999979019165
1621840569504,6.369999885559082,11.027999877929688,-8.930999755859375,-1.569000005722046,-9.437000274658203,0.8849999904632568
1621840569514,6.510000228881836,11.843000411987305,-9.923999786376951,-1.5299999713897705,-9.359999656677246,0.8989999890327453
1621840569524,6.440000057220459,12.342000007629396,-10.333999633789062,-1.491000056266785,-9.276000022888184,0.8740000128746032
1621840569534,6.510000228881836,12.30500030517578,-11.335000038146973,-1.4509999752044678,-9.229999542236328,0.8420000076293945
1621840569544,6.440000057220459,12.126999855041504,-11.935999870300291,-1.3730000257492063,-9.222999572753906,0.8029999732971191
1621840569553,6.71999979019165,12.265000343322754,-11.91100025177002,-1.3339999914169312,-9.248000144958496,0.7189999818801879
1621840569563,6.71999979019165,11.895999908447266,-11.833999633789064,-1.3339999914169312,-9.33199977874756,0.7440000176429749
1621840569573,6.860000133514404,11.043999671936035,-11.842000007629396,-1.3339999914169312,-9.40999984741211,0.731000006198883
1621840569583,6.789999961853027,10.444000244140623,-11.663999557495115,-1.3339999914169312,-9.487000465393066,0.7170000076293945
1621840569593,6.440000057220459,10.059000015258787,-11.092000007629396,-1.3730000257492063,-9.564000129699709,0.703000009059906
1621840569603,5.880000114440918,8.902999877929688,-10.585000038146973,-1.3730000257492063,-9.647999763488768,0.7279999852180481
1621840569613,5.110000133514404,8.20199966430664,-10.63700008392334,-1.4119999408721924,-9.602999687194824,0.6970000267028807
1621840569623,4.480000019073486,7.868999958038329,-10.767000198364258,-1.3730000257492063,-9.647999763488768,0.7279999852180481
1621840569633,4.059999942779541,7.7270002365112305,-10.366000175476074,-1.3730000257492063,-9.64099979400635,0.6899999976158142
1621840569643,3.7100000381469727,7.551000118255616,-10.57450008392334,-1.3730000257492063,-9.595999717712402,0.6579999923706054
1621840569653,3.359999895095825,7.375,-10.782999992370604,-1.3730000257492063,-9.595999717712402,0.6579999923706054
1621840569663,2.799999952316284,7.159999847412109,-11.177000045776367,-1.3339999914169312,-9.550999641418455,0.6259999871253967
1621840569673,2.450000047683716,7.073999881744385,-11.902000427246094,-1.3730000257492063,-9.550999641418455,0.6259999871253967
1621840569683,1.8200000524520872,7.771999835968018,-12.631999969482422,-1.2549999952316284,-9.58199977874756,0.5809999704360961
1621840569693,1.2599999904632568,7.89300012588501,-13.321999549865724,-1.215999960899353,-9.628000259399414,0.6129999756813049
1621840569703,0.8399999737739563,7.723000049591064,-13.5649995803833,-1.215999960899353,-9.58899974822998,0.6190000176429749
1621840569713,0.4900000095367431,7.7839999198913565,-13.909999847412108,-1.1770000457763672,-9.621000289916992,0.5740000009536743
1621840569723,0.2800000011920929,7.568999767303467,-14.303000450134276,-1.1770000457763672,-9.61400032043457,0.5350000262260437
1621840569733,0.4199999868869781,7.354000091552734,-14.696000099182127,-1.1770000457763672,-9.522999763488768,0.4720000028610229
1621840569743,0.3499999940395355,6.88700008392334,-14.067999839782717,-1.1770000457763672,-9.569000244140623,0.5040000081062316
1621840569753,-0.3499999940395355,6.36899995803833,-12.73799991607666,-1.1770000457763672,-9.562000274658203,0.4650000035762786
1621840569763,-0.4199999868869781,5.769000053405762,-11.35099983215332,-1.1770000457763672,-9.484999656677246,0.4790000021457672
1621840569773,-0.5600000023841857,4.973999977111816,-10.069000244140623,-1.1770000457763672,-9.446000099182127,0.4850000143051147
1621840569783,-0.3499999940395355,4.617000102996826,-8.852999687194824,-1.1770000457763672,-9.446000099182127,0.4850000143051147
1621840569793,0.699999988079071,3.433000087738037,-7.782000064849853,-1.1770000457763672,-9.439000129699709,0.4469999969005584
1621840569803,1.190000057220459,2.6710000038146973,-6.2820000648498535,-1.215999960899353,-9.439000129699709,0.4469999969005584
1621840569813,1.2599999904632568,2.2130000591278076,-5.296000003814697,-1.215999960899353,-9.477999687194824,0.4399999976158142
1621840569823,1.6100000143051147,1.8359999656677248,-4.367000102996826,-1.1770000457763672,-9.55500030517578,0.4259999990463256
1621840569833,1.2599999904632568,1.2079999446868896,-3.625,-1.1770000457763672,-9.569000244140623,0.5040000081062316
1621840569843,0.4900000095367431,1.0900000333786013,-3.361999988555908,-1.1770000457763672,-9.61400032043457,0.5350000262260437
1621840569853,-0.699999988079071,0.7900000214576721,-3.2720000743865967,-1.1770000457763672,-9.621000289916992,0.5740000009536743
1621840569863,-1.8899999856948853,1.0779999494552612,-3.2929999828338623,-1.1770000457763672,-9.737000465393066,0.5540000200271606
1621840569873,-2.5199999809265137,0.9584999680519104,-2.816499948501587,-1.215999960899353,-10.232000350952148,0.4259999990463256
1621840569883,-3.1500000953674316,0.8389999866485595,-2.3399999141693115,-1.215999960899353,-11.14799976348877,0.4239999949932098
1621840569893,-4.269999980926514,1.3220000267028809,0.1620000004768371,-1.215999960899353,-11.336999893188477,0.5899999737739563
1621840569903,-4.269999980926514,0.4550000131130218,3.065999984741211,-1.215999960899353,-10.800000190734863,0.4860000014305114
1621840569913,-5.039999961853027,-2.2950000762939453,1.7280000448226929,-1.1380000114440918,-10.656999588012695,0.3510000109672546
1621840569923,-5.320000171661377,-3.2799999713897705,2.4779999256134033,-1.1770000457763672,-10.947999954223633,0.4199999868869781
1621840569933,-5.039999961853027,-2.9790000915527344,7.222000122070312,-1.1770000457763672,-10.993000030517578,0.4510000050067901
1621840569943,-5.460000038146973,-3.989000082015991,6.9019999504089355,-1.1770000457763672,-10.909000396728516,0.4259999990463256
1621840569953,-5.039999961853027,-5.692999839782715,4.468999862670898,-1.0590000152587893,-10.83199977874756,0.4399999976158142
1621840569963,-4.199999809265137,-6.928999900817871,5.0329999923706055,-1.0199999809265137,-10.645999908447266,0.5130000114440918
1621840569973,-3.569999933242798,-8.315999984741211,4.433000087738037,-0.9409999847412108,-10.465999603271484,0.6240000128746032
1621840569983,-2.940000057220459,-9.61400032043457,1.7170000076293943,-0.8629999756813049,-10.234999656677246,0.6650000214576721
1621840569993,-2.1700000762939453,-10.0,-0.1280000060796737,-0.7850000262260437,-10.125,0.7239999771118164
1621840570003,-1.0499999523162842,-10.538999557495115,-1.503000020980835,-0.6669999957084655,-9.928000450134276,0.9580000042915344
1621840570013,0.5600000023841857,-11.618000030517578,-4.251999855041504,-0.6669999957084655,-9.612000465393066,0.9739999771118164
1621840570023,2.380000114440918,-12.161999702453612,-7.618000030517577,-0.5879999995231628,-9.387000083923342,1.0529999732971191
1621840570033,4.059999942779541,-12.130000114440918,-9.8149995803833,-0.5099999904632568,-9.201000213623049,1.1260000467300415
1621840570043,5.460000038146973,-11.638999938964844,-11.789999961853027,-0.3919999897480011,-9.123000144958496,1.1399999856948853
1621840570053,5.25,-12.045000076293944,-13.92300033569336,-0.2750000059604644,-9.20699977874756,1.1649999618530271
1621840570063,4.269999980926514,-12.75100040435791,-14.758000373840332,-0.0780000016093254,-9.260000228881836,1.2350000143051147
1621840570073,2.450000047683716,-14.137999534606934,-14.149999618530272,0.1180000007152557,-9.38199996948242,1.253000020980835
1621840570083,0.0,-16.68000030517578,-13.034000396728516,0.3919999897480011,-9.336999893188477,1.2220000028610227
1621840570093,-2.450000047683716,-20.454999923706055,-11.781000137329102,0.6669999957084655,-9.30500030517578,1.2669999599456787
1621840570103,-4.059999942779541,-25.39800071716309,-9.951000213623049,0.9020000100135804,-9.14400005340576,1.25600004196167
1621840570113,-4.480000019073486,-28.32749938964844,-8.655500411987305,1.1770000457763672,-9.14400005340576,1.25600004196167
1621840570123,-4.900000095367432,-31.256999969482425,-7.360000133514405,1.4509999752044678,-9.227999687194824,1.281000018119812
1621840570133,-5.25,-37.849998474121094,-3.8310000896453857,1.569000005722046,-9.119000434875488,1.3400000333786013
1621840570143,-5.179999828338623,-45.09600067138672,-1.8389999866485596,1.687000036239624,-9.027999877929688,1.2760000228881836
1621840570153,-4.480000019073486,-52.845001220703125,0.9890000224113464,1.7649999856948853,-9.357000350952148,1.337000012397766
1621840570163,-4.130000114440918,-60.46699905395508,5.118000030517578,1.7649999856948853,-9.732000350952148,1.430999994277954
1621840570173,-4.480000019073486,-67.677001953125,8.111000061035156,1.8040000200271609,-10.062000274658203,1.4919999837875366
1621840570183,-5.460000038146973,-75.74600219726562,9.531999588012695,1.8040000200271609,-10.204999923706056,1.6260000467300415
1621840570193,-6.300000190734863,-84.22100067138672,11.236000061035156,1.8040000200271609,-10.29599952697754,1.690000057220459
1621840570203,-7.280000209808349,-92.81700134277344,13.630000114440918,1.72599995136261,-10.284000396728516,1.85099995136261
1621840570213,-7.489999771118165,-100.81300354003906,15.845000267028809,1.569000005722046,-10.027999877929688,1.97599995136261
1621840570223,-6.650000095367432,-107.552001953125,16.576000213623047,1.4509999752044678,-9.847999572753906,2.086999893188477
1621840570233,-4.550000190734863,-112.80699920654295,17.354999542236328,1.2549999952316284,-9.675000190734863,2.236999988555908
1621840570243,-3.359999895095825,-116.91500091552734,18.479000091552734,1.0980000495910645,-9.612000465393066,2.328000068664551
1621840570253,-2.0299999713897705,-120.65000152587892,19.100000381469727,0.9409999847412108,-9.508999824523924,2.4260001182556152
1621840570263,-0.9100000262260436,-124.08399963378906,19.631000518798828,0.8240000009536743,-9.484000205993652,2.509999990463257
1621840570273,-0.7699999809265136,-127.03199768066406,19.82200050354004,0.8240000009536743,-9.472999572753906,2.6710000038146973
1621840570283,-1.4700000286102295,-129.28199768066406,20.492000579833984,0.6280000209808348,-9.350000381469728,2.6530001163482666
1621840570293,-1.9600000381469729,-130.94900512695312,20.268999099731445,0.5099999904632568,-9.312000274658203,2.6600000858306885
1621840570303,-2.309999942779541,-131.81700134277344,19.54700088500977,0.4309999942779541,-9.317999839782717,2.6989998817443848
1621840570313,-2.450000047683716,-132.40899658203125,18.874000549316406,0.2750000059604644,-9.324999809265137,2.736999988555908
1621840570323,-2.555000066757202,-132.4355010986328,18.620500564575195,0.1570000052452087,-9.371000289916992,2.7690000534057617
1621840570333,-2.6600000858306885,-132.46200561523438,18.367000579833984,0.0780000016093254,-9.33199977874756,2.7760000228881836
1621840570343,-3.0799999237060547,-132.08099365234375,17.01300048828125,0.0,-9.371000289916992,2.7690000534057617
1621840570353,-3.569999933242798,-130.50799560546875,14.94499969482422,-0.0780000016093254,-9.402999877929688,2.7239999771118164
1621840570363,-4.900000095367432,-128.95899963378906,13.013999938964844,-0.1180000007152557,-9.479999542236328,2.7100000381469727
1621840570373,-6.369999885559082,-126.5749969482422,11.586999893188477,-0.1570000052452087,-9.479999542236328,2.7100000381469727
1621840570383,-8.050000190734863,-124.3040008544922,9.996999740600586,-0.1180000007152557,-9.763999938964846,2.740000009536743
1621840570393,-9.800000190734863,-121.71700286865234,9.031000137329102,-0.1180000007152557,-9.645999908447264,2.5209999084472656
1621840570403,-11.970000267028809,-119.31700134277344,8.317000389099121,-0.0390000008046627,-9.61400032043457,2.566999912261963
1621840570413,-13.789999961853027,-117.01399993896484,8.154999732971191,0.0390000008046627,-9.565999984741213,2.2960000038146973
1621840570423,-15.260000228881836,-114.7509994506836,8.625,0.0780000016093254,-9.418999671936035,2.361999988555908
1621840570433,-15.539999961853027,-113.33999633789064,9.086999893188477,0.1959999948740005,-9.288999557495115,2.305000066757202
1621840570443,-14.5600004196167,-111.96099853515624,9.329999923706056,0.2750000059604644,-9.244000434875488,2.2739999294281006
1621840570453,-13.090000152587892,-111.36100006103516,10.359999656677246,0.4309999942779541,-9.121000289916992,2.255000114440918
1621840570463,-11.550000190734863,-111.56700134277344,11.531999588012695,0.5490000247955322,-9.159000396728516,2.249000072479248
1621840570473,-10.359999656677246,-112.72299957275392,13.246999740600586,0.7059999704360961,-9.288999557495115,2.305000066757202
1621840570483,-9.65999984741211,-115.1999969482422,16.009000778198242,0.8240000009536743,-9.449999809265137,2.316999912261963
1621840570493,-10.359999656677246,-118.40299987792967,18.856000900268555,0.8240000009536743,-9.572999954223633,2.3350000381469727
1621840570503,-10.779999732971191,-121.1719970703125,20.854999542236328,0.7450000047683715,-9.689000129699709,2.315000057220459
1621840570513,-12.039999961853027,-123.65000152587892,22.409000396728516,0.6280000209808348,-9.779999732971191,2.378000020980835
1621840570523,-13.4399995803833,-125.45400238037108,23.3700008392334,0.5099999904632568,-9.824999809265137,2.4100000858306885
1621840570533,-14.840000152587892,-126.16000366210936,23.743000030517575,0.3529999852180481,-9.817999839782717,2.371000051498413
1621840570543,-15.399999618530272,-126.38500213623048,23.810001373291016,0.2349999994039535,-9.76599979400635,2.3010001182556152
1621840570553,-15.960000038146973,-126.61000061035156,23.87700080871582,0.0780000016093254,-9.76599979400635,2.3010001182556152
1621840570563,-17.010000228881836,-125.88800048828124,24.218000411987305,-0.0390000008046627,-9.758999824523924,2.26200008392334
1621840570573,-18.200000762939453,-125.08899688720705,23.718999862670895,-0.1570000052452087,-9.70699977874756,2.191999912261963
1621840570583,-18.549999237060547,-124.18499755859376,23.024999618530273,-0.1959999948740005,-9.57800006866455,2.134999990463257
1621840570593,-19.38999938964844,-122.63200378417967,21.878000259399418,-0.2750000059604644,-9.571000099182127,2.0959999561309814
1621840570603,-19.809999465942383,-121.19300079345705,20.56800079345703,-0.3529999852180481,-9.595999717712402,2.01200008392334
1621840570613,-20.440000534057617,-119.33599853515624,18.905000686645508,-0.3529999852180481,-9.628000259399414,1.9670000076293943
1621840570623,-20.790000915527344,-117.21099853515624,16.93400001525879,-0.3529999852180481,-9.666000366210936,1.9600000381469729
1621840570633,-21.559999465942383,-114.90399932861328,15.13700008392334,-0.3529999852180481,-9.697999954223633,1.9149999618530271
1621840570643,-22.399999618530273,-112.9459991455078,13.704999923706056,-0.2750000059604644,-9.61400032043457,1.8899999856948853
1621840570653,-23.170000076293945,-111.58300018310548,13.234999656677246,-0.1959999948740005,-9.522999763488768,1.825999975204468
1621840570663,-23.65999984741211,-110.61399841308594,12.979000091552734,-0.1180000007152557,-9.432000160217283,1.7619999647140503
1621840570673,-23.8700008392334,-108.74099731445312,13.23799991607666,-0.1180000007152557,-9.432000160217283,1.7619999647140503
1621840570683,-23.799999237060547,-107.44300079345705,13.538000106811523,-0.0390000008046627,-9.411999702453612,1.6460000276565552
1621840570693,-24.149999618530273,-105.94300079345705,13.092000007629396,0.0,-9.444000244140623,1.60099995136261
1621840570703,-24.709999084472656,-104.71399688720705,13.380000114440918,0.0,-9.520999908447264,1.587000012397766
1621840570713,-24.709999084472656,-103.322998046875,13.553999900817873,0.0390000008046627,-9.475000381469728,1.555999994277954
1621840570723,-25.059999465942383,-101.91200256347656,12.80799961090088,0.0780000016093254,-9.404999732971191,1.6080000400543213
1621840570733,-25.059999465942383,-100.50900268554688,11.704999923706056,0.1180000007152557,-9.397999763488768,1.569000005722046
1621840570743,-24.63999938964844,-98.56300354003906,10.342000007629396,0.1180000007152557,-9.314000129699709,1.5440000295639038
1621840570753,-24.46500015258789,-97.61050415039062,9.372499465942385,0.1180000007152557,-9.222999572753906,1.4809999465942385
1621840570763,-24.290000915527344,-96.65799713134764,8.402999877929688,0.1180000007152557,-9.138999938964846,1.4559999704360962
1621840570773,-22.68000030517578,-94.31400299072264,6.400000095367432,0.1180000007152557,-9.10099983215332,1.462000012397766
1621840570783,-20.579999923706055,-91.8769989013672,4.270999908447266,0.1180000007152557,-9.178000450134276,1.4490000009536743
1621840570793,-18.690000534057617,-89.43199920654298,2.497999906539917,0.1180000007152557,-9.20300006866455,1.3650000095367432
1621840570803,-16.8700008392334,-87.11699676513672,1.0579999685287476,0.0780000016093254,-9.402999877929688,1.36899995803833
1621840570813,-15.050000190734863,-84.08399963378906,0.3849999904632568,0.0780000016093254,-9.64099979400635,1.3669999837875366
1621840570823,-14.420000076293944,-81.38400268554688,0.7900000214576721,0.0780000016093254,-9.949999809265137,1.312999963760376
1621840570833,-14.909999847412108,-78.67500305175781,1.5520000457763672,0.0,-10.097999572753906,1.246999979019165
1621840570843,-16.799999237060547,-75.73500061035156,2.211999893188477,0.0,-10.21399974822998,1.22599995136261
1621840570853,-18.969999313354492,-73.43099975585938,3.2579998970031734,0.0,-10.291000366210936,1.2130000591278076
1621840570863,-21.6299991607666,-70.28900146484375,4.38100004196167,-0.0390000008046627,-10.284000396728516,1.1740000247955322
1621840570873,-23.65999984741211,-67.61199951171875,4.923999786376953,-0.1180000007152557,-10.284000396728516,1.1740000247955322
1621840570883,-25.40999984741211,-64.57099914550781,4.60699987411499,-0.1959999948740005,-10.14799976348877,1.0789999961853027
1621840570893,-26.739999771118164,-61.506000518798835,4.1529998779296875,-0.1959999948740005,-9.972999572753906,0.9900000095367432
1621840570903,-27.15999984741211,-59.073001861572266,2.4489998817443848,-0.2750000059604644,-9.965999603271484,0.9509999752044676
1621840570913,-26.809999465942383,-56.452999114990234,1.7029999494552612,-0.3529999852180481,-10.036999702453612,0.8989999890327453
1621840570923,-26.040000915527344,-53.849998474121094,1.4509999752044678,-0.4309999942779541,-10.215999603271484,0.7879999876022338
1621840570933,-24.989999771118164,-51.16999816894531,1.5679999589920044,-0.5490000247955322,-10.571000099182127,0.7649999856948853
1621840570943,-23.65999984741211,-49.09299850463867,2.2899999618530273,-0.6280000209808348,-10.732000350952148,0.7760000228881835
1621840570953,-23.59000015258789,-48.20949935913086,1.9124999046325684,-0.7450000047683715,-10.557000160217283,0.6880000233650208
1621840570963,-23.520000457763672,-47.32600021362305,1.5349999666213987,-0.8629999756813049,-10.472999572753906,0.6629999876022338
1621840570973,-24.989999771118164,-44.75899887084961,1.4900000095367432,-0.9020000100135804,-10.609000205993652,0.7580000162124633
1621840570983,-27.020000457763672,-41.39699935913086,2.5810000896453857,-0.981000006198883,-10.437000274658203,0.9079999923706054
1621840570993,-30.100000381469727,-38.729000091552734,2.7669999599456787,-1.1380000114440918,-10.152999877929688,0.8790000081062316
1621840571003,-32.7599983215332,-36.75,2.8310000896453857,-1.0980000495910645,-10.197999954223633,0.9100000262260436
1621840571013,-32.689998626708984,-34.32500076293945,5.605000019073486,-1.1380000114440918,-9.979999542236328,1.0279999971389773
1621840571023,-33.040000915527344,-33.90299987792969,6.033999919891357,-1.215999960899353,-9.541000366210936,1.0260000228881836
1621840571033,-32.060001373291016,-33.97999954223633,4.456999778747559,-1.215999960899353,-9.064000129699709,1.031000018119812
1621840571043,-29.68000030517578,-34.04499816894531,4.019000053405762,-1.2940000295639038,-8.70300006866455,1.0149999856948853
1621840571053,-27.229999542236328,-33.20600128173828,2.888000011444092,-1.3730000257492063,-8.53499984741211,0.9649999737739564
1621840571063,-24.219999313354492,-32.58599853515625,1.7890000343322754,-1.4509999752044678,-8.717000007629395,1.0920000076293943
1621840571073,-21.770000457763672,-32.52899932861328,0.6610000133514404,-1.5299999713897705,-8.90999984741211,1.0579999685287476
1621840571083,-19.600000381469727,-32.7599983215332,-0.4460000097751617,-1.687000036239624,-9.053000450134276,1.1920000314712524
1621840571093,-17.989999771118164,-32.444000244140625,-1.0299999713897705,-1.687000036239624,-9.246000289916992,1.1579999923706057
1621840571103,-17.43000030517578,-32.03900146484375,-1.312999963760376,-1.72599995136261,-9.484999656677246,1.156000018119812
1621840571113,-17.920000076293945,-31.10199928283691,-1.787999987602234,-1.8830000162124632,-9.690999984741213,1.1990000009536743
1621840571123,-19.11000061035156,-30.20599937438965,-1.6299999952316284,-1.9220000505447388,-9.845999717712402,1.1720000505447388
1621840571133,-20.790000915527344,-28.684999465942383,-1.787999987602234,-2.000999927520752,-9.871000289916992,1.0880000591278076
1621840571143,-22.1200008392334,-27.270000457763672,-1.7519999742507937,-2.000999927520752,-9.940999984741213,1.0349999666213987
1621840571153,-22.61000061035156,-26.42850112915039,-1.888000011444092,-2.0789999961853027,-9.895999908447264,1.003000020980835
1621840571163,-23.100000381469727,-25.586999893188477,-2.0239999294281006,-2.0789999961853027,-9.991000175476074,0.8669999837875366
1621840571173,-23.3799991607666,-24.29400062561035,-1.2979999780654907,-2.0789999961853027,-10.036999702453612,0.8989999890327453
1621840571183,-22.68000030517578,-23.118000030517575,-0.3089999854564666,-2.0789999961853027,-10.062000274658203,0.8149999976158142
1621840571192,-21.700000762939453,-22.253999710083008,-0.3700000047683715,-2.118000030517578,-9.899999618530272,0.8040000200271606
1621840571202,-20.790000915527344,-21.84000015258789,-0.2969999909400939,-2.0789999961853027,-9.763999938964846,0.7080000042915344
1621840571212,-19.600000381469727,-20.73699951171875,-0.1030000001192092,-2.0399999618530273,-9.661999702453612,0.8059999942779541
1621840571222,-18.549999237060547,-19.878000259399418,-0.9459999799728392,-2.0399999618530273,-9.479999542236328,0.6779999732971191
1621840571232,-17.639999389648438,-18.961000442504883,-1.7089999914169312,-1.9609999656677248,-9.29800033569336,0.5509999990463256
1621840571242,-16.239999771118164,-18.694000244140625,-2.0169999599456787,-1.8830000162124632,-9.14400005340576,0.578000009059906
1621840571252,-14.420000076293944,-18.54800033569336,-2.8440001010894775,-1.843999981880188,-8.954999923706055,0.4129999876022338
1621840571262,-12.670000076293944,-18.832000732421875,-3.249000072479248,-1.8040000200271609,-8.987000465393066,0.367000013589859
1621840571272,-10.920000076293944,-19.208999633789062,-3.5290000438690186,-1.8040000200271609,-9.01900005340576,0.3219999969005584
1621840571282,-9.380000114440918,-19.46500015258789,-4.498000144958496,-1.8040000200271609,-9.064000129699709,0.3529999852180481
1621840571292,-8.260000228881836,-19.82200050354004,-5.698999881744385,-1.8040000200271609,-9.218999862670898,0.3260000050067901
1621840571302,-7.489999771118165,-19.650999069213867,-6.664000034332275,-1.7649999856948853,-9.218999862670898,0.3260000050067901
1621840571312,-7.070000171661377,-19.934999465942383,-7.068999767303467,-1.7649999856948853,-9.25100040435791,0.2809999883174896
1621840571322,-6.650000095367432,-19.371999740600582,-7.040999889373779,-1.7649999856948853,-9.288999557495115,0.2739999890327453
1621840571332,-6.71999979019165,-19.322999954223633,-6.107999801635742,-1.8040000200271609,-9.321000099182127,0.2290000021457672
1621840571342,-6.71999979019165,-19.100000381469727,-5.357999801635742,-1.8830000162124632,-9.352999687194824,0.1829999983310699
1621840571352,-6.71999979019165,-18.60700035095215,-5.128999710083008,-1.9609999656677248,-9.437000274658203,0.2080000042915344
1621840571362,-6.71999979019165,-18.11400032043457,-4.900000095367432,-1.9609999656677248,-9.392000198364256,0.1759999990463256
1621840571372,-6.71999979019165,-16.979000091552734,-4.486999988555908,-1.9609999656677248,-9.345999717712402,0.1439999938011169
1621840571382,-6.789999961853027,-16.111000061035156,-3.7650001049041744,-2.000999927520752,-9.378000259399414,0.0989999994635581
1621840571392,-6.300000190734863,-14.87399959564209,-3.119999885559082,-2.0399999618530273,-9.40999984741211,0.0540000014007091
1621840571402,-5.599999904632568,-14.050999641418455,-2.549000024795532,-2.000999927520752,-9.4350004196167,-0.0299999993294477
1621840571412,-5.670000076293945,-13.434000015258787,-2.013000011444092,-1.9609999656677248,-9.4350004196167,-0.0299999993294477
1621840571422,-6.090000152587891,-12.753000259399414,-2.249000072479248,-1.9220000505447388,-9.428000450134276,-0.0689999982714653
1621840571432,-6.300000190734863,-11.836999893188477,-3.010999917984009,-1.8830000162124632,-9.467000007629396,-0.0759999975562095
1621840571442,-6.019999980926514,-10.968999862670898,-3.497999906539917,-1.843999981880188,-9.336999893188477,-0.1330000013113021
1621840571452,-5.809999942779541,-10.203000068664553,-4.216000080108643,-1.843999981880188,-9.291999816894531,-0.1650000065565109
1621840571462,-5.25,-10.003999710083008,-4.535999774932861,-1.843999981880188,-9.260000228881836,-0.1190000027418136
1621840571472,-4.619999885559082,-9.875,-4.86899995803833,-1.8040000200271609,-9.260000228881836,-0.1190000027418136
1621840571482,-3.9200000762939458,-9.355999946594238,-4.989999771118164,-1.843999981880188,-9.30500030517578,-0.0869999974966049
1621840571492,-3.1500000953674316,-9.16100025177002,-4.885000228881836,-1.9220000505447388,-9.343999862670898,-0.0939999967813491
1621840571502,-2.5899999141693115,-8.309000015258789,-4.876999855041504,-1.9220000505447388,-9.35099983215332,-0.0560000017285346
1621840571512,-2.0299999713897705,-7.355999946594238,-4.638000011444092,-2.000999927520752,-9.30500030517578,-0.0869999974966049
1621840571522,-2.0999999046325684,-6.382999897003174,-4.111000061035156,-2.000999927520752,-9.336999893188477,-0.1330000013113021
1621840571532,-1.75,-5.186999797821045,-4.041999816894531,-2.000999927520752,-9.42099952697754,-0.1080000028014183
1621840571542,-1.819999933242798,-4.799499988555908,-4.222499847412109,-2.000999927520752,-9.467000007629396,-0.0759999975562095
1621840571552,-1.8899999856948853,-4.4120001792907715,-4.4029998779296875,-1.9609999656677248,-9.498000144958496,-0.1209999993443489
1621840571562,-2.0999999046325684,-3.325999975204468,-4.921999931335449,-1.9609999656677248,-9.491999626159668,-0.1599999964237213
1621840571572,-2.6600000858306885,-2.4779999256134033,-5.697000026702881,-1.9609999656677248,-9.522999763488768,-0.2049999982118606
1621840571582,-2.6600000858306885,-2.0239999294281006,-6.256999969482422,-1.9609999656677248,-9.60099983215332,-0.2189999967813491
1621840571592,-3.0799999237060547,-1.5460000038146973,-6.953999996185303,-1.9609999656677248,-9.678000450134276,-0.2329999953508377
1621840571602,-3.6400001049041744,-0.8690000176429749,-7.972000122070312,-1.9609999656677248,-9.755000114440918,-0.2460000067949295
1621840571612,-4.760000228881836,-0.2610000073909759,-9.001999855041504,-1.9609999656677248,-9.826000213623049,-0.2989999949932098
1621840571622,-5.460000038146973,0.550000011920929,-9.56999969482422,-1.9609999656677248,-9.826000213623049,-0.2989999949932098
1621840571632,-6.860000133514404,1.3530000448226929,-10.494999885559082,-2.000999927520752,-9.786999702453612,-0.2919999957084655
1621840571642,-8.119999885559082,2.4519999027252197,-11.083000183105469,-1.9220000505447388,-9.786999702453612,-0.2919999957084655
1621840571652,-9.029999732971191,3.6679999828338623,-10.72599983215332,-1.9609999656677248,-9.786999702453612,-0.2919999957084655
1621840571662,-9.65999984741211,5.107999801635742,-10.828000068664553,-1.9220000505447388,-9.734999656677246,-0.3619999885559082
1621840571672,-9.869999885559082,5.947000026702881,-10.75100040435791,-1.8830000162124632,-9.696000099182127,-0.3549999892711639
1621840571682,-9.520000457763674,6.923999786376953,-10.64900016784668,-1.843999981880188,-9.651000022888184,-0.3869999945163726
1621840571692,-8.680000305175781,8.145000457763672,-10.718000411987305,-1.7649999856948853,-9.604999542236328,-0.4189999997615814
1621840571702,-7.489999771118165,8.46500015258789,-10.520000457763672,-1.7649999856948853,-9.527999877929688,-0.4050000011920929
1621840571712,-5.809999942779541,9.218999862670898,-11.168999671936035,-1.687000036239624,-9.418999671936035,-0.3459999859333038
1621840571722,-4.409999847412109,9.774999618530272,-11.496999740600586,-1.6480000019073486,-9.342000007629396,-0.3330000042915344
1621840571732,-3.430000066757202,10.545000076293944,-11.432000160217283,-1.6080000400543213,-9.277999877929688,-0.2419999986886978
1621840571742,-2.9749999046325684,10.86750030517578,-11.446500778198242,-1.6480000019073486,-9.54800033569336,-0.2899999916553497
1621840571752,-2.5199999809265137,11.1899995803833,-11.461000442504885,-1.7649999856948853,-11.04800033569336,-0.5939999818801879
1621840571762,-2.869999885559082,12.560999870300291,-9.157999992370604,-1.72599995136261,-12.432000160217283,-0.2010000050067901
1621840571772,-2.380000114440918,14.211999893188477,-3.60700011253357,-1.843999981880188,-11.567999839782717,-0.1280000060796737
1621840571782,-3.5,12.071000099182127,-5.974999904632568,-1.687000036239624,-10.565999984741213,-0.3889999985694885
1621840571792,-6.369999885559082,10.046999931335447,-11.02299976348877,-1.5299999713897705,-10.616000175476074,-0.5580000281333923
1621840571802,-6.159999847412109,12.07900047302246,-4.408999919891357,-1.687000036239624,-11.204999923706056,-0.3819999992847442
1621840571812,-8.539999961853027,13.656999588012695,0.3470000028610229,-1.687000036239624,-11.232000350952148,-0.2280000001192092
1621840571822,-9.800000190734863,13.477999687194824,-5.086999893188477,-1.4509999752044678,-10.729999542236328,-0.1389999985694885
1621840571832,-9.170000076293944,12.852999687194824,-9.604000091552734,-1.4119999408721924,-10.234999656677246,-0.0120000001043081
1621840571842,-8.890000343322754,12.524999618530272,-7.743000030517577,-1.3339999914169312,-9.701000213623049,0.1220000013709068
1621840571852,-8.119999885559082,11.994000434875488,-7.552000045776368,-1.1770000457763672,-8.998000144958496,0.2060000002384185
1621840571862,-6.369999885559082,11.434000015258787,-10.42300033569336,-1.0590000152587893,-8.335000038146973,0.2829999923706054
1621840571872,-3.6400001049041744,11.397000312805176,-12.633000373840332,-1.0590000152587893,-7.877999782562256,0.402999997138977
1621840571882,-0.5600000023841857,11.336000442504885,-13.496999740600586,-1.0590000152587893,-7.684999942779541,0.4370000064373016
1621840571892,2.869999885559082,10.772000312805176,-14.732999801635742,-1.0980000495910645,-7.936999797821045,0.512000024318695
1621840571902,5.599999904632568,10.937999725341797,-15.27299976348877,-1.0980000495910645,-8.329999923706055,0.4830000102519989
1621840571912,7.349999904632568,11.482000350952148,-14.324000358581545,-1.1770000457763672,-8.776000022888184,0.5239999890327453
1621840571922,8.609999656677246,11.519000053405762,-12.11400032043457,-1.215999960899353,-9.06700038909912,0.5920000076293945
1621840571932,9.869999885559082,11.473999977111816,-9.847000122070312,-1.215999960899353,-9.272999763488768,0.6349999904632568
1621840571942,10.149999618530272,11.500499725341797,-8.385000228881836,-1.2549999952316284,-9.440999984741213,0.6850000023841857
1621840571952,10.43000030517578,11.527000427246094,-6.922999858856201,-1.2549999952316284,-9.595999717712402,0.6579999923706054
1621840571962,10.010000228881836,11.843999862670898,-2.674000024795532,-1.2940000295639038,-9.8100004196167,0.740000009536743
1621840571972,9.100000381469728,12.319000244140623,0.6800000071525573,-1.3339999914169312,-9.925000190734863,0.7189999818801879
1621840571982,7.0,12.437000274658203,2.8329999446868896,-1.2940000295639038,-9.970999717712402,0.7509999871253967
1621840571992,4.480000019073486,12.725000381469728,4.020999908447266,-1.3339999914169312,-9.925000190734863,0.7189999818801879
1621840572002,2.240000009536743,13.078000068664553,4.438000202178955,-1.2940000295639038,-9.803000450134276,0.7009999752044677
1621840572012,0.8399999737739563,13.60099983215332,2.683000087738037,-1.3339999914169312,-9.687000274658203,0.722000002861023
1621840572022,0.9100000262260436,14.13599967956543,0.8579999804496765,-1.4119999408721924,-9.543999671936035,0.5879999995231628
1621840572032,1.6799999475479126,14.618000030517578,-0.2660000026226043,-1.3730000257492063,-9.487000465393066,0.7170000076293945
1621840572042,2.869999885559082,15.397000312805176,-1.0520000457763672,-1.4509999752044678,-9.487000465393066,0.7170000076293945
1621840572052,4.130000114440918,15.77400016784668,-0.7730000019073486,-1.5299999713897705,-9.487000465393066,0.7170000076293945
1621840572062,5.25,16.454999923706055,0.2000000029802322,-1.569000005722046,-9.447999954223633,0.7239999771118164
1621840572072,6.300000190734863,16.864999771118164,0.6990000009536743,-1.569000005722046,-9.487000465393066,0.7170000076293945
1621840572082,7.210000038146973,17.915000915527344,1.5950000286102295,-1.6080000400543213,-9.447999954223633,0.7239999771118164
1621840572092,7.280000209808349,18.80699920654297,2.178999900817871,-1.6480000019073486,-9.33899974822998,0.7829999923706054
1621840572102,7.489999771118165,19.906000137329105,2.799000024795532,-1.6480000019073486,-9.248000144958496,0.7189999818801879
1621840572112,7.769999980926514,20.839000701904297,2.75,-1.687000036239624,-9.255000114440918,0.7580000162124633
1621840572122,8.1899995803833,21.79599952697754,2.563999891281128,-1.687000036239624,-9.17099952697754,0.7329999804496765
1621840572132,8.1899995803833,22.805999755859375,1.6759999990463257,-1.687000036239624,-9.178000450134276,0.7720000147819519
1621840572142,8.399999618530273,23.871999740600582,0.8679999709129333,-1.6080000400543213,-9.255000114440918,0.7580000162124633
1621840572152,8.295000076293945,24.374500274658203,0.6369999647140502,-1.6080000400543213,-9.371000289916992,0.7379999756813049
1621840572162,8.1899995803833,24.87700080871582,0.4059999883174896,-1.6080000400543213,-9.440999984741213,0.6850000023841857
1621840572172,7.559999942779541,25.906999588012695,-0.1940000057220459,-1.5299999713897705,-9.512000083923342,0.6330000162124633
1621840572182,6.510000228881836,26.52400016784668,-0.8669999837875366,-1.4119999408721924,-9.543999671936035,0.5879999995231628
1621840572192,5.039999961853027,27.23699951171875,-2.0920000076293945,-1.4119999408721924,-9.529999732971191,0.5099999904632568
1621840572202,3.7100000381469727,27.937999725341797,-3.247999906539917,-1.4119999408721924,-9.562000274658203,0.4650000035762786
1621840572212,1.8899999856948853,28.55900001525879,-4.3470001220703125,-1.3730000257492063,-9.55500030517578,0.4259999990463256
1621840572222,0.209999993443489,29.965999603271484,-5.875999927520752,-1.3339999914169312,-9.54800033569336,0.3880000114440918
1621840572232,-0.9800000190734864,30.99099922180176,-7.258999824523927,-1.3339999914169312,-9.46399974822998,0.3630000054836273
1621840572242,-2.7300000190734863,32.138999938964844,-8.123000144958496,-1.2549999952316284,-9.425999641418455,0.3689999878406524
1621840572252,-3.5,33.07899856567383,-9.022999763488768,-1.215999960899353,-9.342000007629396,0.3440000116825103
1621840572262,-3.990000009536743,34.040000915527344,-9.635000228881836,-1.2549999952316284,-9.342000007629396,0.3440000116825103
1621840572272,-4.340000152587891,34.665000915527344,-9.95199966430664,-1.1770000457763672,-9.418999671936035,0.3310000002384185
1621840572282,-4.690000057220459,35.28900146484375,-10.267999649047852,-1.1770000457763672,-9.45699977874756,0.3240000009536743
1621840572292,-4.96999979019165,35.96200180053711,-10.859999656677246,-1.1380000114440918,-9.496000289916992,0.31700000166893
1621840572302,-5.179999828338623,36.314998626708984,-11.651000022888184,-1.0980000495910645,-9.579999923706056,0.3420000076293945
1621840572312,-5.739999771118164,37.24300003051758,-12.482000350952148,-1.0980000495910645,-9.734999656677246,0.3149999976158142
1621840572322,-6.230000019073486,37.84700012207031,-13.086999893188477,-1.0590000152587893,-9.836999893188477,0.2169999927282333
1621840572332,-6.300000190734863,38.779998779296875,-13.135000228881836,-0.981000006198883,-9.946000099182127,0.1580000072717666
1621840572342,-7.210000038146973,39.319000244140625,-14.178000450134276,-0.9020000100135804,-10.05500030517578,0.0989999994635581
1621840572352,-7.8400001525878915,39.89899826049805,-14.644000053405762,-0.8629999756813049,-10.086999893188477,0.0540000014007091
1621840572362,-8.75,40.45500183105469,-14.972999572753906,-0.8629999756813049,-10.079999923706056,0.0149999996647238
1621840572372,-9.03000068664551,40.72850036621094,-15.315500259399414,-0.8240000009536743,-10.072999954223633,-0.0240000002086162
1621840572382,-9.3100004196167,41.00199890136719,-15.657999992370604,-0.7850000262260437,-9.98900032043457,-0.0489999987185001
1621840572392,-10.640000343322754,41.869998931884766,-16.145000457763672,-0.7450000047683715,-9.937000274658203,-0.1190000027418136
1621840572402,-11.0600004196167,42.051998138427734,-15.970000267028809,-0.7850000262260437,-9.859999656677246,-0.1049999967217445
1621840572412,-10.989999771118164,42.125,-15.175999641418455,-0.7850000262260437,-9.845999717712402,-0.1829999983310699
1621840572422,-10.710000038146973,42.652000427246094,-14.9399995803833,-0.981000006198883,-10.468999862670898,-0.492000013589859
1621840572432,-10.5,43.625999450683594,-13.204999923706056,-1.0199999809265137,-11.390999794006348,-0.4550000131130218
1621840572442,-9.729999542236328,44.46599960327149,-9.503000259399414,-1.0199999809265137,-11.572999954223633,-0.328000009059906
1621840572452,-8.890000343322754,43.869998931884766,-8.541999816894531,-1.0980000495910645,-11.145999908447266,-0.492000013589859
1621840572462,-8.890000343322754,42.72999954223633,-9.73799991607666,-1.0590000152587893,-10.932000160217283,-0.5730000138282775
1621840572472,-8.470000267028809,43.6870002746582,-7.507999897003175,-1.215999960899353,-10.880000114440918,-0.6439999938011169
1621840572482,-8.399999618530273,44.99700164794922,-6.067999839782715,-1.3730000257492063,-11.003000259399414,-0.6259999871253967
1621840572492,-8.75,45.57699966430664,-7.743000030517577,-1.4509999752044678,-11.156999588012695,-0.652999997138977
1621840572502,-8.75,46.44499969482422,-8.229999542236328,-1.491000056266785,-10.95699977874756,-0.6570000052452087
1621840572512,-8.609999656677246,46.792999267578125,-9.803000450134276,-1.5299999713897705,-10.609999656677246,-0.5960000157356262
1621840572522,-8.609999656677246,47.26300048828125,-12.065999984741213,-1.5299999713897705,-10.255000114440918,-0.5730000138282775
1621840572532,-8.960000038146973,48.09000015258789,-13.128999710083008,-1.5299999713897705,-9.822999954223633,-0.537000000476837
1621840572542,-9.170000076293944,48.80799865722656,-13.571000099182127,-1.5299999713897705,-9.538999557495115,-0.5669999718666076
1621840572552,-9.100000381469728,49.09600067138672,-13.590999603271484,-1.4509999752044678,-9.26900005340576,-0.5189999938011169
1621840572562,-8.050000190734863,48.8489990234375,-12.994999885559082,-1.4509999752044678,-8.95300006866455,-0.5030000209808348
1621840572572,-7.070000171661377,48.45199966430664,-11.145999908447266,-1.4509999752044678,-8.612000465393066,-0.402999997138977
1621840572582,-6.335000038146973,48.066497802734375,-10.573999404907228,-1.4119999408721924,-8.295999526977539,-0.3869999945163726
1621840572592,-5.599999904632568,47.680999755859375,-10.001999855041504,-1.491000056266785,-8.057999610900879,-0.3849999904632568
1621840572602,-3.2200000286102295,47.09700012207031,-9.109999656677246,-1.491000056266785,-8.026000022888184,-0.3400000035762786
1621840572612,-1.190000057220459,46.577999114990234,-8.98799991607666,-1.569000005722046,-8.071000099182129,-0.3079999983310699
1621840572622,0.6299999952316284,45.76300048828125,-10.41100025177002,-1.6080000400543213,-8.265000343322754,-0.3420000076293945
1621840572632,1.190000057220459,45.36199951171875,-11.76200008392334,-1.687000036239624,-8.579999923706055,-0.3580000102519989
1621840572642,0.699999988079071,45.49100112915039,-13.303000450134276,-1.72599995136261,-8.960000038146973,-0.4650000035762786
1621840572652,-1.75,45.57600021362305,-13.784999847412108,-1.7649999856948853,-9.244000434875488,-0.4350000023841857
1621840572662,-3.849999904632568,45.417999267578125,-14.097000122070312,-1.7649999856948853,-9.444000244140623,-0.4300000071525573
1621840572672,-5.320000171661377,45.073001861572266,-14.157999992370604,-1.7649999856948853,-9.527999877929688,-0.4050000011920929
1621840572682,-6.650000095367432,43.702999114990234,-12.836000442504885,-1.7649999856948853,-9.56700038909912,-0.4120000004768371
1621840572692,-7.139999866485596,42.93299865722656,-10.484000205993652,-1.843999981880188,-9.64400005340576,-0.4259999990463256
1621840572702,-7.349999904632568,42.26800155639648,-8.32699966430664,-1.8830000162124632,-9.79800033569336,-0.453000009059906
1621840572712,-7.630000114440918,41.61100006103515,-7.020999908447266,-1.9220000505447388,-9.928000450134276,-0.3959999978542327
1621840572722,-7.769999980926514,40.97100067138672,-6.210000038146973,-1.9609999656677248,-9.991999626159668,-0.4869999885559082
1621840572732,-7.699999809265136,40.47200012207031,-5.800000190734863,-2.000999927520752,-9.998000144958496,-0.4490000009536743
1621840572742,-7.420000076293945,40.487998962402344,-5.086999893188477,-1.9609999656677248,-9.87600040435791,-0.4670000076293945
1621840572752,-6.929999828338623,39.88800048828125,-4.9079999923706055,-1.9609999656677248,-9.829999923706056,-0.4990000128746032
1621840572762,-6.71999979019165,39.304000854492195,-4.015999794006348,-1.9220000505447388,-9.906999588012695,-0.512000024318695
1621840572772,-7.139999866485596,38.519500732421875,-3.7989997863769527,-1.9609999656677248,-9.901000022888184,-0.5509999990463256
1621840572782,-7.559999942779541,37.73500061035156,-3.5820000171661377,-1.9609999656677248,-9.78499984741211,-0.5299999713897705
1621840572791,-8.609999656677246,36.85900115966797,-3.4519999027252197,-1.9220000505447388,-9.630000114440918,-0.5030000209808348
1621840572802,-9.170000076293944,35.93899917602539,-2.263999938964844,-1.8830000162124632,-9.444000244140623,-0.4300000071525573
1621840572812,-9.380000114440918,34.66999816894531,-1.919000029563904,-1.843999981880188,-9.282999992370604,-0.44200000166893
1621840572821,-9.449999809265137,33.68899917602539,-1.593999981880188,-1.8040000200271609,-9.314000129699709,-0.4869999885559082
1621840572831,-10.010000228881836,32.55699920654297,-1.225000023841858,-1.72599995136261,-9.458000183105469,-0.3529999852180481
1621840572841,-11.130000114440918,31.121999740600582,-1.5490000247955322,-1.7649999856948853,-9.47599983215332,-0.4760000109672546
1621840572851,-12.670000076293944,29.808000564575195,-2.562999963760376,-1.7649999856948853,-9.42300033569336,-0.5460000038146972
1621840572861,-14.770000457763672,28.465999603271484,-3.013000011444092,-1.72599995136261,-9.416999816894531,-0.5849999785423278
1621840572871,-16.8700008392334,27.382999420166016,-2.9189999103546143,-1.6480000019073486,-9.402999877929688,-0.662000000476837
1621840572881,-18.969999313354492,25.81800079345703,-2.9110000133514404,-1.6080000400543213,-9.472999572753906,-0.7139999866485595
1621840572891,-20.86000061035156,23.6200008392334,-2.943000078201294,-1.6080000400543213,-9.460000038146973,-0.7919999957084655
1621840572901,-22.61000061035156,22.167999267578125,-2.7730000019073486,-1.569000005722046,-9.439000129699709,-0.9079999923706054
1621840572911,-24.149999618530273,20.291000366210938,-2.6059999465942383,-1.5299999713897705,-9.503000259399414,-0.9990000128746032
1621840572921,-25.1299991607666,18.993000030517575,-2.9059998989105225,-1.569000005722046,-9.48900032043457,-1.0759999752044678
1621840572931,-25.969999313354492,17.047000885009766,-3.9600000381469727,-1.5299999713897705,-9.39900016784668,-1.1390000581741333
1621840572941,-26.21500015258789,16.17300033569336,-4.043000221252441,-1.5299999713897705,-9.33899974822998,-1.2480000257492063
1621840572951,-26.459999084472656,15.298999786376951,-4.125999927520752,-1.5299999713897705,-9.326000213623049,-1.3259999752044678
1621840572961,-26.670000076293945,13.907999992370604,-4.300000190734863,-1.6080000400543213,-9.395999908447264,-1.378000020980835
1621840572971,-26.809999465942383,12.407999992370604,-5.061999797821045,-1.6080000400543213,-9.336999893188477,-1.4869999885559082
1621840572981,-26.31999969482422,11.263999938964844,-5.833000183105469,-1.6080000400543213,-9.208000183105469,-1.5440000295639038
1621840572991,-25.549999237060547,10.119999885559082,-6.603000164031982,-1.569000005722046,-9.116999626159668,-1.6080000400543213
1621840573001,-24.43000030517578,9.657999992370604,-6.400000095367432,-1.6080000400543213,-9.109999656677246,-1.6460000276565552
1621840573011,-23.309999465942383,9.239999771118164,-6.046999931335449,-1.6480000019073486,-9.09000015258789,-1.7619999647140503
1621840573021,-22.260000228881836,8.567000389099121,-6.664000034332275,-1.6480000019073486,-9.043999671936035,-1.7940000295639038
1621840573031,-21.280000686645508,8.069000244140625,-6.254000186920166,-1.6480000019073486,-8.99899959564209,-1.825999975204468
1621840573041,-20.020000457763672,7.974999904632568,-6.127999782562256,-1.687000036239624,-8.95300006866455,-1.8580000400543213
1621840573051,-18.40999984741211,8.465999603271484,-5.685999870300293,-1.687000036239624,-8.977999687194824,-1.9420000314712524
1621840573061,-16.8700008392334,8.385000228881836,-4.421000003814697,-1.6480000019073486,-9.02400016784668,-1.9099999666213987
1621840573071,-15.68000030517578,8.190999984741211,-3.318000078201294,-1.687000036239624,-9.10099983215332,-1.9229999780654907
1621840573081,-14.140000343322754,8.576000213623047,-2.681999921798706,-1.687000036239624,-9.178000450134276,-1.937000036239624
