timestamp,gyro_x,gyro_y,gyro_z,acc_x,acc_y,acc_z
1621597361215,0.0,0.0,0.0,0.0,0.0,0.0
1621597361224,-1.8899999856948853,4.008999824523926,-6.613999843597412,-0.5879999995231628,-9.689000129699709,-0.3939999938011169
1621597361234,-1.6449999809265137,4.0214996337890625,-6.682999610900879,-0.6669999957084655,-9.656999588012695,-0.3490000069141387
1621597361244,-1.399999976158142,4.033999919891357,-6.751999855041504,-0.6280000209808348,-9.696000099182127,-0.3549999892711639
1621597361254,-1.2599999904632568,3.880000114440918,-7.489999771118165,-0.6280000209808348,-9.682000160217283,-0.4329999983310699
1621597361264,-1.1200000047683716,3.9040000438690186,-7.627999782562256,-0.6280000209808348,-9.682000160217283,-0.4329999983310699
1621597361274,-0.8399999737739563,4.058000087738037,-8.097999572753906,-0.6280000209808348,-9.675999641418455,-0.4709999859333038
1621597361284,-1.0499999523162842,4.422999858856201,-7.75,-0.6280000209808348,-9.720999717712402,-0.4390000104904174
1621597361294,-0.9100000262260436,4.454999923706055,-7.531000137329101,-0.6280000209808348,-9.760000228881836,-0.4460000097751617
1621597361304,-0.8399999737739563,5.006999969482422,-7.433000087738037,-0.5879999995231628,-9.753000259399414,-0.4850000143051147
1621597361314,-1.1200000047683716,5.111999988555908,-7.627999782562256,-0.5879999995231628,-9.71399974822998,-0.4779999852180481
1621597361324,-1.5399999618530271,5.27400016784668,-7.742000102996825,-0.5879999995231628,-9.682000160217283,-0.4329999983310699
1621597361334,-1.399999976158142,5.465000152587891,-7.210999965667725,-0.5879999995231628,-9.64400005340576,-0.4259999990463256
1621597361344,-0.9800000190734864,5.638999938964844,-7.39300012588501,-0.5879999995231628,-9.682000160217283,-0.4329999983310699
1621597361354,-0.7699999809265136,5.388000011444092,-7.579999923706055,-0.5879999995231628,-9.70300006866455,-0.31700000166893
1621597361364,-0.4199999868869781,5.0960001945495605,-7.132999897003174,-0.5879999995231628,-9.734999656677246,-0.3619999885559082
1621597361374,-0.4199999868869781,5.445000171661377,-7.498000144958496,-0.5879999995231628,-9.682000160217283,-0.4329999983310699
1621597361384,-0.1400000005960464,5.298999786376953,-7.880000114440918,-0.5099999904632568,-9.720999717712402,-0.4390000104904174
1621597361394,0.2800000011920929,4.908999919891357,-8.09000015258789,-0.5490000247955322,-9.753000259399414,-0.4850000143051147
1621597361404,0.3499999940395355,4.89300012588501,-7.59600019454956,-0.5879999995231628,-9.753000259399414,-0.4850000143051147
1621597361414,0.4900000095367431,4.5,-7.381000041961671,-0.5879999995231628,-9.746000289916992,-0.5239999890327453
1621597361424,0.7699999809265136,4.442999839782715,-7.461999893188477,-0.5490000247955322,-9.71399974822998,-0.4779999852180481
1621597361434,0.5600000023841857,4.492000102996826,-7.737999916076661,-0.5879999995231628,-9.720999717712402,-0.4390000104904174
1621597361444,0.6299999952316284,4.252999782562256,-7.993000030517577,-0.5879999995231628,-9.760000228881836,-0.4460000097751617
1621597361454,0.7350000143051147,4.328000068664551,-8.01550006866455,-0.5879999995231628,-9.753000259399414,-0.4850000143051147
1621597361464,0.8399999737739563,4.4029998779296875,-8.038000106811523,-0.5879999995231628,-9.760000228881836,-0.4460000097751617
1621597361474,0.7699999809265136,4.146999835968018,-7.797999858856201,-0.6280000209808348,-9.760000228881836,-0.4460000097751617
1621597361484,0.6299999952316284,4.03000020980835,-7.5349998474121085,-0.6280000209808348,-9.760000228881836,-0.4460000097751617
1621597361494,0.4900000095367431,4.14300012588501,-7.373000144958496,-0.6280000209808348,-9.79800033569336,-0.453000009059906
1621597361504,0.0700000002980232,4.3379998207092285,-7.267000198364258,-0.6280000209808348,-9.791999816894531,-0.492000013589859
1621597361514,-0.1400000005960464,4.610000133514404,-6.793000221252441,-0.6280000209808348,-9.79800033569336,-0.453000009059906
1621597361524,-0.4900000095367431,4.7270002365112305,-7.056000232696533,-0.5879999995231628,-9.812000274658203,-0.3759999871253967
1621597361534,-0.6299999952316284,4.589000225067139,-7.080999851226807,-0.5879999995231628,-9.80500030517578,-0.414000004529953
1621597361544,-1.190000057220459,4.788000106811523,-7.401000022888184,-0.5879999995231628,-9.80500030517578,-0.414000004529953
1621597361554,-1.399999976158142,4.710999965667725,-7.769999980926514,-0.5879999995231628,-9.772999763488768,-0.3689999878406524
1621597361564,-1.6799999475479126,4.4679999351501465,-7.599999904632568,-0.5879999995231628,-9.767000198364256,-0.4079999923706054
1621597361574,-1.8200000524520872,4.386000156402588,-7.543000221252441,-0.5879999995231628,-9.727999687194824,-0.4009999930858612
1621597361584,-1.8899999856948853,4.073999881744385,-7.385000228881835,-0.5879999995231628,-9.767000198364256,-0.4079999923706054
1621597361594,-1.8899999856948853,4.5929999351501465,-7.506000041961671,-0.6280000209808348,-9.720999717712402,-0.4390000104904174
1621597361604,-1.8899999856948853,4.386000156402588,-7.543000221252441,-0.6669999957084655,-9.767000198364256,-0.4079999923706054
1621597361614,-2.0299999713897705,4.896999835968018,-8.020999908447266,-0.6280000209808348,-9.767000198364256,-0.4079999923706054
1621597361624,-2.5199999809265137,5.184999942779541,-8.041999816894531,-0.6280000209808348,-9.760000228881836,-0.4460000097751617
1621597361634,-2.6600000858306885,5.3429999351501465,-7.730000019073486,-0.6280000209808348,-9.760000228881836,-0.4460000097751617
1621597361644,-2.7300000190734863,5.423999786376953,-7.78599977493286,-0.6280000209808348,-9.767000198364256,-0.4079999923706054
1621597361654,-3.009999990463257,5.355999946594238,-7.797999858856201,-0.5879999995231628,-9.760000228881836,-0.4460000097751617
1621597361664,-3.009999990463257,5.433000087738037,-7.429999828338623,-0.5879999995231628,-9.753000259399414,-0.4850000143051147
1621597361674,-3.0799999237060547,5.0920000076293945,-7.915999889373779,-0.5490000247955322,-9.753000259399414,-0.4850000143051147
1621597361684,-3.359999895095825,5.011000156402588,-7.859000205993653,-0.5099999904632568,-9.73900032043457,-0.5619999766349792
1621597361694,-3.430000066757202,5.076000213623047,-7.421000003814697,-0.5099999904632568,-9.70699977874756,-0.5170000195503234
1621597361704,-3.3600001335144043,4.901500225067139,-7.238500118255616,-0.5099999904632568,-9.71399974822998,-0.4779999852180481
1621597361714,-3.2899999618530273,4.7270002365112305,-7.056000232696533,-0.5490000247955322,-9.675999641418455,-0.4709999859333038
1621597361724,-2.940000057220459,3.9769999980926514,-6.833000183105469,-0.5490000247955322,-9.71399974822998,-0.4779999852180481
1621597361734,-2.869999885559082,3.9809999465942383,-7.258999824523927,-0.5879999995231628,-9.71399974822998,-0.4779999852180481
1621597361744,-2.869999885559082,4.317999839782715,-7.554999828338623,-0.5879999995231628,-9.668999671936035,-0.5099999904632568
1621597361754,-2.7300000190734863,4.256999969482422,-7.210000038146973,-0.5879999995231628,-9.71399974822998,-0.4779999852180481
1621597361764,-2.380000114440918,3.880000114440918,-7.489999771118165,-0.5490000247955322,-9.668999671936035,-0.5099999904632568
1621597361774,-2.0299999713897705,3.9809999465942383,-7.258999824523927,-0.5490000247955322,-9.675999641418455,-0.4709999859333038
1621597361784,-1.8899999856948853,3.9200000762939458,-6.914000034332275,-0.5490000247955322,-9.701000213623049,-0.5550000071525573
1621597361794,-1.6799999475479126,3.7460000514984126,-6.73199987411499,-0.5490000247955322,-9.701000213623049,-0.5550000071525573
1621597361804,-1.6799999475479126,3.6570000648498535,-7.0320000648498535,-0.5879999995231628,-9.694000244140623,-0.5939999818801879
1621597361814,-1.75,3.319999933242798,-6.736000061035156,-0.5879999995231628,-9.701000213623049,-0.5550000071525573
1621597361824,-1.8200000524520872,3.2109999656677246,-7.323999881744384,-0.6280000209808348,-9.701000213623049,-0.5550000071525573
1621597361834,-1.9600000381469729,3.49399995803833,-8.126999855041504,-0.6280000209808348,-9.70699977874756,-0.5170000195503234
1621597361844,-1.4700000286102295,3.6440000534057617,-8.170999526977539,-0.6280000209808348,-9.71399974822998,-0.4779999852180481
1621597361854,-1.6100000143051147,3.996999979019165,-7.754000186920166,-0.6280000209808348,-9.71399974822998,-0.4779999852180481
1621597361864,-1.6100000143051147,4.459000110626221,-7.956999778747559,-0.6280000209808348,-9.70699977874756,-0.5170000195503234
1621597361874,-1.5399999618530271,4.78000020980835,-7.757999897003175,-0.6280000209808348,-9.71399974822998,-0.4779999852180481
1621597361884,-1.6100000143051147,5.169000148773193,-7.546999931335449,-0.6280000209808348,-9.746000289916992,-0.5239999890327453
1621597361894,-1.75,5.392000198364258,-8.005000114440918,-0.6669999957084655,-9.661999702453612,-0.5490000247955322
1621597361904,-1.6100000143051147,5.521999835968018,-8.338000297546387,-0.5879999995231628,-9.701000213623049,-0.5550000071525573
1621597361914,-1.399999976158142,5.4039998054504395,-8.074000358581543,-0.5490000247955322,-9.694000244140623,-0.5939999818801879
1621597361924,-0.9100000262260436,5.400000095367432,-7.6479997634887695,-0.5490000247955322,-9.701000213623049,-0.5550000071525573
1621597361934,-0.9100000262260436,5.184999942779541,-8.041999816894531,-0.5879999995231628,-9.70699977874756,-0.5170000195503234
1621597361944,-0.8399999737739563,5.372000217437744,-8.293000221252441,-0.5879999995231628,-9.746000289916992,-0.5239999890327453
1621597361954,-0.8049999475479126,5.324999809265137,-8.229999542236328,-0.5879999995231628,-9.753000259399414,-0.4850000143051147
1621597361964,-0.7699999809265136,5.2779998779296875,-8.166999816894531,-0.5879999995231628,-9.746000289916992,-0.5239999890327453
1621597361974,-0.7699999809265136,4.961999893188477,-7.584000110626221,-0.5879999995231628,-9.777999877929688,-0.5690000057220459
1621597361984,-0.7699999809265136,5.2870001792907715,-7.810999870300293,-0.5879999995231628,-9.78499984741211,-0.5299999713897705
1621597361994,-0.699999988079071,4.758999824523926,-8.045999526977539,-0.5879999995231628,-9.746000289916992,-0.5239999890327453
1621597362004,-0.7699999809265136,4.434999942779541,-7.818999767303467,-0.5879999995231628,-9.73900032043457,-0.5619999766349792
1621597362014,-0.8399999737739563,4.735000133514404,-7.907999992370605,-0.5879999995231628,-9.73900032043457,-0.5619999766349792
1621597362024,-1.1200000047683716,4.750999927520752,-8.402999877929688,-0.6280000209808348,-9.732000350952148,-0.6010000109672546
1621597362034,-1.1200000047683716,4.715000152587891,-8.196000099182129,-0.6280000209808348,-9.70699977874756,-0.5170000195503234
1621597362044,-1.1200000047683716,4.747000217437744,-7.9770002365112305,-0.5490000247955322,-9.767000198364256,-0.4079999923706054
1621597362054,-0.9100000262260436,4.808000087738037,-8.321999549865723,-0.5879999995231628,-9.753000259399414,-0.4850000143051147
1621597362064,-0.8399999737739563,4.888999938964844,-8.378000259399414,-0.5099999904632568,-9.753000259399414,-0.4850000143051147
1621597362074,-0.699999988079071,4.946000099182129,-8.29699993133545,-0.5490000247955322,-9.746000289916992,-0.5239999890327453
1621597362084,-0.7699999809265136,4.776000022888184,-8.539999961853027,-0.5490000247955322,-9.701000213623049,-0.5550000071525573
1621597362094,-0.5600000023841857,5.076000213623047,-8.630000114440918,-0.5879999995231628,-9.701000213623049,-0.5550000071525573
1621597362104,-0.4199999868869781,4.98199987411499,-8.503999710083008,-0.5879999995231628,-9.70699977874756,-0.5170000195503234
1621597362114,-0.5600000023841857,4.991000175476074,-8.147000312805176,-0.5490000247955322,-9.70699977874756,-0.5170000195503234
1621597362124,-0.3499999940395355,5.116000175476074,-8.053999900817871,-0.5879999995231628,-9.70699977874756,-0.5170000195503234
1621597362134,-0.0700000002980232,4.991000175476074,-8.147000312805176,-0.5490000247955322,-9.70699977874756,-0.5170000195503234
1621597362144,0.2800000011920929,4.901000022888184,-8.446999549865723,-0.5490000247955322,-9.701000213623049,-0.5550000071525573
1621597362154,0.209999993443489,4.820000171661377,-8.390000343322754,-0.5490000247955322,-9.701000213623049,-0.5550000071525573
1621597362164,0.2800000011920929,5.063000202178955,-8.560999870300293,-0.5490000247955322,-9.73900032043457,-0.5619999766349792
1621597362174,0.699999988079071,5.23799991607666,-8.743000030517578,-0.4709999859333038,-9.760000228881836,-0.4460000097751617
1621597362184,0.4900000095367431,5.189000129699707,-8.468000411987305,-0.5099999904632568,-9.791999816894531,-0.492000013589859
1621597362194,0.4900000095367431,5.177000045776367,-8.39900016784668,-0.5490000247955322,-9.73900032043457,-0.5619999766349792
1621597362204,0.4900000095367431,5.164999961853027,-8.329999923706055,-0.5099999904632568,-9.746000289916992,-0.5239999890327453
1621597362214,0.3499999940395355,4.999000072479248,-7.789999961853027,-0.4709999859333038,-9.777999877929688,-0.5690000057220459
1621597362224,0.0,5.067999839782715,-7.777999877929688,-0.4709999859333038,-9.777999877929688,-0.5690000057220459
1621597362234,-0.2800000011920929,5.0229997634887695,-7.927999973297118,-0.5099999904632568,-9.777999877929688,-0.5690000057220459
1621597362244,-0.4199999868869781,4.999000072479248,-7.789999961853027,-0.5490000247955322,-9.73900032043457,-0.5619999766349792
1621597362254,-0.8399999737739563,4.823999881744385,-7.607999801635742,-0.5490000247955322,-9.73900032043457,-0.5619999766349792
1621597362264,-0.4900000095367431,4.718999862670898,-7.413000106811523,-0.5099999904632568,-9.70699977874756,-0.5170000195503234
1621597362274,-0.5600000023841857,4.519999980926514,-7.0929999351501465,-0.5490000247955322,-9.70699977874756,-0.5170000195503234
1621597362284,-0.5600000023841857,4.357999801635742,-6.979000091552734,-0.5490000247955322,-9.746000289916992,-0.5239999890327453
1621597362294,-0.4199999868869781,4.5,-7.381000041961671,-0.5099999904632568,-9.70699977874756,-0.5170000195503234
1621597362304,-0.2800000011920929,4.638000011444092,-7.355999946594238,-0.5490000247955322,-9.71399974822998,-0.4779999852180481
1621597362314,-0.2800000011920929,4.750999927520752,-7.193999767303467,-0.5879999995231628,-9.746000289916992,-0.5239999890327453
1621597362324,-0.0700000002980232,4.763999938964844,-7.263000011444091,-0.5490000247955322,-9.70699977874756,-0.5170000195503234
1621597362334,-0.1400000005960464,4.464000225067139,-7.173999786376953,-0.5490000247955322,-9.70699977874756,-0.5170000195503234
1621597362344,0.3499999940395355,4.13100004196167,-7.30399990081787,-0.5490000247955322,-9.70699977874756,-0.5170000195503234
1621597362354,0.0,4.13100004196167,-7.30399990081787,-0.4709999859333038,-9.720999717712402,-0.4390000104904174
1621597362364,0.0,4.188000202178955,-7.223000049591064,-0.5490000247955322,-9.753000259399414,-0.4850000143051147
1621597362374,0.0,4.098999977111816,-7.5229997634887695,-0.5879999995231628,-9.753000259399414,-0.4850000143051147
1621597362384,-0.2800000011920929,4.422999858856201,-7.75,-0.5490000247955322,-9.753000259399414,-0.4850000143051147
1621597362394,-0.3499999940395355,4.317999839782715,-7.554999828338623,-0.5490000247955322,-9.760000228881836,-0.4460000097751617
1621597362404,-0.209999993443489,4.686999797821045,-7.631999969482423,-0.5490000247955322,-9.760000228881836,-0.4460000097751617
1621597362414,-0.2800000011920929,4.800000190734863,-7.469999790191651,-0.5490000247955322,-9.79800033569336,-0.453000009059906
1621597362424,-0.699999988079071,5.119999885559082,-7.270999908447266,-0.5879999995231628,-9.760000228881836,-0.4460000097751617
1621597362434,-0.5600000023841857,5.25,-7.604000091552734,-0.5879999995231628,-9.760000228881836,-0.4460000097751617
1621597362444,-0.6299999952316284,5.560500144958496,-7.548999786376954,-0.5879999995231628,-9.78499984741211,-0.5299999713897705
1621597362454,-0.699999988079071,5.870999813079834,-7.493999958038329,-0.5879999995231628,-9.791999816894531,-0.492000013589859
1621597362464,-0.7699999809265136,5.927000045776367,-7.413000106811523,-0.5490000247955322,-9.71399974822998,-0.4779999852180481
1621597362474,-0.699999988079071,5.952000141143799,-7.551000118255616,-0.5099999904632568,-9.70699977874756,-0.5170000195503234
1621597362484,-0.699999988079071,5.814000129699707,-7.576000213623046,-0.5099999904632568,-9.746000289916992,-0.5239999890327453
1621597362494,-0.8399999737739563,5.676000118255615,-7.599999904632568,-0.5099999904632568,-9.746000289916992,-0.5239999890327453
1621597362504,-0.7699999809265136,5.3520002365112305,-7.373000144958496,-0.5490000247955322,-9.746000289916992,-0.5239999890327453
1621597362514,-0.9800000190734864,5.099999904632568,-7.559000015258789,-0.5490000247955322,-9.746000289916992,-0.5239999890327453
1621597362524,-0.8399999737739563,4.973999977111816,-7.651999950408936,-0.5099999904632568,-9.701000213623049,-0.5550000071525573
1621597362534,-0.8399999737739563,4.982999801635742,-7.296000003814697,-0.5099999904632568,-9.701000213623049,-0.5550000071525573
1621597362544,-0.4900000095367431,5.072000026702881,-6.995999813079834,-0.5099999904632568,-9.70699977874756,-0.5170000195503234
1621597362554,-0.7699999809265136,4.909999847412109,-6.881999969482422,-0.5490000247955322,-9.753000259399414,-0.4850000143051147
1621597362564,-0.4900000095367431,4.953999996185303,-6.73199987411499,-0.5490000247955322,-9.70699977874756,-0.5170000195503234
1621597362574,-0.4900000095367431,4.873000144958496,-6.675000190734863,-0.5490000247955322,-9.753000259399414,-0.4850000143051147
1621597362584,-0.5600000023841857,4.670000076293945,-7.13700008392334,-0.5879999995231628,-9.746000289916992,-0.5239999890327453
1621597362594,-0.5600000023841857,4.519999980926514,-7.0929999351501465,-0.5490000247955322,-9.760000228881836,-0.4460000097751617
1621597362604,-0.6299999952316284,4.645999908447266,-7.0,-0.6280000209808348,-9.73900032043457,-0.5619999766349792
1621597362614,-0.4199999868869781,4.3460001945495605,-6.909999847412109,-0.6280000209808348,-9.70699977874756,-0.5170000195503234
1621597362624,-0.3499999940395355,4.5320000648498535,-7.1620001792907715,-0.5879999995231628,-9.73900032043457,-0.5619999766349792
1621597362634,-0.6299999952316284,4.622000217437744,-6.861999988555908,-0.6280000209808348,-9.701000213623049,-0.5550000071525573
1621597362644,-0.6299999952316284,4.610000133514404,-6.793000221252441,-0.5879999995231628,-9.746000289916992,-0.5239999890327453
1621597362654,-0.4900000095367431,4.322000026702881,-6.771999835968018,-0.5879999995231628,-9.753000259399414,-0.4850000143051147
1621597362664,-0.4199999868869781,4.078000068664551,-6.6020002365112305,-0.5490000247955322,-9.746000289916992,-0.5239999890327453
1621597362674,-0.4900000095367431,4.067999839782715,-6.746000289916992,-0.5490000247955322,-9.746000289916992,-0.5239999890327453
1621597362684,-0.5600000023841857,4.058000087738037,-6.889999866485596,-0.5490000247955322,-9.746000289916992,-0.5239999890327453
1621597362694,-0.5600000023841857,4.10699987411499,-7.165999889373779,-0.5490000247955322,-9.78499984741211,-0.5299999713897705
1621597362704,-0.5600000023841857,3.936000108718872,-7.4089999198913565,-0.5879999995231628,-9.78499984741211,-0.5299999713897705
1621597362714,-0.5600000023841857,4.038000106811523,-7.177999973297119,-0.5879999995231628,-9.777999877929688,-0.5690000057220459
1621597362724,-0.8399999737739563,3.875999927520752,-7.064000129699707,-0.5879999995231628,-9.770999908447264,-0.6079999804496765
1621597362734,-1.0499999523162842,4.244999885559082,-7.140999794006348,-0.5879999995231628,-9.732000350952148,-0.6010000109672546
1621597362744,-1.3300000429153442,4.3379998207092285,-7.267000198364258,-0.6280000209808348,-9.711999893188477,-0.7170000076293945
1621597362754,-0.9800000190734864,4.261000156402588,-7.636000156402587,-0.5879999995231628,-9.718999862670898,-0.6779999732971191
1621597362764,-1.0499999523162842,4.041999816894531,-7.604000091552734,-0.5879999995231628,-9.694000244140623,-0.5939999818801879
1621597362774,-0.8399999737739563,4.293000221252441,-7.416999816894531,-0.6280000209808348,-9.701000213623049,-0.5550000071525573
1621597362784,-0.5600000023841857,4.39900016784668,-7.611999988555909,-0.5879999995231628,-9.70699977874756,-0.5170000195503234
1621597362794,-0.4199999868869781,4.211999893188477,-7.360000133514405,-0.5879999995231628,-9.70699977874756,-0.5170000195503234
1621597362804,-0.4199999868869781,4.377999782562256,-7.900000095367432,-0.5490000247955322,-9.753000259399414,-0.4850000143051147
1621597362814,-0.2800000011920929,4.459000110626221,-7.956999778747559,-0.5490000247955322,-9.71399974822998,-0.4779999852180481
1621597362823,-0.5600000023841857,4.216000080108643,-7.78599977493286,-0.5490000247955322,-9.73900032043457,-0.5619999766349792
1621597362833,-0.4199999868869781,4.284999847412109,-7.77400016784668,-0.5879999995231628,-9.746000289916992,-0.5239999890327453
1621597362843,-0.2800000011920929,4.228000164031982,-7.855000019073486,-0.5490000247955322,-9.70699977874756,-0.5170000195503234
1621597362854,0.0,4.589000225067139,-8.288999557495117,-0.5099999904632568,-9.753000259399414,-0.4850000143051147
1621597362863,0.209999993443489,4.758999824523926,-8.045999526977539,-0.5099999904632568,-9.71399974822998,-0.4779999852180481
1621597362873,0.0700000002980232,5.265999794006348,-8.098999977111816,-0.5099999904632568,-9.73900032043457,-0.5619999766349792
1621597362883,0.3499999940395355,4.4720001220703125,-8.024999618530273,-0.5099999904632568,-9.73900032043457,-0.5619999766349792
1621597362893,0.2800000011920929,4.421000003814697,-8.140999794006348,-0.5099999904632568,-9.753000259399414,-0.4850000143051147
1621597362903,0.209999993443489,4.369999885559082,-8.256999969482422,-0.4709999859333038,-9.753000259399414,-0.4850000143051147
1621597362913,0.2800000011920929,3.989000082015991,-8.111000061035156,-0.5099999904632568,-9.70699977874756,-0.5170000195503234
1621597362923,0.4199999868869781,3.6649999618530273,-7.882999897003175,-0.5099999904632568,-9.71399974822998,-0.4779999852180481
1621597362933,0.7699999809265136,3.79800009727478,-8.642000198364258,-0.5099999904632568,-9.675999641418455,-0.4709999859333038
1621597362943,0.7699999809265136,3.900000095367432,-8.41100025177002,-0.5490000247955322,-9.675999641418455,-0.4709999859333038
1621597362953,1.0499999523162842,3.8190000057220455,-8.354000091552734,-0.5490000247955322,-9.675999641418455,-0.4709999859333038
1621597362963,0.9100000262260436,3.9570000171661377,-8.329999923706055,-0.5099999904632568,-9.720999717712402,-0.4390000104904174
1621597362973,0.4900000095367431,4.126999855041504,-8.086000442504883,-0.5099999904632568,-9.727999687194824,-0.4009999930858612
1621597362983,0.5600000023841857,4.515999794006348,-7.875,-0.5099999904632568,-9.727999687194824,-0.4009999930858612
1621597362993,0.209999993443489,4.572999954223633,-7.794000148773193,-0.5099999904632568,-9.734999656677246,-0.3619999885559082
1621597363003,0.0,4.941999912261963,-7.870999813079834,-0.5099999904632568,-9.734999656677246,-0.3619999885559082
1621597363013,0.0,5.234000205993652,-8.317999839782715,-0.5099999904632568,-9.80500030517578,-0.414000004529953
1621597363023,0.4199999868869781,5.257999897003174,-8.454999923706055,-0.5099999904632568,-9.80500030517578,-0.414000004529953
1621597363033,0.8399999737739563,5.063000202178955,-8.560999870300293,-0.5490000247955322,-9.767000198364256,-0.4079999923706054
1621597363043,0.4900000095367431,5.039000034332275,-8.42300033569336,-0.5099999904632568,-9.767000198364256,-0.4079999923706054
1621597363053,0.2800000011920929,5.315000057220459,-8.37399959564209,-0.5099999904632568,-9.767000198364256,-0.4079999923706054
1621597363063,0.209999993443489,5.546000003814697,-8.47599983215332,-0.5490000247955322,-9.79800033569336,-0.453000009059906
1621597363073,-0.0700000002980232,6.065000057220459,-8.597000122070312,-0.5879999995231628,-9.760000228881836,-0.4460000097751617
1621597363083,-0.1400000005960464,6.288000106811523,-7.847000122070312,-0.5490000247955322,-9.80500030517578,-0.414000004529953
1621597363093,-0.2800000011920929,6.815000057220459,-7.611999988555909,-0.5099999904632568,-9.843999862670898,-0.4210000038146972
1621597363103,-0.3849999904632568,6.701499938964844,-7.774499893188477,-0.5490000247955322,-9.843999862670898,-0.4210000038146972
1621597363113,-0.4900000095367431,6.5879998207092285,-7.936999797821045,-0.5490000247955322,-9.79800033569336,-0.453000009059906
1621597363123,-0.5600000023841857,6.519000053405762,-7.948999881744384,-0.5099999904632568,-9.836999893188477,-0.4600000083446502
1621597363133,-0.8399999737739563,6.790999889373779,-7.473999977111816,-0.5099999904632568,-9.87600040435791,-0.4670000076293945
1621597363143,-0.9800000190734864,7.021999835968018,-7.576000213623046,-0.5099999904632568,-9.888999938964846,-0.3889999985694885
1621597363153,-1.1200000047683716,6.702000141143799,-7.77400016784668,-0.5099999904632568,-9.843999862670898,-0.4210000038146972
1621597363163,-1.2599999904632568,6.888000011444092,-8.026000022888184,-0.5490000247955322,-9.87600040435791,-0.4670000076293945
1621597363173,-1.2599999904632568,6.98199987411499,-8.152000427246094,-0.5490000247955322,-9.88199996948242,-0.4280000030994415
1621597363183,-1.399999976158142,6.831999778747559,-8.107000350952148,-0.5879999995231628,-9.888999938964846,-0.3889999985694885
1621597363193,-1.6100000143051147,7.249000072479248,-8.460000038146973,-0.6280000209808348,-9.991999626159668,-0.4869999885559082
1621597363203,-1.3300000429153442,7.942999839782715,-8.763999938964844,-0.6669999957084655,-10.029999732971191,-0.4939999878406524
1621597363213,-1.4700000286102295,8.805999755859375,-8.824999809265137,-0.6280000209808348,-10.069000244140623,-0.5009999871253967
1621597363223,-1.4700000286102295,9.52400016784668,-9.267000198364256,-0.5879999995231628,-10.076000213623049,-0.4620000123977661
1621597363233,-1.5399999618530271,9.892999649047852,-9.343999862670898,-0.6280000209808348,-10.076000213623049,-0.4620000123977661
1621597363243,-2.1700000762939453,10.626999855041504,-9.071999549865724,-0.5879999995231628,-10.02299976348877,-0.5329999923706054
1621597363253,-2.7300000190734863,11.053000450134276,-9.067999839782717,-0.6280000209808348,-9.946000099182127,-0.5189999938011169
1621597363263,-2.380000114440918,11.401000022888184,-9.43299961090088,-0.6280000209808348,-9.946000099182127,-0.5189999938011169
1621597363273,-2.240000009536743,12.560999870300291,-10.366000175476074,-0.6280000209808348,-9.991999626159668,-0.4869999885559082
1621597363283,-1.8200000524520872,13.44499969482422,-11.347999572753906,-0.6280000209808348,-9.991999626159668,-0.4869999885559082
1621597363293,-1.4700000286102295,14.668999671936035,-11.843000411987305,-0.6280000209808348,-9.991999626159668,-0.4869999885559082
1621597363303,-1.3300000429153442,15.18000030517578,-11.717000007629396,-0.5879999995231628,-9.87600040435791,-0.4670000076293945
1621597363313,-1.190000057220459,15.690999984741213,-11.590999603271484,-0.5879999995231628,-9.791999816894531,-0.492000013589859
1621597363323,-1.6100000143051147,16.71299934387207,-11.340000152587892,-0.6280000209808348,-9.753000259399414,-0.4850000143051147
1621597363333,-1.75,17.572999954223633,-10.975000381469728,-0.6669999957084655,-9.791999816894531,-0.492000013589859
1621597363343,-1.190000057220459,19.0,-11.008000373840332,-0.7059999704360961,-9.829999923706056,-0.4990000128746032
1621597363353,-0.2800000011920929,20.85700035095215,-11.461999893188477,-0.7450000047683715,-9.95300006866455,-0.4799999892711639
1621597363363,0.5600000023841857,22.694000244140625,-12.204999923706056,-0.9020000100135804,-9.998000144958496,-0.4490000009536743
1621597363373,0.8399999737739563,25.5,-13.203000068664553,-0.9409999847412108,-10.036999702453612,-0.4550000131130218
1621597363383,0.9100000262260436,30.000999450683594,-13.333000183105469,-1.0590000152587893,-10.121000289916992,-0.4300000071525573
1621597363393,1.0499999523162842,35.10599899291992,-12.859000205993652,-1.215999960899353,-10.197999954223633,-0.4440000057220459
1621597363403,0.8399999737739563,41.229000091552734,-12.916999816894531,-1.4509999752044678,-10.204999923706056,-0.4050000011920929
1621597363413,0.0700000002980232,48.44300079345703,-12.711000442504885,-1.687000036239624,-10.190999984741213,-0.4830000102519989
1621597363423,-1.0499999523162842,57.87099838256836,-11.758999824523926,-1.9220000505447388,-10.152999877929688,-0.4760000109672546
1621597363433,-2.1700000762939453,68.46700286865234,-11.383999824523926,-2.0789999961853027,-10.043999671936035,-0.4169999957084655
1621597363443,-3.5,79.78800201416016,-12.302000045776367,-2.118000030517578,-9.88199996948242,-0.4280000030994415
1621597363453,-5.110000133514404,90.03900146484375,-13.19499969482422,-2.0789999961853027,-9.734999656677246,-0.3619999885559082
1621597363463,-7.8400001525878915,100.44000244140624,-12.925000190734863,-2.118000030517578,-9.734999656677246,-0.3619999885559082
1621597363473,-10.779999732971191,111.33200073242188,-12.213000297546388,-2.197000026702881,-9.70300006866455,-0.31700000166893
1621597363483,-13.510000228881836,124.15399932861328,-11.159999847412108,-2.3540000915527344,-9.638999938964846,-0.2259999960660934
1621597363493,-14.489999771118164,131.62550354003906,-10.802499771118164,-2.3929998874664307,-9.569000244140623,-0.1739999949932098
1621597363503,-15.470000267028809,139.0970001220703,-10.44499969482422,-2.313999891281128,-9.467000007629396,-0.0759999975562095
1621597363513,-15.960000038146973,153.6750030517578,-10.078000068664553,-2.1570000648498535,-9.279999732971191,-0.003000000026077
1621597363523,-16.030000686645508,166.44400024414062,-10.741000175476074,-1.843999981880188,-8.939000129699707,0.0970000028610229
1621597363533,-15.609999656677246,176.58900451660156,-11.439000129699709,-1.4509999752044678,-8.779999732971191,0.3240000009536743
1621597363543,-15.050000190734863,185.1009979248047,-12.142000198364258,-1.1380000114440918,-8.567000389099121,0.2419999986886978
1621597363553,-14.0,192.593994140625,-13.522000312805176,-0.9020000100135804,-8.651000022888184,0.2669999897480011
1621597363563,-11.970000267028809,199.6210021972656,-15.480999946594238,-0.7059999704360961,-8.696000099182129,0.2989999949932098
1621597363573,-9.449999809265137,206.5260009765625,-17.959999084472656,-0.4709999859333038,-8.786999702453613,0.3630000054836273
1621597363583,-6.369999885559082,212.62899780273435,-20.722000122070312,-0.2750000059604644,-8.871000289916992,0.3880000114440918
1621597363593,-3.0799999237060547,217.20199584960935,-22.475000381469727,-0.0780000016093254,-8.930000305175781,0.4970000088214874
1621597363603,-0.9100000262260436,220.1909942626953,-22.09000015258789,0.3529999852180481,-9.092000007629396,0.5080000162124633
1621597363613,0.9800000190734864,222.2270050048828,-20.736000061035156,0.4309999942779541,-9.21399974822998,0.5260000228881835
1621597363623,2.5199999809265137,224.13299560546875,-19.048999786376953,0.4309999942779541,-9.460000038146973,0.5630000233650208
1621597363633,3.990000009536743,226.9470062255859,-18.48200035095215,0.4309999942779541,-9.781999588012695,0.5849999785423278
1621597363643,5.179999828338623,230.0050048828125,-18.084999084472656,0.5099999904632568,-10.0600004196167,0.5759999752044677
1621597363653,6.300000190734863,233.2610015869141,-19.21699905395508,0.5879999995231628,-10.182000160217283,0.5939999818801879
1621597363663,6.579999923706055,235.2310028076172,-20.71699905395508,0.8240000009536743,-10.119000434875488,0.6850000023841857
1621597363673,6.090000152587891,236.0989990234375,-21.20400047302246,1.0980000495910645,-9.96399974822998,0.7129999995231628
1621597363683,5.389999866485596,235.8070068359375,-18.340999603271484,1.2549999952316284,-9.815999984741213,0.7789999842643737
1621597363693,4.899999618530273,235.24400329589844,-16.55699920654297,1.2940000295639038,-9.538999557495115,0.7879999876022338
1621597363703,4.409999847412109,234.68099975585935,-14.77299976348877,1.3339999914169312,-9.300999641418455,0.7900000214576721
1621597363713,3.7100000381469727,232.9409942626953,-12.164999961853027,1.4119999408721924,-9.069000244140623,0.8309999704360961
1621597363723,3.569999933242798,231.7209930419922,-10.88700008392334,1.4119999408721924,-8.946000099182129,0.8119999766349792
1621597363733,3.6400001049041744,230.4600067138672,-10.185999870300291,1.3730000257492063,-9.062000274658203,0.7919999957084655
1621597363743,3.7799999713897705,228.802001953125,-8.843000411987305,1.2940000295639038,-9.1850004196167,0.8100000023841857
1621597363753,3.849999904632568,227.906005859375,-7.793000221252441,1.1770000457763672,-9.255000114440918,0.7580000162124633
1621597363763,3.7799999713897705,227.572998046875,-6.714000225067139,1.0590000152587893,-9.33899974822998,0.7829999923706054
1621597363773,2.799999952316284,227.13999938964844,-4.6579999923706055,0.8629999756813049,-9.402999877929688,0.6919999718666076
1621597363783,1.9600000381469729,227.58999633789065,-1.1670000553131104,0.6669999957084655,-9.538999557495115,0.7879999876022338
1621597363793,1.1200000047683716,229.28599548339844,2.1170001029968266,0.5879999995231628,-9.616000175476074,0.7739999890327453
1621597363803,1.1200000047683716,231.99099731445312,3.305000066757202,0.7450000047683715,-9.694000244140623,0.7599999904632568
1621597363813,1.399999976158142,233.63299560546875,3.6659998893737793,1.0199999809265137,-9.79599952697754,0.6629999876022338
1621597363823,0.8399999737739563,233.1020050048828,6.2729997634887695,1.2549999952316284,-9.815999984741213,0.7789999842643737
1621597363833,-0.0700000002980232,230.93699645996097,10.085000038146973,1.569000005722046,-9.835000038146973,0.656000018119812
1621597363843,-0.699999988079071,226.8820037841797,11.715999603271484,1.8830000162124632,-9.968999862670898,0.5130000114440918
1621597363853,-1.1200000047683716,220.5970001220703,11.88700008392334,2.1570000648498535,-10.194000244140623,0.4329999983310699
1621597363863,-1.9600000381469729,213.72799682617188,11.741999626159668,2.3929998874664307,-10.373000144958496,0.3219999969005584
1621597363873,-3.6400001049041744,205.7480010986328,11.04599952697754,2.5889999866485596,-10.416000366210936,0.1150000020861625
1621597363883,-4.65500020980835,200.93450927734375,10.729999542236328,2.7070000171661377,-10.388999938964844,-0.0390000008046627
1621597363893,-5.670000076293945,196.1210021972656,10.413999557495115,2.864000082015991,-10.401000022888184,-0.2010000050067901
1621597363903,-8.119999885559082,185.39599609375,10.371000289916992,2.864000082015991,-10.404999732971191,-0.4009999930858612
1621597363913,-10.56999969482422,174.10699462890625,10.300000190734863,2.8239998817443848,-10.352999687194824,-0.4709999859333038
1621597363923,-12.460000038146973,163.28799438476562,9.173999786376951,2.7850000858306885,-10.293999671936035,-0.5799999833106994
1621597363933,-13.720000267028809,153.1540069580078,7.387000083923339,2.7070000171661377,-10.234999656677246,-0.6890000104904174
1621597363943,-15.470000267028809,143.02000427246094,6.809000015258789,2.5889999866485596,-10.267000198364258,-0.7350000143051147
1621597363953,-17.010000228881836,134.48899841308594,7.223000049591064,2.431999921798706,-10.201000213623049,-0.8830000162124633
1621597363963,-18.479999542236328,127.02799987792967,7.613999843597413,2.313999891281128,-10.116999626159668,-0.9079999923706054
1621597363973,-19.31999969482422,120.88500213623048,8.592000007629395,2.118000030517578,-10.135000228881836,-1.0299999713897705
1621597363983,-20.15999984741211,115.19200134277344,10.645000457763672,1.9220000505447388,-10.083000183105469,-1.10099995136261
1621597363993,-21.209999084472656,110.72299957275392,12.20199966430664,1.7649999856948853,-9.991999626159668,-1.1640000343322754
1621597364003,-21.420000076293945,106.8219985961914,13.36299991607666,1.6480000019073486,-9.87600040435791,-1.1440000534057615
1621597364013,-21.280000686645508,103.48500061035156,14.550999641418455,1.491000056266785,-9.829999923706056,-1.1759999990463257
1621597364023,-21.209999084472656,101.08100128173828,16.89900016784668,1.3730000257492063,-9.760000228881836,-1.1230000257492063
1621597364033,-20.790000915527344,98.6969985961914,19.53499984741211,1.215999960899353,-9.630000114440918,-1.1799999475479126
1621597364043,-19.809999465942383,96.28099822998048,21.95199966430664,1.0590000152587893,-9.513999938964846,-1.1599999666213987
1621597364053,-18.270000457763672,94.11199951171876,23.77300071716309,0.9020000100135804,-9.437000274658203,-1.1460000276565552
1621597364063,-16.8700008392334,91.9749984741211,24.604999542236328,0.7850000262260437,-9.321000099182127,-1.1260000467300415
1621597364073,-15.050000190734863,90.13800048828124,25.347000122070312,0.7059999704360961,-9.276000022888184,-1.1579999923706057
1621597364083,-14.034999847412108,89.65550231933594,25.262001037597656,0.5099999904632568,-9.166999816894531,-1.0989999771118164
1621597364093,-13.020000457763672,89.1729965209961,25.177000045776367,0.4309999942779541,-9.204999923706056,-1.1050000190734863
1621597364103,-10.920000076293944,87.94000244140625,24.10700035095215,0.3529999852180481,-9.282999992370604,-1.11899995803833
1621597364113,-8.890000343322754,87.01100158691406,22.520999908447266,0.2349999994039535,-9.404999732971191,-1.10099995136261
1621597364123,-7.070000171661377,86.38200378417967,20.847000122070312,0.1570000052452087,-9.444000244140623,-1.1080000400543213
1621597364133,-5.25,85.88700103759767,19.621999740600582,0.1959999948740005,-9.451000213623049,-1.069000005722046
1621597364143,-4.269999980926514,84.65499877929688,18.552000045776367,0.1959999948740005,-9.458000183105469,-1.0299999713897705
1621597364153,-3.0799999237060547,82.9469985961914,17.753000259399414,0.1959999948740005,-9.572999954223633,-1.0509999990463257
1621597364163,-2.6600000858306885,80.88300323486328,18.17099952697754,0.1959999948740005,-9.612000465393066,-1.0579999685287476
1621597364173,-2.1700000762939453,78.72599792480469,17.506999969482422,0.2349999994039535,-9.579999923706056,-1.0119999647140503
1621597364183,-1.6100000143051147,76.64199829101562,16.42799949645996,0.2750000059604644,-9.593999862670898,-0.9350000023841856
1621597364193,-0.699999988079071,74.80000305175781,15.18000030517578,0.2750000059604644,-9.569000244140623,-0.8510000109672546
1621597364203,0.0,72.50900268554688,14.0649995803833,0.3140000104904174,-9.543999671936035,-0.7670000195503234
1621597364213,0.9100000262260436,69.63400268554688,12.633999824523926,0.2750000059604644,-9.543999671936035,-0.7670000195503234
1621597364223,1.8899999856948853,67.01000213623047,11.388999938964844,0.2750000059604644,-9.645999908447264,-0.8640000224113464
1621597364233,2.5899999141693115,64.28099822998047,11.54800033569336,0.2750000059604644,-9.814000129699709,-0.8140000104904174
1621597364243,3.1500000953674316,61.369998931884766,10.324000358581545,0.2349999994039535,-9.697999954223633,-0.7940000295639038
1621597364253,3.1500000953674316,57.926998138427734,9.28999996185303,0.3140000104904174,-9.58899974822998,-0.7350000143051147
1621597364263,3.569999933242798,54.917999267578125,9.826000213623049,0.3529999852180481,-9.51900005340576,-0.6830000281333923
1621597364273,3.990000009536743,52.25400161743164,11.630999565124512,0.3140000104904174,-9.416999816894531,-0.5849999785423278
1621597364283,4.690000057220459,51.31549835205078,11.71399974822998,0.2750000059604644,-9.197999954223633,-0.4670000076293945
1621597364293,5.389999866485596,50.37699890136719,11.796999931335447,0.3140000104904174,-9.08899974822998,-0.4079999923706054
1621597364303,7.769999980926514,48.56800079345703,9.559000015258787,0.3529999852180481,-9.444000244140623,-0.4300000071525573
1621597364313,10.710000038146973,47.071998596191406,8.371000289916992,0.2349999994039535,-10.01200008392334,-0.3709999918937683
1621597364323,13.649999618530272,45.68899917602539,9.762000083923342,0.1180000007152557,-10.244000434875488,-0.4120000004768371
1621597364333,15.960000038146973,45.25899887084961,8.97599983215332,0.1180000007152557,-10.197999954223633,-0.4440000057220459
1621597364343,16.3799991607666,45.347999572753906,4.441999912261963,0.1959999948740005,-10.076000213623049,-0.4620000123977661
1621597364353,14.699999809265137,44.60499954223633,0.1879999935626983,0.1959999948740005,-9.92099952697754,-0.4350000023841857
1621597364363,11.340000152587892,44.34099960327149,0.0710000023245811,0.1570000052452087,-9.836999893188477,-0.4600000083446502
1621597364373,7.630000114440918,44.68600082397461,0.1319999992847442,0.1570000052452087,-9.843999862670898,-0.4210000038146972
1621597364383,4.059999942779541,44.560001373291016,-2.378000020980835,0.1570000052452087,-9.80500030517578,-0.414000004529953
1621597364393,1.8200000524520872,44.680999755859375,-5.485000133514404,0.1570000052452087,-9.656999588012695,-0.3490000069141387
1621597364403,0.1400000005960464,45.67399978637695,-8.295000076293945,0.1570000052452087,-9.619000434875488,-0.3420000076293945
1621597364413,-1.0499999523162842,46.88600158691406,-9.928999900817873,0.1570000052452087,-9.46399974822998,-0.3149999976158142
1621597364423,-2.0299999713897705,47.62799835205078,-11.717000007629396,0.1570000052452087,-9.303000450134276,-0.3260000050067901
1621597364433,-2.869999885559082,48.91400146484375,-12.557000160217283,0.1570000052452087,-9.147999763488768,-0.2989999949932098
1621597364443,-3.7100000381469727,50.637001037597656,-13.461999893188477,0.1570000052452087,-8.979999542236328,-0.3490000069141387
1621597364453,-4.829999923706055,52.7859992980957,-13.154000282287598,0.1959999948740005,-8.942000389099121,-0.3420000076293945
1621597364463,-6.159999847412109,54.8380012512207,-12.293999671936035,0.3140000104904174,-9.012000083923342,-0.3939999938011169
1621597364473,-6.684999942779541,55.99800109863281,-11.414499282836914,0.3529999852180481,-9.128000259399414,-0.4149999916553497
1621597364483,-7.210000038146973,57.15800094604492,-10.534999847412108,0.3919999897480011,-9.29599952697754,-0.3650000095367431
1621597364493,-7.9099998474121085,59.1609992980957,-9.399999618530272,0.4309999942779541,-9.411999702453612,-0.3849999904632568
1621597364502,-7.699999809265136,61.40299987792969,-9.217000007629396,0.5879999995231628,-9.527999877929688,-0.4050000011920929
1621597364512,-6.71999979019165,63.678001403808594,-8.815999984741211,0.6280000209808348,-9.64400005340576,-0.4259999990463256
1621597364522,-5.460000038146973,65.6449966430664,-7.473999977111816,0.6669999957084655,-9.760000228881836,-0.4460000097751617
1621597364532,-4.340000152587891,66.55799865722656,-5.394000053405762,0.7059999704360961,-9.836999893188477,-0.4600000083446502
1621597364542,-3.569999933242798,66.8740005493164,-3.561000108718872,0.7850000262260437,-9.946000099182127,-0.5189999938011169
1621597364552,-2.380000114440918,67.30500030517578,-1.5659999847412107,0.8240000009536743,-10.093999862670898,-0.5849999785423278
1621597364562,-1.0499999523162842,66.85900115966797,0.5580000281333923,0.8629999756813049,-10.210000038146973,-0.6050000190734863
1621597364572,0.4199999868869781,66.44100189208984,0.9110000133514404,0.9020000100135804,-10.279999732971191,-0.6579999923706054
1621597364582,1.3300000429153442,64.58399963378906,1.366000056266785,0.8629999756813049,-10.36400032043457,-0.6330000162124633
1621597364592,1.8200000524520872,63.55799865722656,1.5399999618530271,0.8629999756813049,-10.465999603271484,-0.7300000190734863
1621597364602,2.5199999809265137,62.32500076293945,0.4699999988079071,0.7850000262260437,-10.465999603271484,-0.7300000190734863
1621597364612,3.1500000953674316,61.75699996948242,-1.5490000247955322,0.7850000262260437,-10.479999542236328,-0.652999997138977
1621597364622,4.269999980926514,61.41600036621094,-3.24399995803833,0.7450000047683715,-10.371000289916992,-0.5939999818801879
1621597364632,5.320000171661377,61.362998962402344,-4.960000038146973,0.7059999704360961,-10.222999572753906,-0.527999997138977
1621597364642,6.300000190734863,61.70000076293945,-6.464000225067139,0.7850000262260437,-10.121000289916992,-0.4300000071525573
1621597364652,8.119999885559082,62.178001403808594,-8.369999885559082,0.7059999704360961,-10.01200008392334,-0.3709999918937683
1621597364662,9.800000190734863,62.53499984741211,-9.586999893188477,0.7059999704360961,-9.947999954223633,-0.2800000011920929
1621597364672,10.465000152587892,62.94449996948242,-9.692500114440918,0.7059999704360961,-9.916999816894531,-0.2349999994039535
1621597364682,11.130000114440918,63.354000091552734,-9.79800033569336,0.6669999957084655,-9.92300033569336,-0.1959999948740005
1621597364692,12.8100004196167,63.84000015258789,-10.137999534606934,0.6669999957084655,-9.89099979400635,-0.1509999930858612
1621597364702,13.720000267028809,64.3550033569336,-9.833999633789062,0.7059999704360961,-9.89099979400635,-0.1509999930858612
1621597364712,13.859999656677246,65.38099670410156,-10.008999824523926,0.6669999957084655,-9.968999862670898,-0.164000004529953
1621597364722,13.369999885559082,66.39099884033203,-9.689000129699709,0.6280000209808348,-10.053000450134276,-0.1389999985694885
1621597364732,12.460000038146973,67.3479995727539,-8.666999816894531,0.5879999995231628,-10.090999603271484,-0.1459999978542327
1621597364742,11.479999542236328,68.49199676513672,-7.895999908447266,0.5879999995231628,-10.0600004196167,-0.101000003516674
1621597364752,10.5,69.83399963378906,-7.447000026702882,0.5490000247955322,-9.944000244140623,-0.0799999982118606
1621597364762,9.029999732971191,71.31400299072266,-6.9720001220703125,0.4709999859333038,-9.847999572753906,0.0560000017285346
1621597364772,7.699999809265136,72.35600280761719,-6.433000087738037,0.4309999942779541,-9.79599952697754,-0.0149999996647238
1621597364782,6.650000095367432,73.83699798583984,-5.959000110626221,0.4309999942779541,-9.75100040435791,-0.0460000000894069
1621597364792,5.53000020980835,74.98400115966797,-5.613999843597412,0.4309999942779541,-9.711999893188477,-0.0399999991059303
1621597364802,4.480000019073486,76.06700134277344,-5.708000183105469,0.4309999942779541,-9.711999893188477,-0.0399999991059303
1621597364812,2.869999885559082,76.58599853515625,-5.829999923706055,0.3919999897480011,-9.711999893188477,-0.0399999991059303
1621597364822,1.4700000286102295,77.25900268554688,-6.421999931335449,0.3529999852180481,-9.781999588012695,-0.0920000001788139
1621597364832,-0.0700000002980232,78.26399993896484,-8.092000007629395,0.3140000104904174,-9.807000160217283,-0.1759999990463256
1621597364842,-1.5399999618530271,79.39099884033203,-9.244000434875488,0.2750000059604644,-9.916999816894531,-0.2349999994039535
1621597364852,-2.5899999141693115,80.57499694824219,-10.3149995803833,0.2349999994039535,-10.04599952697754,-0.1780000030994415
1621597364862,-2.7300000190734863,81.92500305175781,-11.925000190734863,0.2349999994039535,-10.085000038146973,-0.1850000023841857
1621597364872,-3.359999895095825,83.2509994506836,-13.397000312805176,0.2750000059604644,-10.14799976348877,-0.2759999930858612
1621597364882,-3.6050000190734863,83.90599822998047,-13.88599967956543,0.2750000059604644,-10.22599983215332,-0.289000004529953
1621597364892,-3.849999904632568,84.56099700927734,-14.375,0.2750000059604644,-10.263999938964844,-0.2960000038146972
1621597364902,-4.059999942779541,85.6510009765625,-15.31999969482422,0.3140000104904174,-10.187000274658203,-0.2829999923706054
1621597364912,-4.130000114440918,86.36499786376953,-16.54400062561035,0.3140000104904174,-10.038999557495115,-0.2169999927282333
1621597364922,-4.340000152587891,87.26499938964844,-16.812000274658203,0.4309999942779541,-9.93000030517578,-0.1580000072717666
1621597364932,-4.480000019073486,87.86900329589844,-16.20800018310547,0.3919999897480011,-9.807000160217283,-0.1759999990463256
1621597364942,-3.990000009536743,88.73699951171875,-15.486000061035156,0.3919999897480011,-9.762000083923342,-0.2080000042915344
1621597364952,-3.849999904632568,89.30500030517578,-14.675000190734863,0.3529999852180481,-9.69200038909912,-0.1550000011920929
1621597364962,-3.009999990463257,89.65399932861328,-13.83199977874756,0.3529999852180481,-9.621000289916992,-0.1030000001192092
1621597364972,-1.75,90.39600372314452,-13.203000068664553,0.3140000104904174,-9.472999572753906,-0.0370000004768371
1621597364982,-0.4199999868869781,91.4499969482422,-12.732999801635742,0.2750000059604644,-9.319000244140623,-0.0099999997764825
1621597364992,0.8399999737739563,91.38999938964844,-12.388999938964844,0.2349999994039535,-9.20300006866455,0.0099999997764825
1621597365002,1.8200000524520872,91.9739990234375,-12.071999549865724,0.1959999948740005,-9.133000373840332,0.0630000010132789
1621597365012,2.450000047683716,92.302001953125,-11.517000198364258,0.1570000052452087,-9.086999893188477,0.0309999994933605
1621597365022,2.450000047683716,92.81700134277344,-11.213000297546388,0.1180000007152557,-9.189000129699709,-0.06700000166893
1621597365032,1.9600000381469729,93.58799743652344,-9.9399995803833,0.1180000007152557,-9.439000129699709,-0.2300000041723251
1621597365042,0.2800000011920929,94.59400177001952,-9.194000244140623,0.0390000008046627,-9.522999763488768,-0.2049999982118606
1621597365052,-2.0999999046325684,95.48999786376952,-10.244000434875488,-0.0780000016093254,-9.45300006866455,-0.152999997138977
1621597365062,-3.990000009536743,96.64900207519533,-11.177000045776367,-0.0390000008046627,-9.37600040435791,-0.1400000005960464
1621597365072,-5.179999828338623,98.02799987792967,-10.934000015258787,-0.0780000016093254,-9.28499984741211,-0.2029999941587448
1621597365082,-5.670000076293945,98.69099426269533,-10.46150016784668,-0.1570000052452087,-9.175999641418455,-0.1439999938011169
1621597365092,-6.159999847412109,99.35399627685548,-9.98900032043457,-0.2349999994039535,-9.06700038909912,-0.0850000008940696
1621597365102,-6.71999979019165,99.7310028076172,-9.708999633789062,-0.3140000104904174,-8.866999626159668,-0.0900000035762786
1621597365112,-6.019999980926514,100.78500366210936,-10.447999954223633,-0.3529999852180481,-8.835000038146973,-0.0439999997615814
1621597365122,-4.96999979019165,102.2490005493164,-10.687000274658203,-0.4709999859333038,-8.918999671936035,-0.0189999993890523
1621597365132,-3.5,104.03299713134766,-10.727999687194824,-0.5490000247955322,-9.12600040435791,0.0240000002086162
1621597365142,-1.5399999618530271,105.87000274658205,-11.470000267028809,-0.5879999995231628,-9.395999908447264,-0.0240000002086162
1621597365152,0.1400000005960464,108.44499969482422,-11.157999992370604,-0.5879999995231628,-9.704999923706056,-0.0780000016093254
1621597365162,1.190000057220459,110.86599731445312,-10.37600040435791,-0.6280000209808348,-9.968999862670898,-0.164000004529953
1621597365172,2.0999999046325684,113.0189971923828,-9.28499984741211,-0.5879999995231628,-10.161999702453612,-0.1990000009536743
1621597365182,2.7300000190734863,115.36699676513672,-9.29800033569336,-0.5490000247955322,-10.23900032043457,-0.2119999974966049
1621597365192,3.430000066757202,117.61799621582033,-8.758999824523926,-0.4309999942779541,-10.168999671936035,-0.1599999964237213
1621597365202,3.5,119.49600219726562,-6.508999824523926,-0.3140000104904174,-10.175999641418455,-0.1209999993443489
1621597365212,3.5,121.0780029296875,-3.38700008392334,-0.2349999994039535,-10.175999641418455,-0.1209999993443489
1621597365222,3.7100000381469727,121.63300323486328,-0.0900000035762786,-0.1570000052452087,-10.253000259399414,-0.135000005364418
1621597365232,3.7100000381469727,121.65399932861328,2.615000009536743,-0.0390000008046627,-10.322999954223633,-0.1870000064373016
1621597365242,3.7100000381469727,121.35399627685548,3.911999940872192,0.0780000016093254,-10.362000465393066,-0.1940000057220459
1621597365252,2.1700000762939453,121.46399688720705,4.5,0.1570000052452087,-10.38700008392334,-0.277999997138977
1621597365262,-0.3499999940395355,121.18800354003906,4.452000141143799,0.2349999994039535,-10.335000038146973,-0.3490000069141387
1621597365272,-3.2899999618530273,120.22299957275392,4.2820000648498535,0.3919999897480011,-10.256999969482422,-0.3350000083446502
1621597365282,-5.880000114440918,118.697998046875,3.6570000648498535,0.5490000247955322,-10.17300033569336,-0.3600000143051147
1621597365292,-7.349999904632568,117.46949768066406,3.369500160217285,0.7059999704360961,-10.187000274658203,-0.2829999923706054
1621597365302,-8.819999694824219,116.24099731445312,3.0820000171661377,0.9020000100135804,-10.18000030517578,-0.3210000097751617
1621597365312,-11.479999542236328,113.34100341796876,2.996999979019165,0.9020000100135804,-10.095999717712402,-0.3459999859333038
1621597365322,-13.510000228881836,109.31099700927734,4.489999771118164,0.9409999847412108,-9.772999763488768,-0.3689999878406524
1621597365332,-14.630000114440918,105.29299926757812,4.704999923706055,0.981000006198883,-9.503000259399414,-0.3210000097751617
1621597365342,-14.5600004196167,101.375,3.9440000057220455,1.0199999809265137,-9.342000007629396,-0.3330000042915344
1621597365352,-14.210000038146973,97.68499755859376,3.50600004196167,1.0199999809265137,-9.303000450134276,-0.3260000050067901
1621597365362,-12.880000114440918,94.49400329589844,3.8670001029968266,1.0980000495910645,-9.335000038146973,-0.3709999918937683
1621597365372,-11.340000152587892,90.84500122070312,4.00600004196167,1.0980000495910645,-9.366999626159668,-0.4169999957084655
1621597365382,-10.43000030517578,86.95600128173828,5.0970001220703125,1.1380000114440918,-9.359999656677246,-0.4550000131130218
1621597365392,-9.170000076293944,82.49600219726562,5.802999973297119,1.1380000114440918,-9.397999763488768,-0.4620000123977661
1621597365402,-7.489999771118165,77.94999694824219,6.992000102996826,1.1380000114440918,-9.397999763488768,-0.4620000123977661
1621597365412,-5.110000133514404,74.20700073242188,7.256000041961671,1.0590000152587893,-9.437000274658203,-0.4690000116825103
1621597365422,-3.009999990463257,69.84400177001953,7.41099977493286,1.0199999809265137,-9.572999954223633,-0.3740000128746032
1621597365432,-0.6299999952316284,66.1259994506836,7.5370001792907715,0.9409999847412108,-9.675999641418455,-0.4709999859333038
1621597365442,1.399999976158142,62.72800064086914,7.861999988555909,0.9020000100135804,-9.753000259399414,-0.4850000143051147
1621597365452,3.6400001049041744,59.22800064086914,9.163999557495115,0.8240000009536743,-9.81700038909912,-0.5759999752044677
1621597365462,4.829999923706055,55.08000183105469,10.92099952697754,0.7450000047683715,-9.862000465393066,-0.5440000295639038
1621597365472,5.179999828338623,51.082000732421875,12.631999969482422,0.5879999995231628,-9.939000129699709,-0.5580000281333923
1621597365482,5.039999961853027,48.082000732421875,13.524999618530272,0.5099999904632568,-9.970999717712402,-0.6029999852180481
1621597365492,4.199999809265137,44.86199951171875,13.241000175476074,0.3919999897480011,-10.05500030517578,-0.578000009059906
1621597365502,3.9200000762939458,42.07600021362305,12.109999656677246,0.2750000059604644,-10.138999938964844,-0.5529999732971191
1621597365512,3.6050000190734863,40.82099914550781,11.569000244140623,0.1959999948740005,-10.210000038146973,-0.6050000190734863
1621597365522,3.2899999618530273,39.56600189208984,11.027999877929688,0.0780000016093254,-10.248000144958496,-0.6119999885559082
1621597365532,2.5899999141693115,37.42900085449219,9.442999839782717,-0.0390000008046627,-10.293999671936035,-0.5799999833106994
1621597365542,2.450000047683716,35.57099914550781,7.480999946594238,-0.1570000052452087,-10.36400032043457,-0.6330000162124633
1621597365552,2.380000114440918,34.07099914550781,5.510000228881836,-0.3140000104904174,-10.33199977874756,-0.5870000123977661
1621597365562,3.009999990463257,32.94300079345703,4.244999885559082,-0.3919999897480011,-10.276000022888184,-0.4580000042915344
1621597365572,3.1500000953674316,33.05699920654297,3.1989998817443848,-0.5099999904632568,-10.288999557495115,-0.3799999952316284
1621597365582,3.5,33.8390007019043,1.9859999418258667,-0.5879999995231628,-10.244000434875488,-0.4120000004768371
1621597365592,3.2899999618530273,35.2869987487793,1.0329999923706057,-0.6280000209808348,-10.269000053405762,-0.4959999918937683
1621597365602,2.5199999809265137,36.3129997253418,0.859000027179718,-0.6669999957084655,-10.222999572753906,-0.527999997138977
1621597365612,1.8899999856948853,37.387001037597656,0.4079999923706054,-0.6669999957084655,-10.26200008392334,-0.5350000262260437
1621597365622,1.399999976158142,38.56700134277344,-0.2370000034570694,-0.6280000209808348,-10.217000007629396,-0.5669999718666076
1621597365632,0.3499999940395355,39.70600128173828,-0.248999997973442,-0.5879999995231628,-9.984999656677246,-0.5260000228881835
1621597365642,0.1400000005960464,40.83399963378906,-0.19200000166893,-0.5879999995231628,-9.689000129699709,-0.3939999938011169
1621597365652,0.7699999809265136,42.2239990234375,-1.22599995136261,-0.5099999904632568,-9.46399974822998,-0.3149999976158142
1621597365662,1.9600000381469729,43.31100082397461,-2.9539999961853027,-0.3919999897480011,-9.347999572753906,-0.2939999997615814
1621597365672,2.869999885559082,44.709999084472656,-4.840000152587891,-0.3140000104904174,-9.380000114440918,-0.3400000035762786
1621597365682,3.6400001049041744,46.071998596191406,-6.519000053405762,-0.2349999994039535,-9.48900032043457,-0.3989999890327453
1621597365692,3.7799999713897705,46.01499938964844,-6.599999904632568,-0.1180000007152557,-9.70699977874756,-0.5170000195503234
1621597365702,2.5199999809265137,45.62200164794922,-6.385000228881836,-0.1180000007152557,-9.803000450134276,-0.652999997138977
1621597365712,1.4700000286102295,44.0,-5.249000072479248,0.0390000008046627,-9.687000274658203,-0.6330000162124633
1621597365722,1.2599999904632568,41.71699905395508,-3.5899999141693115,0.1180000007152557,-9.642000198364256,-0.6639999747276306
1621597365732,1.399999976158142,39.34099960327149,-1.805999994277954,0.1570000052452087,-9.461999893188477,-0.5529999732971191
1621597365742,1.399999976158142,36.24800109863281,0.4210000038146972,0.2349999994039535,-9.26900005340576,-0.5189999938011169
1621597365752,1.3650000095367432,34.69300079345703,1.1775000095367432,0.2349999994039535,-9.229999542236328,-0.512000024318695
1621597365762,1.3300000429153442,33.13800048828125,1.9340000152587893,0.2750000059604644,-9.385000228881836,-0.5400000214576721
1621597365772,1.2599999904632568,30.400999069213867,4.1519999504089355,0.2750000059604644,-9.79599952697754,-0.6919999718666076
1621597365782,0.1400000005960464,27.413000106811523,7.392000198364258,0.1959999948740005,-10.097999572753906,-0.7850000262260437
1621597365792,-1.2599999904632568,24.197999954223633,10.30799961090088,0.1180000007152557,-10.175999641418455,-0.7979999780654907
1621597365802,-2.0999999046325684,21.68400001525879,10.859999656677246,0.0780000016093254,-9.982000350952148,-0.7639999985694885
1621597365812,-2.5899999141693115,19.46500015258789,10.539999961853027,0.0390000008046627,-9.873000144958496,-0.7049999833106994
1621597365822,-3.6400001049041744,18.114999771118164,9.734000205993652,0.0390000008046627,-9.687000274658203,-0.6330000162124633
1621597365832,-3.990000009536743,17.37700080871582,8.678999900817871,0.0,-9.508000373840332,-0.5210000276565551
1621597365842,-3.5,16.326000213623047,6.574999809265137,0.0390000008046627,-9.314000129699709,-0.4869999885559082
1621597365852,-2.450000047683716,15.267999649047852,5.322000026702881,0.0390000008046627,-9.22599983215332,-0.3120000064373016
1621597365862,-1.4700000286102295,14.116000175476074,5.4029998779296875,0.1180000007152557,-9.204999923706056,-0.4280000030994415
1621597365872,-0.6299999952316284,12.911999702453612,6.185999870300293,0.0780000016093254,-9.204999923706056,-0.4280000030994415
1621597365882,-0.4199999868869781,11.784999847412108,6.130000114440918,0.0390000008046627,-9.282999992370604,-0.44200000166893
1621597365892,0.0,10.840000152587892,6.247000217437744,0.0780000016093254,-9.392000198364256,-0.5009999871253967
1621597365902,-0.209999993443489,10.10200023651123,6.401000022888184,0.0390000008046627,-9.54599952697754,-0.527999997138977
1621597365912,-0.3499999940395355,9.671999931335447,6.822999954223633,-0.0390000008046627,-9.887000083923342,-0.6280000209808348
1621597365922,-0.3499999940395355,9.210000038146973,7.026000022888184,-0.0780000016093254,-9.996000289916992,-0.6869999766349792
1621597365932,-0.5600000023841857,8.52400016784668,6.479000091552734,-0.1180000007152557,-10.0600004196167,-0.777999997138977
1621597365942,-1.6799999475479126,8.065999984741211,6.25600004196167,-0.1570000052452087,-10.092000007629396,-0.8230000138282775
1621597365952,-2.5899999141693115,8.142999649047852,5.415999889373779,-0.1570000052452087,-10.116999626159668,-0.9079999923706054
1621597365962,-3.849999904632568,7.83900022506714,4.7230000495910645,-0.2750000059604644,-10.142000198364258,-0.9919999837875366
1621597365972,-5.179999828338623,7.762000083923339,4.354000091552734,-0.3140000104904174,-10.031999588012695,-0.9330000281333924
1621597365982,-6.300000190734863,8.126999855041504,3.49399995803833,-0.2750000059604644,-9.916999816894531,-0.9120000004768372
1621597365992,-6.440000057220459,8.07800006866455,2.562000036239624,-0.1959999948740005,-9.722999572753906,-0.8780000209808348
1621597366002,-5.739999771118164,8.020999908447266,1.2719999551773071,-0.2349999994039535,-9.645999908447264,-0.8640000224113464
1621597366012,-5.809999942779541,7.864999771118165,0.746999979019165,-0.1959999948740005,-9.543999671936035,-0.7670000195503234
1621597366022,-5.880000114440918,7.709000110626221,0.2220000028610229,-0.1959999948740005,-9.460000038146973,-0.7919999957084655
1621597366032,-5.320000171661377,7.420000076293945,-0.9660000205039978,-0.1570000052452087,-9.388999938964846,-0.7390000224113464
1621597366042,-5.039999961853027,7.488999843597413,-2.1619999408721924,-0.1570000052452087,-9.241999626159668,-0.6740000247955322
1621597366052,-4.550000190734863,7.209000110626221,-2.99399995803833,-0.1570000052452087,-9.163999557495115,-0.6600000262260437
1621597366062,-3.9200000762939458,7.204999923706055,-3.776000022888184,-0.1180000007152557,-9.133000373840332,-0.615000009536743
1621597366072,-3.2899999618530273,7.28599977493286,-3.8329999446868896,-0.1180000007152557,-9.133000373840332,-0.615000009536743
1621597366082,-2.5199999809265137,7.172999858856201,-3.994999885559082,-0.1180000007152557,-9.138999938964846,-0.5759999752044677
1621597366092,-1.75,7.631000041961671,-3.7720000743865967,-0.0780000016093254,-9.1850004196167,-0.5440000295639038
1621597366102,-0.7699999809265136,7.25,-3.625999927520752,-0.1959999948740005,-9.282999992370604,-0.44200000166893
1621597366112,0.2800000011920929,7.127999782562256,-4.144999980926514,-0.1959999948740005,-9.314000129699709,-0.4869999885559082
1621597366122,1.6100000143051147,7.189000129699707,-3.2809998989105225,-0.2349999994039535,-9.444000244140623,-0.4300000071525573
1621597366132,2.1700000762939453,7.646999835968018,-3.059000015258789,-0.1959999948740005,-9.513999938964846,-0.4830000102519989
1621597366142,2.0999999046325684,7.877999782562256,-3.1600000858306885,-0.1959999948740005,-9.630000114440918,-0.5030000209808348
1621597366152,1.8899999856948853,7.89900016784668,-2.871999979019165,-0.1959999948740005,-9.668999671936035,-0.5099999904632568
1621597366162,1.2599999904632568,8.230999946594238,-2.7420001029968266,-0.1570000052452087,-9.701000213623049,-0.5550000071525573
1621597366171,0.2800000011920929,8.402000427246094,-2.499000072479248,-0.1959999948740005,-9.623000144958496,-0.5419999957084655
1621597366181,-0.4199999868869781,8.920999526977539,-2.621000051498413,-0.1180000007152557,-9.701000213623049,-0.5550000071525573
1621597366191,-0.9100000262260436,9.857000350952148,-3.0950000286102295,-0.1570000052452087,-9.553000450134276,-0.488999992609024
1621597366201,-0.8399999737739563,10.109000205993652,-4.117000102996826,-0.1570000052452087,-9.42300033569336,-0.5460000038146972
1621597366211,-0.3499999940395355,10.918999671936035,-4.684999942779541,-0.1180000007152557,-9.508000373840332,-0.5210000276565551
1621597366221,-0.2800000011920929,11.491000175476074,-4.300000190734863,-0.0780000016093254,-9.553000450134276,-0.488999992609024
1621597366231,-0.4199999868869781,11.232000350952148,-3.634999990463257,-0.0390000008046627,-9.592000007629396,-0.4959999918937683
1621597366241,-0.4199999868869781,10.729000091552734,-4.007999897003174,0.0390000008046627,-9.70699977874756,-0.5170000195503234
1621597366251,-0.4900000095367431,9.71500015258789,-3.901999950408935,0.0390000008046627,-9.661999702453612,-0.5490000247955322
1621597366261,-0.6299999952316284,8.75,-4.072000026702881,0.0390000008046627,-9.661999702453612,-0.5490000247955322
1621597366271,-0.5600000023841857,8.519000053405762,-3.9709999561309814,0.0390000008046627,-9.592000007629396,-0.4959999918937683
1621597366281,-0.4900000095367431,8.288000106811523,-3.869999885559082,0.0390000008046627,-9.637000083923342,-0.4639999866485595
1621597366291,-0.209999993443489,7.561999797821045,-3.7839999198913574,0.0390000008046627,-9.675999641418455,-0.4709999859333038
1621597366301,0.209999993443489,6.896999835968018,-2.8350000381469727,0.0,-9.71399974822998,-0.4779999852180481
1621597366311,0.5600000023841857,6.369999885559082,-1.861999988555908,0.0,-9.746000289916992,-0.5239999890327453
1621597366321,0.6299999952316284,6.366000175476074,-1.4359999895095823,-0.0390000008046627,-9.829999923706056,-0.4990000128746032
1621597366331,0.3499999940395355,6.061999797821045,-0.9210000038146972,-0.0780000016093254,-9.862000465393066,-0.5440000295639038
1621597366341,0.0700000002980232,5.956999778747559,-0.7269999980926513,-0.0780000016093254,-9.939000129699709,-0.5580000281333923
1621597366351,-0.1400000005960464,5.604000091552734,-1.1440000534057615,-0.1180000007152557,-10.041999816894531,-0.6549999713897705
1621597366361,-0.8399999737739563,5.72599983215332,-0.625,-0.1570000052452087,-10.119000434875488,-0.6690000295639038
1621597366371,-0.7699999809265136,5.335999965667725,-0.8360000252723693,-0.2349999994039535,-10.12600040435791,-0.6299999952316284
1621597366381,-1.2599999904632568,5.559000015258789,-1.2940000295639038,-0.2349999994039535,-10.041999816894531,-0.6549999713897705
1621597366391,-1.6100000143051147,5.875,-1.878000020980835,-0.3140000104904174,-10.151000022888184,-0.7139999866485595
1621597366401,-1.6100000143051147,6.706999778747559,-2.1579999923706055,-0.3919999897480011,-10.220999717712402,-0.7670000195503234
1621597366411,-1.1200000047683716,7.914999961853027,-2.1579999923706055,-0.5099999904632568,-10.253000259399414,-0.8119999766349792
1621597366421,-0.4199999868869781,9.321999549865724,-2.4790000915527344,-0.5490000247955322,-10.329999923706056,-0.8259999752044677
1621597366431,0.6299999952316284,10.56700038909912,-2.686000108718872,-0.5879999995231628,-10.284999847412108,-0.8579999804496765
1621597366441,0.7699999809265136,11.57699966430664,-3.5739998817443848,-0.6280000209808348,-10.284999847412108,-0.8579999804496765
1621597366451,0.209999993443489,13.531000137329102,-4.579999923706055,-0.7059999704360961,-10.175999641418455,-0.7979999780654907
1621597366461,0.0,15.112000465393066,-5.083000183105469,-0.7059999704360961,-10.097999572753906,-0.7850000262260437
1621597366471,0.6299999952316284,16.80299949645996,-4.998000144958496,-0.6669999957084655,-9.918999671936035,-0.6740000247955322
1621597366481,2.940000057220459,17.715999603271484,-5.335000038146973,-0.7059999704360961,-9.654999732971191,-0.5870000123977661
1621597366491,5.53000020980835,19.131000518798828,-5.297999858856201,-0.7450000047683715,-9.54599952697754,-0.527999997138977
1621597366501,7.210000038146973,20.92300033569336,-4.98199987411499,-0.6280000209808348,-9.579999923706056,-0.3350000083446502
1621597366511,8.609999656677246,22.357999801635746,-5.867000102996826,-0.6669999957084655,-9.579999923706056,-0.3350000083446502
1621597366521,8.819999694824219,23.097999572753903,-6.234000205993652,-0.7059999704360961,-9.63199996948242,-0.2649999856948852
1621597366531,9.029999732971191,23.83799934387207,-6.60099983215332,-0.6280000209808348,-9.62600040435791,-0.3030000030994415
1621597366541,9.239999771118164,25.042999267578125,-6.175000190734863,-0.4309999942779541,-9.717000007629396,-0.2399999946355819
1621597366551,8.960000038146973,25.73200035095215,-4.84499979019165,-0.3529999852180481,-9.83899974822998,-0.221000000834465
1621597366561,7.8400001525878915,25.906999588012695,-3.8190000057220455,-0.3919999897480011,-9.83899974822998,-0.221000000834465
1621597366571,6.510000228881836,25.902999877929688,-3.3940000534057617,-0.3919999897480011,-9.793999671936035,-0.2529999911785125
1621597366581,5.809999942779541,26.007999420166016,-3.5880000591278076,-0.3919999897480011,-9.800999641418455,-0.2150000035762786
1621597366591,5.739999771118164,27.00200080871582,-3.98200011253357,-0.4709999859333038,-9.737000465393066,-0.123999997973442
1621597366601,6.019999980926514,27.545000076293945,-3.0329999923706055,-0.5490000247955322,-9.666999816894531,-0.0710000023245811
1621597366611,6.71999979019165,28.81399917602539,-3.378000020980835,-0.5490000247955322,-9.635000228881836,-0.0260000005364418
1621597366621,7.139999866485596,30.143999099731445,-4.066999912261963,-0.5490000247955322,-9.68000030517578,0.006000000052154
1621597366631,6.789999961853027,32.0099983215332,-4.164999961853027,-0.5490000247955322,-9.75699996948242,-0.0080000003799796
1621597366641,6.510000228881836,33.672000885009766,-3.5160000324249268,-0.5099999904632568,-9.79599952697754,-0.0149999996647238
1621597366651,6.369999885559082,35.49700164794922,-2.9809999465942383,-0.5490000247955322,-9.982000350952148,-0.0869999974966049
1621597366661,5.320000171661377,37.172000885009766,-2.4019999504089355,-0.5879999995231628,-10.130000114440918,-0.152999997138977
1621597366671,4.269999980926514,39.369998931884766,-2.369999885559082,-0.6669999957084655,-9.866000175476074,-0.06700000166893
1621597366681,5.320000171661377,42.16699981689453,-3.723999977111816,-0.7450000047683715,-9.803000450134276,0.0240000002086162
1621597366691,6.369999885559082,45.56100082397461,-4.831999778747559,-0.8240000009536743,-9.977999687194824,0.1129999980330467
1621597366701,6.230000019073486,49.957000732421875,-5.97599983215332,-0.9020000100135804,-10.131999969482422,0.0850000008940696
1621597366711,5.389999866485596,54.84299850463867,-7.886000156402587,-0.9409999847412108,-10.319000244140623,0.0130000002682209
1621597366721,4.199999809265137,58.994998931884766,-8.859999656677246,-0.9020000100135804,-10.479999542236328,0.0240000002086162
1621597366731,2.309999942779541,62.972999572753906,-7.235000133514405,-0.8629999756813049,-10.640999794006348,0.0359999984502792
1621597366741,0.2800000011920929,66.74400329589844,-5.645999908447266,-0.981000006198883,-10.635000228881836,-0.003000000026077
1621597366751,-0.1400000005960464,69.04750061035156,-5.808500289916992,-0.9409999847412108,-10.487000465393066,0.0630000010132789
1621597366761,-0.5600000023841857,71.35099792480469,-5.9710001945495605,-0.9020000100135804,-10.409999847412108,0.0759999975562095
1621597366771,-0.6299999952316284,76.302001953125,-6.235000133514404,-0.8240000009536743,-10.621000289916992,-0.0799999982118606
1621597366781,-0.9100000262260436,81.11900329589844,-5.741000175476074,-0.7850000262260437,-10.937000274658203,-0.096000000834465
1621597366791,-2.1700000762939453,84.16899871826172,-3.2839999198913574,-0.7450000047683715,-11.027999877929688,-0.032999999821186
1621597366801,-3.430000066757202,86.49299621582033,-0.7419999837875366,-0.7059999704360961,-10.814000129699709,-0.1140000000596046
1621597366811,-5.460000038146973,88.12699890136719,1.6790000200271606,-0.6669999957084655,-10.58199977874756,-0.0740000009536743
1621597366821,-7.210000038146973,90.11900329589844,4.091000080108643,-0.7059999704360961,-10.234999656677246,-0.0120000001043081
1621597366831,-8.119999885559082,92.62899780273438,6.381999969482422,-0.8240000009536743,-9.840999603271484,0.0170000009238719
1621597366841,-8.050000190734863,95.10700225830078,7.244999885559082,-0.9409999847412108,-9.557000160217283,-0.0120000001043081
1621597366851,-6.929999828338623,98.15599822998048,8.494000434875488,-1.0590000152587893,-9.4350004196167,-0.0299999993294477
1621597366861,-5.880000114440918,101.5989990234375,9.527000427246092,-1.1770000457763672,-9.312000274658203,-0.0489999987185001
1621597366871,-4.96999979019165,105.39099884033205,10.196000099182127,-1.3339999914169312,-9.189000129699709,-0.06700000166893
1621597366881,-4.269999980926514,109.85900115966795,9.845999717712402,-1.5299999713897705,-9.104999542236328,-0.0920000001788139
1621597366891,-3.6400001049041744,115.28099822998048,9.736000061035156,-1.6480000019073486,-9.0600004196167,-0.123999997973442
1621597366901,-3.2200000286102295,120.83999633789062,9.649999618530272,-1.8040000200271609,-9.137000083923342,-0.1369999945163726
1621597366911,-3.9200000762939458,128.14700317382812,9.729999542236328,-2.1570000648498535,-9.21399974822998,-0.1509999930858612
1621597366921,-4.690000057220459,137.04400634765625,9.663999557495115,-2.3929998874664307,-9.260000228881836,-0.1190000027418136
1621597366931,-5.389999866485596,147.20199584960935,10.104999542236328,-2.5889999866485596,-9.30500030517578,-0.0869999974966049
1621597366941,-5.949999809265137,158.16200256347656,10.82900047302246,-2.746000051498413,-9.279999732971191,-0.003000000026077
1621597366951,-7.070000171661377,169.21200561523435,11.854000091552734,-2.864000082015991,-9.51900005340576,-0.0049999998882412
1621597366961,-6.824999809265137,174.822509765625,11.883500099182127,-2.9030001163482666,-9.33899974822998,0.1059999987483024
1621597366971,-6.579999923706055,180.43299865722656,11.913000106811523,-2.864000082015991,-9.197999954223633,0.209999993443489
1621597366981,-5.739999771118164,190.86599731445312,11.194000244140623,-2.7070000171661377,-9.18000030517578,0.3330000042915344
1621597366991,-5.110000133514404,200.8979949951172,11.541000366210936,-2.628000020980835,-9.218999862670898,0.3260000050067901
1621597367001,-4.619999885559082,209.73800659179688,11.394000053405762,-2.510999917984009,-9.270999908447264,0.3970000147819519
1621597367011,-3.990000009536743,217.81900024414065,9.904000282287598,-2.3929998874664307,-9.3100004196167,0.3899999856948852
1621597367021,-3.2899999618530273,225.27999877929688,8.305999755859375,-2.2750000953674316,-9.387000083923342,0.3759999871253967
1621597367031,-2.5199999809265137,232.3560028076172,7.27899980545044,-2.0789999961853027,-9.425999641418455,0.3689999878406524
1621597367041,-1.9600000381469729,238.3249969482422,6.482999801635742,-1.8830000162124632,-9.541000366210936,0.3490000069141387
1621597367051,-1.75,243.86000061035156,4.118000030517578,-1.6080000400543213,-9.527999877929688,0.2720000147819519
1621597367061,-2.309999942779541,248.0070037841797,1.1540000438690186,-1.4119999408721924,-9.572999954223633,0.3039999902248382
1621597367071,-3.2899999618530273,251.3040008544922,-1.819000005722046,-1.1380000114440918,-9.553000450134276,0.1879999935626983
1621597367081,-4.269999980926514,252.83999633789065,-3.6809999942779545,-0.9020000100135804,-9.592000007629396,0.1809999942779541
1621597367091,-5.389999866485596,253.5540008544922,-4.90500020980835,-0.6669999957084655,-9.553000450134276,0.1879999935626983
1621597367101,-5.809999942779541,253.65499877929688,-5.882999897003174,-0.5099999904632568,-9.392000198364256,0.1759999990463256
1621597367111,-6.159999847412109,253.52099609375,-7.540999889373779,-0.3919999897480011,-9.19200038909912,0.1720000058412551
1621597367121,-6.579999923706055,253.29400634765625,-9.074000358581545,-0.2349999994039535,-9.036999702453612,0.1990000009536743
1621597367131,-7.139999866485596,253.35400390625,-10.626999855041504,0.0,-9.05500030517578,0.0759999975562095
1621597367141,-8.050000190734863,252.08099365234375,-12.27299976348877,0.2349999994039535,-9.10099983215332,0.1080000028014183
1621597367151,-8.539999961853027,251.1179962158203,-12.656000137329102,0.5099999904632568,-9.093999862670898,0.0689999982714653
1621597367161,-9.029999732971191,250.15499877929688,-13.038999557495115,0.8629999756813049,-9.157999992370604,-0.0209999997168779
1621597367171,-10.220000267028809,247.0570068359375,-12.803999900817873,1.2940000295639038,-9.220999717712402,-0.1120000034570694
1621597367181,-12.18000030517578,242.1300048828125,-10.260000228881836,1.687000036239624,-9.218999862670898,-0.3510000109672546
1621597367191,-14.630000114440918,235.0749969482422,-6.5289998054504395,2.000999927520752,-9.314000129699709,-0.4869999885559082
1621597367201,-17.010000228881836,227.21299743652344,-2.6549999713897705,2.236000061035156,-9.44200038909912,-0.6690000295639038
1621597367211,-19.11000061035156,217.9600067138672,1.0440000295639038,2.3929998874664307,-9.569000244140623,-0.8510000109672546
1621597367221,-20.510000228881836,207.7220001220703,5.49399995803833,2.549999952316284,-9.70300006866455,-0.9940000176429749
1621597367231,-22.049999237060547,197.718994140625,10.625,2.7070000171661377,-10.06700038909912,-1.4170000553131104
1621597367241,-24.010000228881836,186.71400451660156,15.79300022125244,2.7850000858306885,-10.142000198364258,-1.6690000295639038
1621597367251,-25.270000457763672,175.6929931640625,20.246000289916992,2.7850000858306885,-10.178000450134276,-1.9140000343322752
1621597367261,-25.829999923706055,164.88699340820312,23.885000228881836,2.7850000858306885,-10.18299961090088,-2.114000082015991
1621597367271,-26.18000030517578,154.25999450683594,28.124000549316406,2.6670000553131104,-10.14900016784668,-2.306999921798706
1621597367281,-25.969999313354492,143.36500549316406,31.46299934387207,2.6670000553131104,-10.159999847412108,-2.4690001010894775
1621597367291,-25.1299991607666,132.67999267578125,34.4119987487793,2.4709999561309814,-10.010000228881836,-2.6410000324249268
1621597367301,-23.450000762939453,122.13300323486328,36.178001403808594,2.313999891281128,-9.835000038146973,-2.7300000190734863
1621597367311,-20.299999237060547,111.40799713134766,37.34299850463867,2.197000026702881,-9.673999786376951,-2.740999937057495
1621597367321,-16.65999984741211,100.68699645996094,38.08300018310547,2.0399999618530273,-9.60099983215332,-2.927999973297119
1621597367331,-15.085000038146973,95.62449645996092,38.57600021362305,1.9220000505447388,-9.503000259399414,-3.0299999713897705
1621597367341,-13.510000228881836,90.56199645996092,39.069000244140625,1.72599995136261,-9.199000358581545,-3.174999952316284
1621597367351,-10.220000267028809,81.36499786376953,38.01599884033203,1.491000056266785,-8.946999549865723,-3.25
1621597367361,-5.599999904632568,72.88500213623047,34.104000091552734,1.2940000295639038,-8.777999877929688,-3.299999952316284
1621597367371,-0.0700000002980232,65.31800079345703,29.856000900268555,1.0199999809265137,-8.668999671936035,-3.240999937057495
1621597367381,4.96999979019165,57.95000076293945,26.4950008392334,0.7450000047683715,-8.515000343322754,-3.2139999866485596
1621597367391,10.289999961853027,52.84000015258789,21.61400032043457,0.5490000247955322,-8.366999626159668,-3.1480000019073486
1621597367401,15.539999961853027,48.94599914550781,15.880999565124512,0.4309999942779541,-8.413000106811523,-3.115999937057495
1621597367411,19.950000762939453,45.79800033569336,9.142000198364256,0.2750000059604644,-8.548999786376953,-3.0209999084472656
1621597367421,24.079999923706055,43.92399978637695,2.8399999141693115,0.2349999994039535,-8.517000198364258,-2.9760000705718994
1621597367431,27.15999984741211,42.34600067138672,-3.124000072479248,0.2750000059604644,-8.512999534606934,-2.7760000228881836
1621597367441,29.81999969482422,41.49300003051758,-9.173999786376951,0.2750000059604644,-8.42199993133545,-2.8389999866485596
1621597367451,32.7599983215332,40.4630012512207,-14.616000175476074,0.3919999897480011,-8.64900016784668,-2.680000066757202
1621597367461,34.15999984741211,39.858001708984375,-18.844999313354492,0.4709999859333038,-8.831000328063965,-2.552999973297119
1621597367471,35.279998779296875,39.31399917602539,-23.41900062561035,0.5490000247955322,-8.902999877929688,-2.3670001029968266
1621597367481,36.04999923706055,38.10100173950195,-27.82699966430664,0.7059999704360961,-9.092000007629396,-2.200999975204468
1621597367491,36.540000915527344,36.665000915527344,-31.775999069213867,0.9020000100135804,-9.105999946594238,-2.122999906539917
1621597367501,36.189998626708984,34.632999420166016,-34.763999938964844,1.0590000152587893,-9.157999992370604,-2.052999973297119
1621597367511,35.62999725341797,33.44049835205078,-35.862998962402344,1.2549999952316284,-9.357999801635742,-2.0480000972747803
1621597367521,35.06999969482422,32.24800109863281,-36.96200180053711,1.4119999408721924,-9.461999893188477,-1.906999945640564
1621597367531,32.83000183105469,29.733999252319336,-37.61800003051758,1.5299999713897705,-9.47599983215332,-1.830000042915344
1621597367541,30.729999542236328,27.12299919128418,-37.722999572753906,1.72599995136261,-9.612000465393066,-1.7350000143051147
1621597367551,28.84000015258789,23.594999313354492,-37.06600189208984,1.9220000505447388,-9.812000274658203,-1.7300000190734863
1621597367561,26.11000061035156,19.20400047302246,-35.138999938964844,2.197000026702881,-9.967000007629396,-1.756999969482422
1621597367571,22.399999618530273,14.123000144958496,-32.125999450683594,2.2750000953674316,-10.076000213623049,-1.8159999847412107
1621597367581,18.479999542236328,8.329000473022461,-29.09600067138672,2.3929998874664307,-10.043999671936035,-1.7710000276565552
1621597367591,14.279999732971191,2.072999954223633,-25.863000869750977,2.3929998874664307,-10.050999641418455,-1.7319999933242798
1621597367601,10.710000038146973,-4.451000213623047,-22.32200050354004,2.3540000915527344,-9.95300006866455,-1.8350000381469729
1621597367611,7.420000076293945,-11.166000366210938,-19.312000274658203,2.2750000953674316,-9.901000022888184,-1.9049999713897705
1621597367621,4.480000019073486,-17.99799919128418,-17.246999740600586,2.236000061035156,-10.041999816894531,-2.009999990463257
1621597367631,2.0999999046325684,-24.57900047302246,-14.996000289916992,2.0789999961853027,-10.104999542236328,-2.1010000705718994
1621597367641,0.4900000095367431,-30.645000457763672,-13.64900016784668,1.843999981880188,-10.020999908447266,-2.125999927520752
1621597367651,-1.0499999523162842,-36.05500030517578,-13.607999801635742,1.72599995136261,-9.82800006866455,-2.0910000801086426
1621597367661,-1.3300000429153442,-40.85599899291992,-13.387999534606934,1.6080000400543213,-9.59000015258789,-2.0889999866485596
1621597367671,-2.0299999713897705,-45.064998626708984,-12.494999885559082,1.4119999408721924,-9.395999908447264,-2.055000066757202
1621597367681,-2.0299999713897705,-48.07400131225586,-13.16800022125244,1.2940000295639038,-9.395999908447264,-2.055000066757202
1621597367691,-2.065000057220459,-49.125999450683594,-13.85099983215332,1.1380000114440918,-9.357999801635742,-2.0480000972747803
1621597367701,-2.0999999046325684,-50.178001403808594,-14.534000396728516,1.0590000152587893,-9.395999908447264,-2.055000066757202
1621597367711,-2.450000047683716,-51.69100189208984,-15.22700023651123,0.9409999847412108,-9.512000083923342,-2.075999975204468
1621597367721,-2.869999885559082,-52.680999755859375,-15.260000228881836,0.9020000100135804,-9.6850004196167,-2.2260000705718994
1621597367731,-3.0799999237060547,-53.74700164794922,-14.453000068664553,0.8240000009536743,-9.852999687194824,-2.1760001182556152
1621597367741,-2.450000047683716,-53.755001068115234,-13.60099983215332,0.7450000047683715,-9.75100040435791,-2.078000068664551
1621597367751,-0.8399999737739563,-53.1870002746582,-12.789999961853027,0.7059999704360961,-9.449000358581545,-1.9850000143051147
1621597367761,1.5399999618530271,-52.22600173950195,-14.611000061035156,0.7450000047683715,-9.217000007629396,-1.944000005722046
1621597367771,3.569999933242798,-51.277000427246094,-15.154000282287598,0.7450000047683715,-8.920999526977539,-1.812000036239624
1621597367781,5.460000038146973,-50.007999420166016,-15.49899959564209,0.7450000047683715,-8.760000228881836,-1.8229999542236328
1621597367791,7.559999942779541,-48.8650016784668,-15.937000274658203,0.8240000009536743,-8.727999687194824,-1.7779999971389773
1621597367801,9.3100004196167,-47.25899887084961,-16.577999114990234,0.9409999847412108,-8.77400016784668,-1.7460000514984133
1621597367811,10.640000343322754,-45.82400131225586,-16.253999710083008,0.981000006198883,-8.727999687194824,-1.7779999971389773
1621597367821,12.31999969482422,-44.31100082397461,-15.560999870300291,1.0199999809265137,-8.786999702453613,-1.6690000295639038
1621597367831,14.140000343322754,-43.19599914550781,-15.4350004196167,1.0980000495910645,-8.980999946594238,-1.7029999494552612
1621597367840,14.770000457763672,-41.792999267578125,-14.121999740600586,1.1380000114440918,-9.3100004196167,-1.6419999599456787
1621597367850,14.979999542236328,-40.09700012207031,-12.04599952697754,1.1770000457763672,-9.548999786376951,-1.6440000534057615
1621597367860,14.909999847412108,-39.241500854492195,-11.255499839782717,1.1770000457763672,-9.70300006866455,-1.6710000038146973
1621597367870,14.840000152587892,-38.38600158691406,-10.465000152587892,1.2549999952316284,-9.86400032043457,-1.6599999666213987
1621597367880,14.140000343322754,-36.93399810791016,-9.427000045776367,1.2940000295639038,-9.94200038909912,-1.6729999780654907
1621597367890,12.31999969482422,-35.470001220703125,-7.249000072479248,1.2940000295639038,-9.9350004196167,-1.712000012397766
1621597367900,10.079999923706056,-33.474998474121094,-5.263000011444092,1.2940000295639038,-9.902999877929688,-1.6670000553131104
1621597367910,8.539999961853027,-31.823999404907227,-3.336999893188477,1.2940000295639038,-9.786999702453612,-1.6460000276565552
1621597367920,8.470000267028809,-29.788000106811523,-1.9830000400543213,1.3730000257492063,-9.793999671936035,-1.6069999933242798
1621597367930,8.260000228881836,-27.97100067138672,-0.5960000157356262,1.3730000257492063,-9.762000083923342,-1.562000036239624
1621597367940,7.980000019073486,-26.604999542236328,0.9240000247955322,1.2940000295639038,-9.678000450134276,-1.587000012397766
1621597367950,8.470000267028809,-25.371999740600582,1.9950000047683716,1.2940000295639038,-9.607999801635742,-1.5349999666213987
1621597367960,10.220000267028809,-24.65399932861328,3.9690001010894775,1.2549999952316284,-9.467000007629396,-1.4299999475479126
1621597367970,12.25,-23.802000045776367,5.185999870300293,1.215999960899353,-9.319000244140623,-1.3639999628067017
1621597367980,14.979999542236328,-23.180999755859375,6.502999782562256,1.215999960899353,-9.255000114440918,-1.2730000019073486
1621597367990,18.40999984741211,-22.902000427246097,7.335000038146973,1.0980000495910645,-9.1850004196167,-1.2209999561309814
1621597368000,22.540000915527344,-22.410999298095703,8.984999656677246,1.0590000152587893,-9.083000183105469,-1.1239999532699585
1621597368010,27.020000457763672,-22.301000595092773,10.781000137329102,0.9020000100135804,-9.01900005340576,-1.0329999923706057
1621597368020,31.5,-22.263999938964844,11.782999992370604,0.9020000100135804,-8.979999542236328,-1.0260000228881836
1621597368030,35.90999984741211,-22.593000411987305,12.435999870300291,0.8240000009536743,-8.878000259399414,-0.9279999732971193
1621597368040,38.01000213623047,-22.621000289916992,12.395500183105469,0.7850000262260437,-8.859999656677246,-0.8050000071525573
1621597368050,40.11000061035156,-22.64900016784668,12.354999542236328,0.7059999704360961,-8.842000007629395,-0.6830000281333923
1621597368060,45.0099983215332,-22.56800079345703,12.29800033569336,0.6280000209808348,-8.970999717712402,-0.6259999871253967
1621597368070,48.93000030517578,-22.36599922180176,12.760000228881836,0.5490000247955322,-9.069000244140623,-0.5239999890327453
1621597368080,52.290000915527344,-22.426000595092773,13.104999542236328,0.4309999942779541,-9.237000465393066,-0.4740000069141387
1621597368090,54.18000030517578,-23.006000518798828,13.571000099182127,0.3529999852180481,-9.48900032043457,-0.3989999890327453
1621597368100,55.369998931884766,-22.85199928283691,14.309000015258787,0.2349999994039535,-9.767000198364256,-0.4079999923706054
1621597368110,53.689998626708984,-22.621000289916992,15.416000366210938,0.1570000052452087,-10.17300033569336,-0.3600000143051147
1621597368120,50.2599983215332,-21.951000213623047,16.45800018310547,0.0780000016093254,-10.418999671936035,-0.3230000138282775
1621597368130,44.939998626708984,-21.46500015258789,17.326000213623047,0.0,-10.586999893188477,-0.2730000019073486
1621597368140,38.56999969482422,-20.986000061035156,17.836999893188477,-0.1570000052452087,-10.645999908447266,-0.164000004529953
1621597368150,31.850000381469727,-19.834999084472656,17.756000518798828,-0.2349999994039535,-10.536999702453612,-0.1049999967217445
1621597368160,25.6200008392334,-18.468000411987305,18.06800079345703,-0.3529999852180481,-10.395999908447266,-0.0010000000474974
1621597368170,19.809999465942383,-16.788999557495117,18.22100067138672,-0.3919999897480011,-10.26200008392334,0.1420000046491622
1621597368180,15.119999885559082,-15.366000175476074,17.4060001373291,-0.4309999942779541,-10.121000289916992,0.2469999939203262
1621597368190,11.479999542236328,-13.67099952697754,15.857000350952148,-0.4709999859333038,-10.08199977874756,0.2540000081062316
1621597368200,8.1899995803833,-12.255999565124512,14.6850004196167,-0.4309999942779541,-10.076000213623049,0.2150000035762786
1621597368210,4.900000095367432,-11.145000457763672,14.027999877929688,-0.3919999897480011,-10.11400032043457,0.2080000042915344
1621597368220,1.9600000381469729,-10.229000091552734,14.473999977111816,-0.3919999897480011,-10.107000350952148,0.1700000017881393
1621597368230,-1.0499999523162842,-10.038000106811523,13.79599952697754,-0.2750000059604644,-10.159999847412108,0.2399999946355819
1621597368240,-2.240000009536743,-10.332000732421877,13.246999740600586,-0.2349999994039535,-10.043999671936035,0.2599999904632568
1621597368250,-3.430000066757202,-10.62600040435791,12.697999954223633,-0.1570000052452087,-9.965999603271484,0.2739999890327453
1621597368260,-6.019999980926514,-11.031999588012695,11.77299976348877,-0.0780000016093254,-9.92099952697754,0.2419999986886978
1621597368270,-7.420000076293945,-11.822999954223633,10.211999893188477,-0.0780000016093254,-9.88199996948242,0.248999997973442
1621597368280,-8.470000267028809,-12.987000465393066,9.154000282287598,-0.0390000008046627,-9.869000434875488,0.1720000058412551
1621597368290,-9.3100004196167,-13.871000289916992,8.927000045776367,0.0780000016093254,-9.913999557495115,0.2039999961853027
1621597368300,-9.449999809265137,-15.829999923706056,7.941999912261963,0.1180000007152557,-9.92099952697754,0.2419999986886978
1621597368310,-9.100000381469728,-17.966999053955078,6.35699987411499,0.1570000052452087,-9.92099952697754,0.2419999986886978
1621597368320,-9.170000076293944,-20.11199951171875,5.623000144958496,0.1959999948740005,-9.960000038146973,0.2349999994039535
1621597368330,-9.729999542236328,-22.391000747680664,5.6479997634887695,0.2349999994039535,-10.036999702453612,0.2220000028610229
1621597368340,-10.010000228881836,-24.767000198364254,5.014999866485596,0.1959999948740005,-10.076000213623049,0.2150000035762786
1621597368350,-10.850000381469728,-27.329999923706055,3.4260001182556152,0.1570000052452087,-10.036999702453612,0.2220000028610229
1621597368360,-11.550000190734863,-29.34600067138672,1.1519999504089355,0.1570000052452087,-10.043999671936035,0.2599999904632568
1621597368370,-11.899999618530272,-30.902999877929688,-0.899999976158142,0.1570000052452087,-10.036999702453612,0.2220000028610229
1621597368380,-11.899999618530272,-31.937000274658203,-2.2909998893737793,0.0780000016093254,-10.029999732971191,0.1829999983310699
1621597368390,-11.970000267028809,-32.62300109863281,-4.046000003814697,0.0780000016093254,-10.152999877929688,0.2010000050067901
1621597368400,-11.340000152587892,-33.150001525878906,-5.489999771118164,0.0390000008046627,-10.215999603271484,0.1099999994039535
1621597368410,-11.0600004196167,-33.097999572753906,-6.190999984741211,0.0390000008046627,-10.138999938964844,0.123999997973442
1621597368420,-11.340000152587892,-33.025001525878906,-6.605000019073486,0.0390000008046627,-10.10099983215332,0.1309999972581863
1621597368430,-11.130000114440918,-32.77299880981445,-6.419000148773193,0.0390000008046627,-10.062000274658203,0.1379999965429306
1621597368440,-10.920000076293944,-32.69999694824219,-5.624000072479248,0.0390000008046627,-10.138999938964844,0.123999997973442
1621597368450,-10.710000038146973,-32.62699890136719,-4.828999996185303,0.0,-10.093999862670898,0.0920000001788139
1621597368460,-11.0600004196167,-32.185001373291016,-2.9030001163482666,-0.0390000008046627,-10.010000228881836,0.06700000166893
1621597368470,-11.130000114440918,-31.666000366210938,-1.8159999847412107,-0.0390000008046627,-9.873000144958496,-0.0280000008642673
1621597368480,-10.850000381469728,-31.11400032043457,-1.718999981880188,-0.0780000016093254,-9.840999603271484,0.0170000009238719
1621597368490,-10.56999969482422,-30.018999099731445,-1.88100004196167,-0.0780000016093254,-9.68000030517578,0.006000000052154
1621597368500,-10.5,-28.791000366210938,-1.593999981880188,-0.0780000016093254,-9.487000465393066,0.0399999991059303
1621597368510,-9.3100004196167,-28.104999542236328,-1.0460000038146973,-0.0780000016093254,-9.454999923706056,0.0850000008940696
1621597368520,-7.489999771118165,-27.57799911499023,-0.8109999895095825,-0.0390000008046627,-9.454999923706056,0.0850000008940696
1621597368530,-5.739999771118164,-26.881000518798828,-0.3330000042915344,-0.0780000016093254,-9.4350004196167,-0.0299999993294477
1621597368540,-4.269999980926514,-26.25200080871582,0.1330000013113021,-0.0780000016093254,-9.460000038146973,-0.1150000020861625
1621597368550,-2.5899999141693115,-26.09000015258789,1.2280000448226929,-0.1570000052452087,-9.58199977874756,-0.096000000834465
1621597368560,-1.5399999618530271,-25.964000701904297,1.3209999799728394,-0.1959999948740005,-9.697999954223633,-0.1169999986886978
1621597368570,-0.9800000190734864,-25.38400077819824,0.8550000190734863,-0.1959999948740005,-9.781999588012695,-0.0920000001788139
1621597368580,-0.6299999952316284,-25.108999252319336,-0.3050000071525573,-0.1959999948740005,-9.859999656677246,-0.1049999967217445
1621597368590,-0.2800000011920929,-24.707000732421875,-1.3710000514984133,-0.1570000052452087,-9.82800006866455,-0.0599999986588954
1621597368600,-0.4900000095367431,-23.53499984741211,-2.372999906539917,-0.1180000007152557,-9.75699996948242,-0.0080000003799796
1621597368610,0.0,-22.729000091552734,-2.515000104904175,-0.1180000007152557,-9.68000030517578,0.006000000052154
1621597368620,0.2800000011920929,-22.472999572753903,-2.753999948501587,-0.1180000007152557,-9.72599983215332,0.0379999987781047
1621597368630,0.9100000262260436,-22.40800094604492,-2.315999984741211,-0.1180000007152557,-9.763999938964846,0.0309999994933605
1621597368640,1.6799999475479126,-22.368000030517575,-1.741000056266785,-0.1180000007152557,-9.770999908447264,0.0700000002980232
1621597368650,2.134999990463257,-22.45299911499023,-1.2580000162124634,-0.0780000016093254,-9.840999603271484,0.0170000009238719
1621597368660,2.5899999141693115,-22.538000106811523,-0.774999976158142,-0.1180000007152557,-9.932000160217283,0.0810000002384185
1621597368670,3.7100000381469727,-22.204999923706055,-0.6460000276565551,-0.1959999948740005,-9.73900032043457,0.1150000020861625
1621597368680,4.690000057220459,-22.281999588012695,0.1940000057220459,-0.1959999948740005,-9.623000144958496,0.135000005364418
1621597368690,4.760000228881836,-22.35099983215332,0.181999996304512,-0.1570000052452087,-9.70699977874756,0.1599999964237213
1621597368700,4.900000095367432,-22.075000762939453,0.2300000041723251,-0.1570000052452087,-9.79800033569336,0.2240000069141387
1621597368710,5.320000171661377,-21.808000564575195,1.1299999952316284,-0.1959999948740005,-9.87600040435791,0.209999993443489
1621597368720,5.460000038146973,-21.733999252319336,1.924999952316284,-0.1959999948740005,-9.812000274658203,0.3009999990463256
1621597368730,5.809999942779541,-22.42799949645996,2.2290000915527344,-0.1570000052452087,-9.779999732971191,0.3470000028610229
1621597368740,5.739999771118164,-23.31999969482422,2.8540000915527344,-0.1959999948740005,-9.826000213623049,0.3790000081062316
1621597368750,4.550000190734863,-24.43899917602539,4.36299991607666,-0.2750000059604644,-9.902999877929688,0.3650000095367431
1621597368760,3.6400001049041744,-25.481000900268555,5.0320000648498535,-0.2750000059604644,-9.90999984741211,0.4040000140666961
1621597368770,3.0799999237060547,-27.006000518798828,4.4070000648498535,-0.3529999852180481,-9.916000366210936,0.44200000166893
1621597368780,3.0799999237060547,-28.059999465942383,2.7290000915527344,-0.3919999897480011,-9.954999923706056,0.4350000023841857
1621597368790,2.869999885559082,-28.843000411987305,1.524999976158142,-0.4309999942779541,-10.078000068664553,0.4539999961853027
1621597368800,2.240000009536743,-29.66200065612793,0.5270000100135803,-0.4709999859333038,-10.168999671936035,0.5170000195503234
1621597368810,1.6799999475479126,-30.33099937438965,-0.5149999856948853,-0.5099999904632568,-10.199999809265137,0.4720000028610229
1621597368820,1.190000057220459,-30.611000061035156,-1.3459999561309814,-0.5490000247955322,-10.218999862670898,0.3490000069141387
1621597368830,0.4900000095367431,-30.882999420166016,-1.8200000524520872,-0.7450000047683715,-10.194000244140623,0.4329999983310699
1621597368840,-0.0700000002980232,-30.599000930786133,-2.622999906539917,-0.7450000047683715,-10.154999732971191,0.4399999976158142
1621597368850,-0.9100000262260436,-30.145000457763672,-3.183000087738037,-0.7850000262260437,-10.194000244140623,0.4329999983310699
1621597368860,-2.7300000190734863,-29.156000137329105,-4.359000205993652,-0.8629999756813049,-10.29599952697754,0.3350000083446502
1621597368870,-5.320000171661377,-27.930999755859375,-4.854000091552734,-0.9409999847412108,-10.482000350952148,0.2630000114440918
1621597368880,-6.614999771118164,-27.710498809814453,-5.099499702453613,-0.9409999847412108,-10.585000038146973,0.1650000065565109
1621597368890,-7.9099998474121085,-27.489999771118164,-5.34499979019165,-0.9409999847412108,-10.494000434875488,0.101000003516674
1621597368900,-9.869999885559082,-27.687999725341797,-3.8159999847412114,-0.9020000100135804,-10.307000160217283,0.1739999949932098
1621597368910,-11.0600004196167,-28.628000259399418,-0.4990000128746032,-0.9409999847412108,-10.043999671936035,0.2599999904632568
1621597368920,-11.619999885559082,-30.143999099731445,2.8589999675750732,-0.9409999847412108,-9.819000244140623,0.3400000035762786
1621597368930,-11.760000228881836,-31.82699966430664,5.547999858856201,-0.8629999756813049,-9.70300006866455,0.3600000143051147
1621597368940,-12.25,-33.185001373291016,6.801000118255615,-0.8629999756813049,-9.656999588012695,0.3289999961853027
1621597368950,-13.369999885559082,-34.54399871826172,6.8460001945495605,-0.7059999704360961,-9.46399974822998,0.3630000054836273
1621597368960,-14.630000114440918,-36.051998138427734,5.7270002365112305,-0.6669999957084655,-9.39400005340576,0.4149999916553497
1621597368970,-15.399999618530272,-37.98699951171875,4.604000091552734,-0.5490000247955322,-9.31700038909912,0.4280000030994415
1621597368980,-16.170000076293945,-40.305999755859375,4.052000045776367,-0.3140000104904174,-9.187000274658203,0.3720000088214874
1621597368990,-17.079999923706055,-43.11600112915039,3.059000015258789,-0.1959999948740005,-8.987000465393066,0.367000013589859
1621597369000,-18.059999465942383,-47.09000015258789,1.0080000162124634,-0.1180000007152557,-8.878000259399414,0.4259999990463256
1621597369010,-18.1299991607666,-52.06600189208984,-1.00600004196167,-0.0390000008046627,-8.800999641418457,0.4399999976158142
1621597369020,-17.780000686645508,-57.54100036621094,-2.611999988555908,0.0780000016093254,-8.83899974822998,0.4329999983310699
1621597369030,-17.360000610351562,-62.79600143432618,-3.0409998893737793,0.0390000008046627,-8.885000228881836,0.4650000035762786
1621597369040,-17.360000610351562,-68.93099975585938,-2.9140000343322754,0.0780000016093254,-8.92300033569336,0.4580000042915344
1621597369050,-17.149999618530273,-75.54900360107422,-2.872999906539917,0.0,-9.006999969482422,0.4830000102519989
1621597369060,-17.219999313354492,-82.5719985961914,-2.546999931335449,-0.0780000016093254,-9.130000114440918,0.5009999871253967
1621597369070,-17.149999618530273,-88.89800262451172,-1.743000030517578,-0.2349999994039535,-9.130000114440918,0.5009999871253967
1621597369080,-17.709999084472656,-94.6760025024414,-1.625,-0.5879999995231628,-9.097999572753906,0.5469999909400939
1621597369090,-17.5,-98.77200317382812,-2.986999988555908,-0.7850000262260437,-9.137000083923342,0.5400000214576721
1621597369100,-16.799999237060547,-101.3550033569336,-4.863999843597412,-1.0199999809265137,-9.112000465393066,0.6240000128746032
1621597369110,-16.170000076293945,-102.44200134277344,-5.552999973297119,-1.2549999952316284,-9.151000022888184,0.6169999837875366
1621597369120,-15.329999923706056,-101.97599792480467,-6.182000160217285,-1.491000056266785,-9.189000129699709,0.6100000143051147
1621597369130,-13.720000267028809,-101.40799713134766,-6.578999996185303,-1.6480000019073486,-9.234999656677246,0.6420000195503234
1621597369140,-12.985000610351564,-100.59100341796876,-6.576999664306641,-1.8040000200271609,-9.279999732971191,0.6740000247955322
1621597369150,-12.25,-99.77400207519533,-6.574999809265137,-1.9609999656677248,-9.357000350952148,0.6600000262260437
1621597369160,-10.640000343322754,-97.4990005493164,-6.173999786376953,-2.118000030517578,-9.628000259399414,0.6129999756813049
1621597369170,-9.59000015258789,-93.6259994506836,-5.563000202178955,-2.313999891281128,-9.859999656677246,0.5720000267028807
1621597369180,-9.800000190734863,-89.27899932861328,-5.2230000495910645,-2.431999921798706,-9.968999862670898,0.5130000114440918
1621597369190,-10.359999656677246,-84.23100280761719,-6.038000106811523,-2.510999917984009,-10.116000175476074,0.4469999969005584
1621597369200,-10.989999771118164,-78.70800018310547,-5.916999816894531,-2.5889999866485596,-10.303000450134276,0.3740000128746032
1621597369210,-11.899999618530272,-72.95800018310547,-5.4720001220703125,-2.628000020980835,-10.449999809265137,0.3079999983310699
1621597369220,-12.600000381469728,-67.11900329589844,-4.7270002365112305,-2.7070000171661377,-10.597999572753906,0.2419999986886978
1621597369230,-13.229999542236328,-61.3849983215332,-3.786999940872192,-2.628000020980835,-10.63700008392334,0.2360000014305114
1621597369240,-14.5600004196167,-55.97600173950195,-3.8280000686645503,-2.628000020980835,-10.468999862670898,0.1860000044107437
1621597369250,-15.890000343322754,-50.41600036621094,-3.9140000343322754,-2.5889999866485596,-10.307000160217283,0.1739999949932098
1621597369260,-16.729999542236328,-45.176998138427734,-4.198999881744385,-2.510999917984009,-10.145999908447266,0.163000002503395
1621597369270,-17.920000076293945,-40.255001068115234,-5.107999801635742,-2.4709999561309814,-9.901000022888184,0.1260000020265579
1621597369280,-18.6200008392334,-36.04199981689453,-6.426000118255615,-2.3540000915527344,-9.661999702453612,0.1289999932050705
1621597369290,-18.34000015258789,-32.41699981689453,-7.635000228881835,-2.236000061035156,-9.454999923706056,0.0850000008940696
1621597369300,-17.290000915527344,-28.93000030517578,-8.868000030517578,-2.0789999961853027,-9.293999671936035,0.0740000009536743
1621597369310,-15.539999961853027,-25.555999755859375,-10.263999938964844,-1.9220000505447388,-9.17099952697754,0.0560000017285346
1621597369320,-13.300000190734863,-23.086999893188477,-12.173999786376951,-1.8040000200271609,-9.093999862670898,0.0689999982714653
1621597369330,-10.5,-20.975000381469727,-15.284000396728516,-1.687000036239624,-8.901000022888184,0.1030000001192092
1621597369340,-6.789999961853027,-18.972000122070312,-17.77400016784668,-1.6480000019073486,-8.78499984741211,0.123999997973442
1621597369350,-3.2899999618530273,-17.038000106811523,-19.06800079345703,-1.5299999713897705,-8.760000228881836,0.2080000042915344
1621597369360,-1.2599999904632568,-15.404000282287598,-19.06399917602539,-1.4509999752044678,-8.913999557495117,0.1809999942779541
1621597369370,-0.9100000262260436,-14.41800022125244,-17.398000717163086,-1.491000056266785,-9.1850004196167,0.1330000013113021
1621597369380,-2.309999942779541,-13.684000015258787,-14.710000038146973,-1.491000056266785,-9.487000465393066,0.0399999991059303
1621597369390,-4.269999980926514,-12.895999908447266,-11.513999938964844,-1.5299999713897705,-9.788999557495115,-0.0529999993741512
1621597369400,-6.579999923706055,-11.732000350952148,-9.248000144958496,-1.569000005722046,-10.020999908447266,-0.0939999967813491
1621597369410,-8.260000228881836,-11.140000343322754,-8.574999809265137,-1.6080000400543213,-10.144000053405762,-0.0759999975562095
1621597369420,-8.329999923706055,-10.682000160217283,-8.955999374389648,-1.6080000400543213,-10.144000053405762,-0.0759999975562095
1621597369430,-8.399999618530273,-10.223999977111816,-9.336999893188477,-1.6480000019073486,-10.034999847412108,-0.0170000009238719
1621597369440,-7.699999809265136,-8.47700023651123,-11.588000297546388,-1.6480000019073486,-9.932000160217283,0.0810000002384185
1621597369450,-6.650000095367432,-6.250999927520752,-13.328000068664553,-1.6480000019073486,-9.746000289916992,0.1539999991655349
1621597369460,-4.900000095367432,-3.7160000801086426,-14.800000190734863,-1.6080000400543213,-9.64400005340576,0.2509999871253967
1621597369470,-2.5199999809265137,-2.0169999599456787,-15.56700038909912,-1.5299999713897705,-9.53499984741211,0.3100000023841857
1621597369480,-0.1400000005960464,-0.5899999737739563,-15.598999977111816,-1.491000056266785,-9.503000259399414,0.356000006198883
1621597369490,1.8899999856948853,0.5820000171661377,-15.392999649047852,-1.3730000257492063,-9.586999893188477,0.3810000121593475
1621597369500,3.6400001049041744,1.125,-14.444000244140623,-1.3339999914169312,-9.663999557495115,0.367000013589859
1621597369510,4.269999980926514,1.656999945640564,-13.425999641418455,-1.3730000257492063,-9.741000175476074,0.3540000021457672
1621597369519,4.619999885559082,2.244999885559082,-13.53600025177002,-1.4119999408721924,-9.734999656677246,0.3149999976158142
1621597369529,4.480000019073486,3.5910000801086426,-13.51200008392334,-1.491000056266785,-9.689000129699709,0.2829999923706054
1621597369539,3.6400001049041744,5.570000171661377,-13.446999549865724,-1.569000005722046,-9.689000129699709,0.2829999923706054
1621597369549,2.6600000858306885,8.258000373840332,-12.972999572753906,-1.569000005722046,-9.696000099182127,0.3219999969005584
1621597369559,1.4700000286102295,10.45199966430664,-12.515000343322754,-1.491000056266785,-9.720999717712402,0.2380000054836273
1621597369569,0.209999993443489,12.880999565124512,-11.37600040435791,-1.3730000257492063,-9.913999557495115,0.2039999961853027
1621597369579,-1.6799999475479126,14.467000007629396,-9.887999534606934,-1.2940000295639038,-9.869000434875488,0.1720000058412551
1621597369589,-2.799999952316284,15.723999977111816,-8.956000328063965,-1.1770000457763672,-9.829999923706056,0.1790000051259994
1621597369599,-3.1500000953674316,16.677000045776367,-8.715999603271484,-1.1380000114440918,-9.8100004196167,0.0630000010132789
1621597369609,-2.940000057220459,17.679000854492188,-8.753000259399414,-1.0980000495910645,-9.78499984741211,0.1469999998807907
1621597369619,-3.359999895095825,18.246000289916992,-9.151000022888184,-1.0590000152587893,-9.70699977874756,0.1599999964237213
1621597369629,-3.5,18.375999450683594,-9.482999801635742,-0.981000006198883,-9.694000244140623,0.0829999968409538
1621597369639,-3.7100000381469727,18.368000030517575,-9.84000015258789,-0.8240000009536743,-9.616999626159668,0.0970000028610229
1621597369649,-3.6400001049041744,17.507999420166016,-8.996000289916992,-0.7059999704360961,-9.602999687194824,0.0199999995529651
1621597369659,-3.849999904632568,15.890000343322754,-8.286999702453613,-0.5099999904632568,-9.654999732971191,0.0900000035762786
1621597369669,-4.690000057220459,12.994999885559082,-7.58900022506714,-0.3529999852180481,-9.732000350952148,0.0759999975562095
1621597369679,-5.599999904632568,8.847000122070312,-7.040999889373779,-0.2349999994039535,-9.701000213623049,0.1220000013709068
1621597369689,-5.53000020980835,3.811000108718872,-6.294000148773193,-0.1570000052452087,-9.701000213623049,0.1220000013709068
1621597369699,-5.390000343322754,1.5545001029968262,-5.590000152587891,-0.1180000007152557,-9.73900032043457,0.1150000020861625
1621597369709,-5.25,-0.7020000219345092,-4.886000156402588,-0.1180000007152557,-9.746000289916992,0.1539999991655349
1621597369719,-4.900000095367432,-5.248000144958496,-4.906000137329102,-0.1959999948740005,-9.70699977874756,0.1599999964237213
1621597369729,-4.550000190734863,-8.901000022888184,-5.550000190734863,-0.1570000052452087,-9.701000213623049,0.1220000013709068
1621597369739,-4.690000057220459,-12.373000144958496,-6.019999980926514,-0.1180000007152557,-9.616999626159668,0.0970000028610229
1621597369749,-4.760000228881836,-15.685999870300291,-6.177999973297119,0.0,-9.609999656677246,0.0579999983310699
1621597369759,-4.829999923706055,-20.048999786376953,-6.0229997634887695,0.1570000052452087,-9.647999763488768,0.0509999990463256
1621597369769,-5.110000133514404,-25.839000701904297,-4.626999855041504,0.3529999852180481,-9.687000274658203,0.0450000017881393
1621597369779,-5.460000038146973,-32.84199905395508,-1.5970000028610227,0.4709999859333038,-9.763999938964846,0.0309999994933605
1621597369789,-6.789999961853027,-40.94300079345703,2.0209999084472656,0.5099999904632568,-9.835000038146973,-0.0209999997168779
1621597369799,-8.050000190734863,-49.73400115966797,4.309000015258789,0.5490000247955322,-9.96399974822998,0.0350000001490116
1621597369809,-9.380000114440918,-58.172000885009766,4.5980000495910645,0.6280000209808348,-9.96399974822998,0.0350000001490116
1621597369819,-11.130000114440918,-67.36900329589844,3.5450000762939453,0.6669999957084655,-9.854999542236328,0.0949999988079071
1621597369829,-12.949999809265137,-77.83100128173828,3.619999885559082,0.7059999704360961,-9.78499984741211,0.1469999998807907
1621597369839,-13.859999656677246,-88.36199951171875,4.889999866485596,0.6669999957084655,-9.637000083923342,0.2129999995231628
1621597369849,-13.649999618530272,-98.23200225830078,4.429999828338623,0.5490000247955322,-9.541000366210936,0.3490000069141387
1621597369859,-13.300000190734863,-106.81999969482422,2.3459999561309814,0.4709999859333038,-9.477999687194824,0.4399999976158142
1621597369869,-12.949999809265137,-115.27500152587892,-0.4950000047683715,0.4709999859333038,-9.465999603271484,0.6010000109672546
1621597369879,-12.109999656677246,-123.99400329589844,-2.244999885559082,0.4709999859333038,-9.557000160217283,0.6650000214576721
1621597369889,-11.6899995803833,-132.2220001220703,-3.553999900817871,0.3140000104904174,-9.694000244140623,0.7599999904632568
1621597369899,-11.760000228881836,-139.9510040283203,-5.271999835968018,0.1959999948740005,-9.70699977874756,0.8379999995231628
1621597369909,-11.899999618530272,-146.1999969482422,-6.515999794006348,0.0390000008046627,-9.604999542236328,0.9350000023841856
1621597369919,-11.409999847412108,-150.96800231933594,-7.28599977493286,-0.1959999948740005,-9.380000114440918,1.0149999856948853
1621597369929,-10.010000228881836,-153.7989959716797,-7.359000205993653,-0.4309999942779541,-9.315999984741213,1.1059999465942385
1621597369939,-8.119999885559082,-154.5050048828125,-9.402000427246092,-0.7059999704360961,-9.375,1.2150000333786013
1621597369949,-7.559999942779541,-153.88900756835935,-12.491999626159668,-0.8240000009536743,-9.51900005340576,1.3489999771118164
1621597369959,-7.630000114440918,-153.61300659179688,-13.047499656677246,-0.8240000009536743,-9.732000350952148,1.430999994277954
1621597369969,-7.699999809265136,-153.33700561523435,-13.602999687194824,-0.7850000262260437,-9.73900032043457,1.468999981880188
1621597369979,-7.489999771118165,-152.98800659179688,-11.552000045776367,-0.7850000262260437,-9.791000366210936,1.5399999618530271
1621597369989,-7.280000209808349,-152.4409942626953,-9.81999969482422,-0.8240000009536743,-9.946000099182127,1.5119999647140503
1621597369999,-7.8400001525878915,-150.98899841308594,-8.781999588012695,-0.9020000100135804,-10.08899974822998,1.6469999551773071
1621597370009,-6.929999828338623,-148.9980010986328,-8.786999702453613,-0.8629999756813049,-10.166000366210936,1.6330000162124634
1621597370019,-5.949999809265137,-146.86900329589844,-8.767000198364258,-0.8240000009536743,-10.380000114440918,1.7150000333786013
1621597370029,-5.460000038146973,-145.72500610351562,-7.995999813079834,-0.7450000047683715,-10.45699977874756,1.7009999752044678
1621597370039,-6.650000095367432,-146.04200744628906,-7.4120001792907715,-0.7059999704360961,-10.46399974822998,1.7400000095367432
1621597370049,-8.609999656677246,-146.71099853515625,-7.245999813079834,-0.7450000047683715,-10.380000114440918,1.7150000333786013
1621597370059,-10.779999732971191,-146.8280029296875,-6.982999801635742,-0.8629999756813049,-10.14799976348877,1.75600004196167
1621597370069,-13.300000190734863,-146.1909942626953,-6.158999919891357,-1.0590000152587893,-9.845999717712402,1.8489999771118164
1621597370079,-16.239999771118164,-144.39500427246094,-5.060999870300293,-1.2940000295639038,-9.652999877929688,1.8830000162124632
1621597370089,-19.8799991607666,-141.24000549316406,-4.006999969482422,-1.5299999713897705,-9.536999702453612,1.9029999971389773
1621597370099,-23.309999465942383,-136.6820068359375,-4.056000232696533,-1.843999981880188,-9.199999809265137,1.8029999732971191
1621597370109,-26.739999771118164,-129.8820037841797,-6.340000152587891,-2.1570000648498535,-8.83899974822998,1.7869999408721924
1621597370119,-29.61000061035156,-120.21499633789062,-8.758000373840332,-2.4709999561309814,-8.510000228881836,1.72599995136261
1621597370129,-29.61000061035156,-109.91200256347656,-10.352999687194824,-2.5889999866485596,-8.303000450134277,1.6829999685287476
1621597370139,-26.809999465942383,-100.21600341796876,-9.710000038146973,-2.549999952316284,-8.321000099182129,1.559999942779541
1621597370149,-22.469999313354492,-91.89099884033205,-7.743999958038329,-2.549999952316284,-8.444000244140625,1.5779999494552612
1621597370159,-17.709999084472656,-84.44599914550781,-7.639999866485595,-2.5889999866485596,-8.604999542236328,1.5900000333786013
1621597370169,-12.739999771118164,-76.0530014038086,-10.496000289916992,-2.628000020980835,-8.760000228881836,1.562000036239624
1621597370179,-10.289999961853027,-71.80549621582031,-12.412500381469728,-2.628000020980835,-8.991000175476074,1.5210000276565552
1621597370189,-7.8400001525878915,-67.55799865722656,-14.32900047302246,-2.510999917984009,-9.75,1.3079999685287476
1621597370199,-3.2200000286102295,-59.48899841308594,-16.95800018310547,-2.3540000915527344,-9.904999732971191,1.281000018119812
1621597370209,-0.2800000011920929,-52.85100173950195,-17.920000076293945,-2.236000061035156,-9.937000274658203,1.2350000143051147
1621597370219,1.2599999904632568,-47.542999267578125,-18.191999435424805,-2.0399999618530273,-9.982000350952148,1.2669999599456787
1621597370229,2.0999999046325684,-41.874000549316406,-18.89900016784668,-1.9220000505447388,-9.968999862670898,1.190000057220459
1621597370239,2.7300000190734863,-36.944000244140625,-18.242000579833984,-1.8040000200271609,-9.781999588012695,1.2630000114440918
1621597370249,3.9200000762939458,-32.50699996948242,-17.601999282836914,-1.72599995136261,-9.711999893188477,1.315000057220459
1621597370259,5.949999809265137,-28.481000900268555,-17.461000442504883,-1.6480000019073486,-9.711999893188477,1.315000057220459
1621597370269,7.349999904632568,-24.05699920654297,-17.959999084472656,-1.5299999713897705,-9.75699996948242,1.3470000028610227
1621597370279,8.539999961853027,-20.743999481201172,-17.80299949645996,-1.491000056266785,-9.788999557495115,1.3009999990463257
1621597370289,9.100000381469728,-18.82200050354004,-17.819000244140625,-1.491000056266785,-9.781999588012695,1.2630000114440918
1621597370299,9.3100004196167,-17.06599998474121,-17.29599952697754,-1.4509999752044678,-9.781999588012695,1.2630000114440918
1621597370309,9.239999771118164,-15.586000442504885,-16.82200050354004,-1.4119999408721924,-9.729999542236328,1.1920000314712524
1621597370319,8.960000038146973,-14.361000061035156,-16.107999801635742,-1.4509999752044678,-9.652999877929688,1.2059999704360962
1621597370329,8.260000228881836,-12.949999809265137,-15.645999908447266,-1.4509999752044678,-9.58199977874756,1.2580000162124634
1621597370339,7.070000171661377,-11.182000160217283,-15.19200038909912,-1.3730000257492063,-9.569000244140623,1.180999994277954
1621597370349,5.389999866485596,-9.722000122070312,-13.79800033569336,-1.3730000257492063,-9.562000274658203,1.1419999599456787
1621597370359,3.569999933242798,-8.480999946594238,-12.371000289916992,-1.3730000257492063,-9.678000450134276,1.121999979019165
1621597370369,2.869999885559082,-6.679999828338623,-10.48900032043457,-1.3339999914169312,-9.902999877929688,1.0420000553131104
1621597370379,2.5199999809265137,-5.947999954223633,-9.400500297546388,-1.3339999914169312,-10.019000053405762,1.0219999551773071
1621597370389,2.1700000762939453,-5.216000080108643,-8.312000274658203,-1.3339999914169312,-10.01200008392334,0.9829999804496764
1621597370399,1.2599999904632568,-3.7109999656677246,-6.767000198364258,-1.3339999914169312,-9.888999938964846,0.9649999737739564
1621597370409,0.3499999940395355,-1.6920000314712524,-6.126999855041504,-1.2940000295639038,-9.79800033569336,0.9010000228881836
1621597370419,-0.7699999809265136,0.2829999923706054,-5.636000156402588,-1.215999960899353,-9.682000160217283,0.921999990940094
1621597370429,-1.1200000047683716,2.538000106811523,-5.5229997634887695,-1.2549999952316284,-9.637000083923342,0.8899999856948853
1621597370439,-1.1200000047683716,5.3480000495910645,-6.947000026702881,-1.215999960899353,-9.661999702453612,0.8059999942779541
1621597370449,-0.699999988079071,8.737000465393066,-8.836999893188477,-1.2549999952316284,-9.70699977874756,0.8379999995231628
1621597370459,0.2800000011920929,12.746999740600586,-11.826000213623049,-1.2549999952316284,-9.854999542236328,0.7720000147819519
1621597370469,1.75,17.32900047302246,-14.43000030517578,-1.215999960899353,-10.079999923706056,0.6919999718666076
1621597370479,2.7300000190734863,21.562000274658203,-16.66900062561035,-1.1770000457763672,-10.227999687194824,0.6259999871253967
1621597370489,3.2899999618530273,25.38999938964844,-17.416000366210938,-1.1380000114440918,-10.260000228881836,0.5809999704360961
1621597370499,3.0799999237060547,29.128999710083008,-17.253999710083008,-1.0980000495910645,-10.253000259399414,0.5419999957084655
1621597370509,1.6799999475479126,32.72200012207031,-16.264999389648438,-1.0199999809265137,-10.161999702453612,0.4790000021457672
1621597370519,0.1400000005960464,36.042999267578125,-14.541999816894531,-0.981000006198883,-10.006999969482422,0.5059999823570251
1621597370529,-0.699999988079071,39.70500183105469,-13.541000366210938,-0.981000006198883,-9.83899974822998,0.4560000002384185
1621597370539,-0.6299999952316284,43.28099822998047,-13.265999794006348,-0.981000006198883,-9.690999984741213,0.5220000147819519
1621597370549,0.2800000011920929,47.38899993896485,-13.180999755859377,-0.9020000100135804,-9.6850004196167,0.4830000102519989
1621597370559,1.5399999618530271,51.89799880981445,-14.163000106811523,-0.9409999847412108,-9.652999877929688,0.5289999842643737
1621597370569,2.940000057220459,56.49599838256836,-17.261999130249023,-0.9020000100135804,-9.58199977874756,0.5809999704360961
1621597370579,3.6050000190734863,58.72200012207031,-18.397499084472656,-0.8629999756813049,-9.58199977874756,0.5809999704360961
