timestamp,gyro_x,gyro_y,gyro_z,acc_x,acc_y,acc_z
1622109985396,0.0,0.0,0.0,0.0,0.0,0.0
1622109985405,1.3300000429153442,65.96499633789062,-13.317999839782717,0.9409999847412108,-9.623000144958496,0.8130000233650208
1622109985415,0.3499999940395355,66.68599700927734,-14.185999870300291,0.8629999756813049,-9.553000450134276,0.865000009536743
1622109985425,-0.2800000011920929,68.47799682617188,-16.285999298095703,0.7850000262260437,-9.48900032043457,0.955999970436096
1622109985435,-0.3499999940395355,70.125,-17.559999465942383,0.7059999704360961,-9.48900032043457,0.955999970436096
1622109985445,-0.699999988079071,72.8489990234375,-18.500999450683594,0.6669999957084655,-9.527999877929688,0.9490000009536744
1622109985455,-0.8399999737739563,76.1989974975586,-19.757999420166016,0.5879999995231628,-9.53499984741211,0.9879999756813048
1622109985465,-1.190000057220459,80.24099731445312,-21.31999969482422,0.5099999904632568,-9.612000465393066,0.9739999771118164
1622109985475,-1.225000023841858,82.2969970703125,-21.49049949645996,0.3919999897480011,-9.649999618530272,0.9670000076293944
1622109985485,-1.2599999904632568,84.35299682617188,-21.660999298095703,0.2349999994039535,-9.741000175476074,1.031000018119812
1622109985495,-1.75,88.91899871826172,-21.354000091552734,0.0390000008046627,-9.741000175476074,1.031000018119812
1622109985505,-2.1700000762939453,94.72599792480467,-20.82699966430664,-0.1180000007152557,-9.741000175476074,1.031000018119812
1622109985515,-2.1700000762939453,102.00900268554688,-20.61000061035156,-0.1959999948740005,-9.786999702453612,1.062999963760376
1622109985525,-1.6799999475479126,109.90799713134766,-19.856000900268555,-0.3529999852180481,-9.83899974822998,1.1330000162124634
1622109985535,-1.2599999904632568,118.30999755859376,-19.93899917602539,-0.4309999942779541,-9.845999717712402,1.1720000505447388
1622109985545,-1.2599999904632568,127.27500152587892,-19.993000030517575,-0.4709999859333038,-9.852999687194824,1.2100000381469729
1622109985555,-1.190000057220459,136.95899963378906,-20.48900032043457,-0.4709999859333038,-9.814000129699709,1.2170000076293943
1622109985565,-1.75,146.2570037841797,-20.413000106811523,-0.5099999904632568,-9.781999588012695,1.2630000114440918
1622109985575,-2.7300000190734863,155.7449951171875,-19.805999755859375,-0.5099999904632568,-9.75699996948242,1.3470000028610227
1622109985585,-3.6400001049041744,164.77999877929688,-19.847999572753903,-0.6280000209808348,-9.763999938964846,1.3849999904632568
1622109985595,-3.990000009536743,174.45899963378906,-18.709999084472656,-0.6280000209808348,-9.746000289916992,1.5080000162124634
1622109985605,-4.130000114440918,184.697998046875,-18.326000213623047,-0.5490000247955322,-9.656999588012695,1.6829999685287476
1622109985615,-4.130000114440918,195.0099945068359,-18.356000900268555,-0.4309999942779541,-9.562000274658203,1.819000005722046
1622109985625,-3.569999933242798,204.1699981689453,-19.51300048828125,-0.1570000052452087,-9.388999938964846,1.968999981880188
1622109985635,-1.9600000381469729,211.8179931640625,-21.363000869750977,0.2349999994039535,-9.272999763488768,1.9900000095367432
1622109985645,-0.7699999809265136,217.16200256347656,-23.049999237060547,0.7450000047683715,-9.208999633789062,2.0799999237060547
1622109985655,0.0,219.73699951171875,-23.94700050354004,1.1770000457763672,-9.255000114440918,2.111999988555908
1622109985665,0.1400000005960464,218.9459991455078,-23.090999603271484,1.5299999713897705,-9.262000083923342,2.1510000228881836
1622109985675,0.0,215.84800720214844,-20.43899917602539,1.8040000200271609,-9.229999542236328,2.196000099182129
1622109985685,-0.8399999737739563,211.8220062255859,-18.163000106811523,1.8830000162124632,-9.237000465393066,2.234999895095825
1622109985695,-1.3300000429153442,209.59201049804688,-17.810001373291016,2.0399999618530273,-9.281999588012695,2.2669999599456787
1622109985705,-1.8200000524520872,207.36199951171875,-17.457000732421875,2.0789999961853027,-9.637000083923342,2.24399995803833
1622109985715,-2.869999885559082,202.718994140625,-18.13400077819824,2.118000030517578,-9.984000205993652,2.183000087738037
1622109985725,-5.949999809265137,198.20899963378903,-18.36000061035156,2.1570000648498535,-10.208999633789064,2.1029999256134033
1622109985735,-9.800000190734863,193.6349945068359,-19.024999618530273,2.118000030517578,-10.234000205993652,2.0190000534057617
1622109985745,-13.649999618530272,188.95599365234375,-19.493999481201172,2.0789999961853027,-10.21399974822998,1.9029999971389773
1622109985755,-17.56999969482422,184.70599365234375,-19.177000045776367,2.0789999961853027,-10.284000396728516,1.85099995136261
1622109985765,-21.06999969482422,180.83799743652344,-17.79800033569336,1.9220000505447388,-10.309000015258787,1.7669999599456787
1622109985775,-24.010000228881836,176.83200073242188,-15.234999656677246,1.8830000162124632,-10.17300033569336,1.6720000505447388
1622109985785,-26.040000915527344,172.7570037841797,-13.892000198364258,1.8040000200271609,-9.95300006866455,1.5509999990463257
1622109985795,-27.579999923706055,169.2899932861328,-12.371000289916992,1.8040000200271609,-9.732000350952148,1.430999994277954
1622109985805,-28.489999771118164,165.2310028076172,-10.3149995803833,1.8040000200271609,-9.512000083923342,1.309999942779541
1622109985815,-28.13999938964844,161.5780029296875,-9.75,1.7649999856948853,-9.168999671936035,1.1720000505447388
1622109985825,-27.299999237060547,157.75,-10.211999893188477,1.7649999856948853,-8.902999877929688,1.0190000534057615
1622109985835,-25.549999237060547,153.76400756835938,-10.986000061035156,1.7649999856948853,-8.836999893188477,0.871999979019165
1622109985845,-22.75,150.16299438476565,-11.123000144958496,1.7649999856948853,-9.062000274658203,0.7919999957084655
1622109985855,-18.6200008392334,146.2740020751953,-12.449000358581545,1.687000036239624,-9.357000350952148,0.6600000262260437
1622109985865,-13.090000152587892,142.8070068359375,-14.553000450134276,1.3730000257492063,-9.279999732971191,0.6740000247955322
1622109985875,-6.300000190734863,140.7100067138672,-16.770999908447266,1.2940000295639038,-9.062000274658203,0.7919999957084655
1622109985885,0.2800000011920929,138.95399475097656,-16.084999084472656,1.1380000114440918,-8.88700008392334,0.703000009059906
1622109985895,5.599999904632568,136.97999572753906,-12.949999809265137,1.0199999809265137,-8.763999938964844,0.6850000023841857
1622109985905,10.640000343322754,135.08299255371094,-8.23799991607666,0.9409999847412108,-8.75100040435791,0.6079999804496765
1622109985915,15.81999969482422,132.1199951171875,-1.5110000371932983,0.7850000262260437,-8.904999732971191,0.5809999704360961
1622109985925,18.270000457763672,130.37449645996094,1.7354998588562012,0.5099999904632568,-9.14400005340576,0.578000009059906
1622109985935,20.719999313354492,128.62899780273438,4.98199987411499,0.1959999948740005,-9.267000198364256,0.597000002861023
1622109985945,25.40999984741211,125.95700073242188,7.638000011444091,-0.1570000052452087,-9.58899974822998,0.6190000176429749
1622109985955,29.260000228881836,124.65499877929688,6.556000232696533,-0.4309999942779541,-9.840999603271484,0.6940000057220459
1622109985965,31.5,125.15000152587892,4.15500020980835,-0.5879999995231628,-10.034999847412108,0.6600000262260437
1622109985975,32.130001068115234,126.7760009765625,2.5940001010894775,-0.6669999957084655,-10.196000099182127,0.6719999909400939
1622109985985,31.989999771118164,128.28799438476565,2.0789999961853027,-0.7059999704360961,-10.27299976348877,0.6579999923706054
1622109985995,30.799999237060547,128.53900146484375,2.265000104904175,-0.6669999957084655,-10.388999938964844,0.6380000114440918
1622109986005,27.790000915527344,127.99199676513672,1.7419999837875366,-0.7059999704360961,-10.357000350952148,0.6830000281333923
1622109986015,23.8700008392334,126.64600372314452,0.5099999904632568,-0.6280000209808348,-10.343999862670898,0.606000006198883
1622109986025,19.459999084472656,123.97699737548828,-0.8849999904632568,-0.5879999995231628,-10.329999923706056,0.5289999842643737
1622109986035,15.68000030517578,121.50800323486328,-1.3919999599456787,-0.5490000247955322,-10.399999618530272,0.4760000109672546
1622109986045,12.739999771118164,118.75,-1.878000020980835,-0.5490000247955322,-10.406999588012695,0.5149999856948853
1622109986055,9.59000015258789,115.10099792480467,-2.947999954223633,-0.4709999859333038,-10.399999618530272,0.4760000109672546
1622109986065,6.650000095367432,111.14299774169922,-4.284999847412109,-0.5099999904632568,-10.322999954223633,0.4900000095367431
1622109986075,3.430000066757202,107.72000122070312,-6.238999843597412,-0.4709999859333038,-10.23900032043457,0.4650000035762786
1622109986085,-0.209999993443489,104.39099884033205,-7.111000061035156,-0.4309999942779541,-10.232000350952148,0.4259999990463256
1622109986095,-3.569999933242798,101.14299774169922,-8.038999557495117,-0.4309999942779541,-10.187000274658203,0.395000010728836
1622109986105,-5.949999809265137,97.52100372314452,-9.67300033569336,-0.4309999942779541,-10.17300033569336,0.31700000166893
1622109986115,-8.329999923706055,93.43000030517578,-10.251999855041504,-0.4709999859333038,-10.050999641418455,0.2989999949932098
1622109986125,-10.079999923706056,90.05999755859375,-10.491000175476074,-0.3919999897480011,-9.960000038146973,0.2349999994039535
1622109986135,-11.550000190734863,86.53199768066406,-9.833000183105469,-0.4309999942779541,-9.95300006866455,0.1969999969005584
1622109986145,-12.215000152587892,84.56950378417967,-9.184000015258787,-0.5490000247955322,-9.906999588012695,0.1650000065565109
1622109986155,-12.880000114440918,82.60700225830078,-8.53499984741211,-0.6280000209808348,-9.822999954223633,0.1400000005960464
1622109986165,-13.720000267028809,79.86599731445312,-8.307999610900879,-0.6669999957084655,-9.777999877929688,0.1080000028014183
1622109986175,-14.140000343322754,77.08799743652344,-9.08199977874756,-0.7850000262260437,-9.687000274658203,0.0450000017881393
1622109986185,-14.420000076293944,74.72000122070312,-9.357000350952148,-0.8240000009536743,-9.635000228881836,-0.0260000005364418
1622109986195,-14.5600004196167,72.85099792480469,-10.041999816894531,-0.8629999756813049,-9.595999717712402,-0.0189999993890523
1622109986205,-14.279999732971191,70.80699920654297,-10.545000076293944,-0.8629999756813049,-9.58199977874756,-0.096000000834465
1622109986215,-14.210000038146973,69.41200256347656,-11.501999855041504,-0.8629999756813049,-9.576000213623049,-0.135000005364418
1622109986225,-14.0,67.80999755859375,-12.494999885559082,-0.9020000100135804,-9.69200038909912,-0.1550000011920929
1622109986235,-14.420000076293944,66.1719970703125,-13.281000137329102,-0.9020000100135804,-9.762000083923342,-0.2080000042915344
1622109986245,-14.630000114440918,64.7760009765625,-14.23799991607666,-0.9020000100135804,-9.83199977874756,-0.2599999904632568
1622109986255,-15.1899995803833,63.99800109863281,-14.659999847412108,-0.9020000100135804,-9.826000213623049,-0.2989999949932098
1622109986265,-16.030000686645508,63.053001403808594,-14.541999816894531,-0.8629999756813049,-9.888999938964846,-0.3889999985694885
1622109986275,-17.219999313354492,61.47200012207031,-14.038999557495115,-0.7850000262260437,-9.972999572753906,-0.363999992609024
1622109986285,-19.38999938964844,60.25899887084961,-14.821000099182127,-0.7450000047683715,-9.998000144958496,-0.4490000009536743
1622109986295,-21.489999771118164,58.86800003051758,-14.994999885559082,-0.7450000047683715,-9.869000434875488,-0.5049999952316284
1622109986305,-23.239999771118164,58.24800109863281,-15.104999542236328,-0.7059999704360961,-9.822999954223633,-0.537000000476837
1622109986315,-24.709999084472656,57.992000579833984,-14.866000175476074,-0.6669999957084655,-9.746000289916992,-0.5239999890327453
1622109986325,-25.270000457763672,57.4370002746582,-14.536999702453612,-0.6669999957084655,-9.661999702453612,-0.5490000247955322
1622109986335,-25.200000762939453,57.46099853515625,-14.675000190734863,-0.7059999704360961,-9.571000099182127,-0.6119999885559082
1622109986345,-23.59000015258789,57.78200149536133,-14.47599983215332,-0.7059999704360961,-9.454999923706056,-0.5920000076293945
1622109986355,-23.065000534057617,58.07600021362305,-13.92650032043457,-0.6669999957084655,-9.40999984741211,-0.6240000128746032
1622109986365,-22.540000915527344,58.369998931884766,-13.376999855041504,-0.6280000209808348,-9.447999954223633,-0.6299999952316284
1622109986375,-20.93000030517578,59.41600036621094,-12.055999755859377,-0.5879999995231628,-9.479999542236328,-0.6759999990463256
1622109986385,-19.739999771118164,59.69200134277344,-10.798999786376951,-0.5490000247955322,-9.472999572753906,-0.7139999866485595
1622109986395,-18.479999542236328,60.24800109863281,-9.918999671936035,-0.4309999942779541,-9.395999908447264,-0.7009999752044677
1622109986405,-17.5,60.81100082397461,-8.682000160217285,-0.3529999852180481,-9.196000099182127,-0.7049999833106994
1622109986415,-15.539999961853027,61.2859992980957,-7.744999885559082,-0.2349999994039535,-9.048999786376951,-0.6399999856948853
1622109986425,-13.510000228881836,61.185001373291016,-6.76800012588501,-0.0780000016093254,-9.017000198364256,-0.5939999818801879
1622109986435,-12.039999961853027,61.03499984741211,-5.514999866485596,0.0390000008046627,-9.255000114440918,-0.5960000157356262
1622109986445,-10.5,59.97700119018555,-3.1429998874664307,0.1570000052452087,-9.72599983215332,-0.6389999985694885
1622109986455,-8.119999885559082,58.334999084472656,-1.087000012397766,0.1959999948740005,-10.286999702453612,-0.6190000176429749
1622109986465,-5.179999828338623,56.266998291015625,-0.2430000007152557,0.1959999948740005,-10.661999702453612,-0.5260000228881835
1622109986475,-1.5399999618530271,54.179000854492195,0.3129999935626983,0.2349999994039535,-10.70699977874756,-0.4939999878406524
1622109986485,2.0299999713897705,51.42499923706055,0.609000027179718,0.2349999994039535,-10.928000450134276,-0.3729999959468841
1622109986495,4.550000190734863,48.266998291015625,3.6059999465942383,0.2750000059604644,-11.064000129699709,-0.277999997138977
1622109986505,5.949999809265137,45.270999908447266,7.697999954223632,0.1959999948740005,-10.845999717712402,-0.1599999964237213
1622109986515,5.880000114440918,41.983001708984375,9.819000244140623,0.2349999994039535,-10.505000114440918,-0.0599999986588954
1622109986525,4.340000152587891,38.26800155639648,9.520000457763674,0.2750000059604644,-10.350000381469728,-0.032999999821186
1622109986535,1.6799999475479126,34.54999923706055,10.854000091552734,0.2750000059604644,-10.498000144958496,-0.0989999994635581
1622109986545,-1.9600000381469729,31.094999313354492,12.307000160217283,0.2349999994039535,-10.666000366210938,-0.0489999987185001
1622109986555,-5.949999809265137,27.31599998474121,10.361000061035156,0.2349999994039535,-10.718999862670898,0.0219999998807907
1622109986565,-8.295000076293945,25.075000762939453,8.152999877929688,0.3140000104904174,-10.829999923706056,0.2010000050067901
1622109986575,-10.640000343322754,22.833999633789062,5.945000171661377,0.2750000059604644,-10.779999732971191,0.3700000047683715
1622109986585,-16.59000015258789,20.040000915527344,3.249000072479248,0.2750000059604644,-10.529999732971191,0.5329999923706054
1622109986595,-22.1200008392334,17.57900047302246,1.8910000324249268,0.2349999994039535,-10.241000175476074,0.7039999961853027
1622109986605,-26.040000915527344,14.618000030517578,-0.2660000026226043,0.2349999994039535,-9.984999656677246,0.8289999961853027
1622109986615,-28.0,11.625,-2.6410000324249268,0.2750000059604644,-9.791000366210936,0.8629999756813049
1622109986625,-29.469999313354492,9.873000144958496,-3.5899999141693115,0.2349999994039535,-9.675000190734863,0.8830000162124633
1622109986635,-30.450000762939453,8.491000175476074,-4.616000175476074,0.2349999994039535,-9.597999572753906,0.8970000147819519
1622109986645,-30.030000686645508,7.33900022506714,-5.743000030517578,0.2349999994039535,-9.468999862670898,0.8399999737739563
1622109986655,-28.559999465942383,6.048999786376953,-6.894000053405762,0.2750000059604644,-9.385000228881836,0.8149999976158142
1622109986665,-26.600000381469727,5.0229997634887695,-7.927999973297118,0.2750000059604644,-9.378000259399414,0.7760000228881835
1622109986675,-24.36000061035156,4.369999885559082,-8.256999969482422,0.2349999994039535,-9.395999908447264,0.652999997138977
1622109986685,-22.049999237060547,3.234999895095825,-8.670000076293945,0.2750000059604644,-9.428000450134276,0.6079999804496765
1622109986695,-19.31999969482422,2.7239999771118164,-9.399999618530272,0.2750000059604644,-9.472999572753906,0.6399999856948853
1622109986705,-17.010000228881836,2.013999938964844,-9.809000015258787,0.2750000059604644,-9.498000144958496,0.5559999942779541
1622109986715,-15.119999885559082,1.38100004196167,-9.850000381469728,0.3529999852180481,-9.446000099182127,0.4850000143051147
1622109986725,-12.880000114440918,0.6800000071525573,-9.902000427246092,0.3919999897480011,-9.246000289916992,0.481000006198883
1622109986735,-10.359999656677246,-0.0700000002980232,-9.678999900817873,0.4709999859333038,-9.013999938964846,0.5220000147819519
1622109986745,-7.559999942779541,-0.6830000281333923,-9.432000160217283,0.5099999904632568,-8.859999656677246,0.5490000247955322
1622109986755,-4.550000190734863,-1.1529999971389773,-9.586000442504885,0.5879999995231628,-8.866999626159668,0.5870000123977661
1622109986765,-3.010000228881836,-1.5644999742507937,-9.871500015258787,0.6280000209808348,-8.911999702453613,0.6190000176429749
1622109986775,-1.4700000286102295,-1.97599995136261,-10.156999588012695,0.6280000209808348,-8.98900032043457,0.606000006198883
1622109986785,0.9800000190734864,-2.555999994277954,-10.89900016784668,0.6280000209808348,-8.937000274658203,0.5350000262260437
1622109986795,3.569999933242798,-2.312999963760376,-11.06999969482422,0.6280000209808348,-8.982000350952148,0.5669999718666076
1622109986805,5.880000114440918,-1.968000054359436,-11.008999824523926,0.6280000209808348,-8.982000350952148,0.5669999718666076
1622109986815,7.699999809265136,-1.6030000448226929,-10.659999847412108,0.7059999704360961,-9.079999923706056,0.6690000295639038
1622109986825,9.800000190734863,-0.7110000252723693,-10.07699966430664,0.7059999704360961,-9.156999588012695,0.656000018119812
1622109986835,12.039999961853027,0.0799999982118606,-9.723999977111816,0.8240000009536743,-9.241000175476074,0.6809999942779541
1622109986845,13.789999961853027,0.9110000133514404,-10.003999710083008,0.981000006198883,-9.36400032043457,0.6990000009536743
1622109986855,14.350000381469728,1.625,-10.020000457763672,1.0980000495910645,-9.571000099182127,0.7419999837875366
1622109986865,14.279999732971191,2.2690000534057617,-10.048999786376951,1.1380000114440918,-9.777999877929688,0.7850000262260437
1622109986875,13.300000190734863,2.703000068664551,-9.687999725341797,1.215999960899353,-9.977999687194824,0.7900000214576721
1622109986885,11.130000114440918,2.2939999103546143,-8.977999687194824,1.2549999952316284,-10.069000244140623,0.8539999723434448
1622109986895,8.260000228881836,1.3250000476837158,-8.722000122070312,1.3339999914169312,-10.107000350952148,0.847000002861023
1622109986905,5.809999942779541,-0.5609999895095825,-7.703999996185303,1.2940000295639038,-10.08199977874756,0.930999994277954
1622109986915,3.990000009536743,-2.4019999504089355,-7.744999885559082,1.2940000295639038,-10.050000190734863,0.9760000109672546
1622109986924,2.869999885559082,-4.802000045776367,-8.23900032043457,1.2549999952316284,-9.940999984741213,1.0349999666213987
1622109986934,3.009999990463257,-6.60699987411499,-9.69499969482422,1.1770000457763672,-9.83199977874756,1.093999981880188
1622109986944,3.009999990463257,-8.321999549865723,-10.850000381469728,1.1380000114440918,-9.678000450134276,1.121999979019165
1622109986954,2.869999885559082,-9.170000076293944,-12.491999626159668,1.0199999809265137,-9.63199996948242,1.0900000333786013
1622109986964,3.0799999237060547,-9.300000190734863,-14.576000213623049,0.9020000100135804,-9.67099952697754,1.0829999446868896
1622109986974,2.940000057220459,-9.354999542236328,-15.474499702453612,0.8629999756813049,-9.682000160217283,0.921999990940094
1622109986984,2.799999952316284,-9.40999984741211,-16.37299919128418,0.8240000009536743,-9.760000228881836,0.9079999923706054
1622109986994,2.380000114440918,-9.211999893188477,-19.11000061035156,0.8240000009536743,-9.875,0.8880000114440918
1622109987004,2.380000114440918,-9.208000183105469,-21.95199966430664,0.8240000009536743,-9.946000099182127,0.8349999785423278
1622109987014,2.940000057220459,-9.196000099182127,-25.64699935913086,0.8629999756813049,-9.939000129699709,0.7969999909400939
1622109987024,3.1500000953674316,-9.03499984741211,-29.385000228881836,0.9409999847412108,-9.925000190734863,0.7189999818801879
1622109987034,3.0799999237060547,-9.027000427246092,-32.65399932861328,1.0590000152587893,-10.079999923706056,0.6919999718666076
1622109987044,2.5899999141693115,-9.189000129699709,-34.957000732421875,1.0980000495910645,-10.149999618530272,0.6399999856948853
1622109987054,2.0299999713897705,-9.562999725341797,-36.87099838256836,1.1770000457763672,-10.21399974822998,0.5490000247955322
1622109987064,1.5399999618530271,-10.557000160217283,-38.89400100708008,1.2549999952316284,-10.0600004196167,0.5759999752044677
1622109987074,0.7699999809265136,-11.854000091552734,-40.402000427246094,1.215999960899353,-9.852999687194824,0.5329999923706054
1622109987084,-0.699999988079071,-12.260000228881836,-41.32699966430664,1.215999960899353,-9.690999984741213,0.5220000147819519
1622109987094,-1.8899999856948853,-13.13599967956543,-42.404998779296875,1.215999960899353,-9.678000450134276,0.4440000057220459
1622109987104,-2.799999952316284,-13.54599952697754,-44.11199951171875,1.1380000114440918,-9.562000274658203,0.4650000035762786
1622109987114,-3.9200000762939458,-13.411999702453612,-44.87099838256836,1.1770000457763672,-9.51599979400635,0.4329999983310699
1622109987124,-4.340000152587891,-12.703000068664553,-45.66999816894531,1.1770000457763672,-9.593999862670898,0.4189999997615814
1622109987134,-4.269999980926514,-11.477999687194824,-46.16400146484375,1.1770000457763672,-9.663999557495115,0.367000013589859
1622109987144,-4.199999809265137,-10.347000122070312,-46.53400039672851,1.1380000114440918,-9.76599979400635,0.2689999938011169
1622109987154,-4.059999942779541,-9.300999641418455,-47.62900161743164,1.1770000457763672,-10.131999969482422,0.0850000008940696
1622109987164,-5.389999866485596,-8.37600040435791,-48.03400039672851,1.1770000457763672,-10.428000450134276,-0.0460000000894069
1622109987174,-8.119999885559082,-7.560999870300293,-47.819000244140625,1.1770000457763672,-10.460000038146973,-0.0920000001788139
1622109987184,-11.130000114440918,-6.258999824523926,-47.94499969482422,1.215999960899353,-10.406999588012695,-0.1620000004768371
1622109987194,-12.460000038146973,-5.630999565124512,-48.6875,1.2549999952316284,-10.253000259399414,-0.135000005364418
1622109987204,-13.789999961853027,-5.002999782562256,-49.43000030517578,1.215999960899353,-10.116000175476074,-0.2300000041723251
1622109987214,-15.890000343322754,-3.624000072479248,-50.39500045776367,1.1380000114440918,-10.01200008392334,-0.3709999918937683
1622109987224,-17.290000915527344,-2.565999984741211,-50.349998474121094,1.0590000152587893,-9.9350004196167,-0.3580000102519989
1622109987234,-18.270000457763672,-0.5709999799728394,-49.571998596191406,0.9020000100135804,-9.843999862670898,-0.4210000038146972
1622109987244,-18.479999542236328,1.8869999647140503,-47.78799819946289,0.9020000100135804,-9.682000160217283,-0.4329999983310699
1622109987254,-17.989999771118164,5.306000232696533,-46.617000579833984,0.9020000100135804,-9.508000373840332,-0.5210000276565551
1622109987264,-17.219999313354492,8.756999969482422,-45.22700119018555,0.981000006198883,-9.293999671936035,-0.6029999852180481
1622109987274,-15.75,12.888999938964844,-44.07099914550781,1.0199999809265137,-9.210000038146973,-0.6280000209808348
1622109987284,-13.579999923706056,16.530000686645508,-42.150001525878906,1.0980000495910645,-9.163999557495115,-0.6600000262260437
1622109987294,-11.270000457763672,20.10700035095215,-39.45800018310547,1.0980000495910645,-9.041999816894531,-0.6779999732971191
1622109987304,-9.029999732971191,23.177000045776367,-36.7130012512207,1.1380000114440918,-8.958000183105469,-0.703000009059906
1622109987314,-6.019999980926514,26.43400001525879,-33.01100158691406,1.2549999952316284,-8.918999671936035,-0.6959999799728394
1622109987324,-3.009999990463257,29.391000747680664,-28.011999130249023,1.4119999408721924,-8.82800006866455,-0.7599999904632568
1622109987334,0.209999993443489,31.698999404907227,-22.558000564575195,1.569000005722046,-8.821000099182129,-0.7990000247955322
1622109987344,2.940000057220459,33.766998291015625,-18.56800079345703,1.72599995136261,-8.8149995803833,-0.8370000123977661
1622109987354,5.739999771118164,35.215999603271484,-14.687999725341797,1.8830000162124632,-8.821000099182129,-0.7990000247955322
1622109987364,8.260000228881836,36.52199935913086,-11.614999771118164,1.9609999656677248,-8.782999992370605,-0.7919999957084655
1622109987374,11.130000114440918,38.15999984741211,-8.41100025177002,2.0399999618530273,-8.758000373840332,-0.7080000042915344
1622109987384,14.0,39.29199981689453,-3.947000026702881,2.0789999961853027,-8.918999671936035,-0.6959999799728394
1622109987394,16.65999984741211,40.21699905395508,0.481000006198883,2.1570000648498535,-9.222999572753906,-0.5509999990463256
1622109987404,17.780000686645508,40.4900016784668,4.580999851226807,2.1570000648498535,-9.479999542236328,-0.6759999990463256
1622109987414,18.1299991607666,40.137001037597656,7.788000106811523,2.1570000648498535,-9.635000228881836,-0.703000009059906
1622109987424,17.779998779296875,39.72800064086914,9.705999374389648,2.118000030517578,-9.67300033569336,-0.7099999785423278
1622109987434,17.43000030517578,39.319000244140625,11.62399959564209,2.0789999961853027,-9.75100040435791,-0.7239999771118164
1622109987444,15.960000038146973,38.507999420166016,15.81700038909912,1.9609999656677248,-9.75100040435791,-0.7239999771118164
1622109987454,14.699999809265137,37.474998474121094,19.260000228881836,1.8830000162124632,-9.763999938964846,-0.6460000276565551
1622109987464,13.789999961853027,35.95500183105469,21.834999084472656,1.843999981880188,-9.78499984741211,-0.5299999713897705
1622109987474,12.739999771118164,34.58000183105469,22.375,1.843999981880188,-9.829999923706056,-0.4990000128746032
1622109987484,12.039999961853027,33.400001525878906,21.81100082397461,1.8040000200271609,-9.85099983215332,-0.3829999864101409
1622109987494,11.340000152587892,31.964000701904297,21.48699951171875,1.8040000200271609,-9.800999641418455,-0.2150000035762786
1622109987504,10.850000381469728,30.520999908447266,20.805999755859375,1.72599995136261,-9.885000228881836,-0.1889999955892562
1622109987514,10.43000030517578,29.05699920654297,19.836999893188477,1.6080000400543213,-9.878000259399414,-0.2280000001192092
1622109987524,10.010000228881836,27.54400062561035,19.143999099731445,1.6080000400543213,-9.878000259399414,-0.2280000001192092
1622109987534,9.239999771118164,25.67099952697754,17.676000595092773,1.6080000400543213,-9.92300033569336,-0.1959999948740005
1622109987544,8.609999656677246,23.996000289916992,17.097000122070312,1.6080000400543213,-10.04599952697754,-0.1780000030994415
1622109987554,7.420000076293945,22.67799949645996,16.509000778198242,1.569000005722046,-10.053000450134276,-0.1389999985694885
1622109987564,6.090000152587891,20.683000564575195,15.729999542236328,1.569000005722046,-10.13700008392334,-0.1140000000596046
1622109987574,4.900000095367432,18.05500030517578,14.911999702453612,1.491000056266785,-10.079999923706056,0.0149999996647238
1622109987584,4.690000057220459,15.711000442504885,14.498000144958496,1.4509999752044678,-9.932000160217283,0.0810000002384185
1622109987594,4.550000190734863,13.07900047302246,14.104999542236328,1.3339999914169312,-9.753000259399414,0.19200000166893
1622109987604,5.389999866485596,11.052000045776367,13.107999801635742,1.1380000114440918,-9.637000083923342,0.2129999995231628
1622109987614,6.440000057220459,9.32800006866455,11.595999717712402,1.0980000495910645,-9.612000465393066,0.2969999909400939
1622109987624,7.139999866485596,7.945000171661377,9.362000465393066,0.981000006198883,-9.579999923706056,0.3420000076293945
1622109987634,8.1899995803833,6.866000175476074,6.61299991607666,0.9020000100135804,-9.612000465393066,0.2969999909400939
1622109987644,8.890000343322754,5.8520002365112305,4.302000045776367,0.8240000009536743,-9.579999923706056,0.3420000076293945
1622109987654,9.41499996185303,5.4604997634887695,3.0954999923706055,0.7850000262260437,-9.51599979400635,0.4329999983310699
1622109987664,9.9399995803833,5.068999767303467,1.8890000581741333,0.8240000009536743,-9.529999732971191,0.5099999904632568
1622109987674,11.199999809265137,3.8519999980926514,-0.8849999904632568,0.8629999756813049,-9.576000213623049,0.5419999957084655
1622109987684,11.760000228881836,3.049000024795532,-3.5850000381469727,0.9020000100135804,-9.621000289916992,0.5740000009536743
1622109987694,11.829999923706056,2.549999952316284,-5.5920000076293945,0.9020000100135804,-9.697999954223633,0.5600000023841857
1622109987704,11.130000114440918,1.962000012397766,-6.690999984741211,0.9409999847412108,-9.866000175476074,0.6100000143051147
1622109987714,10.289999961853027,1.3739999532699585,-7.789999961853027,0.9020000100135804,-9.904999732971191,0.6039999723434448
1622109987724,9.100000381469728,0.8420000076293945,-8.807999610900879,0.9409999847412108,-9.944000244140623,0.597000002861023
1622109987734,7.420000076293945,-0.0379999987781047,-9.460000038146973,0.981000006198883,-9.859999656677246,0.5720000267028807
1622109987744,6.369999885559082,-0.975000023841858,-10.194000244140623,1.0199999809265137,-9.866000175476074,0.6100000143051147
1622109987754,5.320000171661377,-2.0940001010894775,-9.89400005340576,1.0980000495910645,-9.859999656677246,0.5720000267028807
1622109987764,4.269999980926514,-3.9059998989105225,-9.288999557495115,1.1770000457763672,-9.866000175476074,0.6100000143051147
1622109987774,3.2200000286102295,-6.2129998207092285,-8.701000213623047,1.1770000457763672,-9.937000274658203,0.5580000281333923
1622109987784,2.1700000762939453,-9.083999633789062,-8.140999794006348,1.2549999952316284,-9.897999763488768,0.5649999976158142
1622109987794,1.8899999856948853,-11.55799961090088,-8.222000122070312,1.215999960899353,-9.814000129699709,0.5400000214576721
1622109987804,1.6100000143051147,-13.541000366210938,-7.861000061035157,1.215999960899353,-9.690999984741213,0.5220000147819519
1622109987814,1.399999976158142,-15.178999900817873,-7.439000129699707,1.215999960899353,-9.61400032043457,0.5350000262260437
1622109987824,1.75,-16.64299964904785,-7.198999881744385,1.1770000457763672,-9.562000274658203,0.4650000035762786
1622109987834,1.9600000381469729,-17.586999893188477,-7.081999778747559,1.0980000495910645,-9.60099983215332,0.4580000042915344
1622109987844,1.4700000286102295,-18.22800064086914,-6.270999908447266,1.0590000152587893,-9.715999603271484,0.4379999935626983
1622109987854,0.9100000262260436,-18.183000564575195,-6.120999813079834,0.981000006198883,-9.826000213623049,0.3790000081062316
1622109987864,0.0700000002980232,-17.90399932861328,-6.498000144958496,0.9409999847412108,-9.857000350952148,0.3330000042915344
1622109987874,-0.4550000131130218,-17.747499465942383,-6.577000141143799,0.9020000100135804,-9.888999938964846,0.2879999876022338
1622109987884,-0.9800000190734864,-17.590999603271484,-6.656000137329102,0.9020000100135804,-9.888999938964846,0.2879999876022338
1622109987894,-1.9600000381469729,-17.052000045776367,-6.489999771118164,0.8629999756813049,-9.92099952697754,0.2419999986886978
1622109987904,-3.430000066757202,-16.878000259399414,-6.671999931335449,0.9409999847412108,-9.888999938964846,0.2879999876022338
1622109987914,-4.409999847412109,-16.375,-6.298999786376953,0.9409999847412108,-9.88199996948242,0.248999997973442
1622109987924,-4.760000228881836,-15.819000244140623,-6.627999782562256,0.9409999847412108,-9.836999893188477,0.2169999927282333
1622109987934,-4.96999979019165,-15.664999961853027,-7.0980000495910645,0.9409999847412108,-9.80500030517578,0.2630000114440918
1622109987944,-5.599999904632568,-15.71399974822998,-6.822000026702881,1.0199999809265137,-9.772999763488768,0.3079999983310699
1622109987954,-5.739999771118164,-16.10300064086914,-7.0329999923706055,0.981000006198883,-9.734999656677246,0.3149999976158142
1622109987964,-6.159999847412109,-16.792999267578125,-8.36299991607666,0.981000006198883,-9.734999656677246,0.3149999976158142
1622109987974,-6.090000152587891,-17.445999145507812,-8.690999984741211,1.0199999809265137,-9.76599979400635,0.2689999938011169
1622109987984,-6.300000190734863,-18.082000732421875,-8.305999755859375,0.9409999847412108,-9.727999687194824,0.2759999930858612
1622109987994,-6.369999885559082,-18.645999908447266,-8.333999633789062,0.9409999847412108,-9.720999717712402,0.2380000054836273
1622109988004,-6.440000057220459,-19.472999572753903,-8.479999542236328,0.9020000100135804,-9.675999641418455,0.2060000002384185
1622109988014,-5.739999771118164,-20.02899932861328,-9.359999656677246,0.9409999847412108,-9.71399974822998,0.1990000009536743
1622109988024,-4.96999979019165,-20.44700050354004,-10.215999603271484,0.9409999847412108,-9.682000160217283,0.2440000027418136
1622109988034,-4.269999980926514,-20.804000854492188,-11.416000366210938,0.9409999847412108,-9.656999588012695,0.3289999961853027
1622109988044,-3.009999990463257,-20.989999771118164,-12.373000144958496,0.9409999847412108,-9.67099952697754,0.4059999883174896
1622109988054,-1.9600000381469729,-20.99099922180176,-13.581000328063965,1.0199999809265137,-9.663999557495115,0.367000013589859
1622109988064,-0.7699999809265136,-21.152999877929688,-14.675999641418455,1.0590000152587893,-9.663999557495115,0.367000013589859
1622109988074,0.8399999737739563,-21.55500030517578,-16.025999069213867,1.0980000495910645,-9.67099952697754,0.4059999883174896
1622109988084,1.6449999809265137,-21.24650001525879,-16.966999053955078,1.1380000114440918,-9.678000450134276,0.4440000057220459
1622109988094,2.450000047683716,-20.937999725341797,-17.908000946044922,1.1380000114440918,-9.6850004196167,0.4830000102519989
1622109988104,4.199999809265137,-20.41900062561035,-18.030000686645508,1.1380000114440918,-9.690999984741213,0.5220000147819519
1622109988114,6.090000152587891,-20.006000518798828,-17.957000732421875,1.1770000457763672,-9.652999877929688,0.5289999842643737
1622109988124,7.280000209808349,-19.738000869750977,-18.26499938964844,1.215999960899353,-9.652999877929688,0.5289999842643737
1622109988134,8.260000228881836,-19.03700065612793,-18.211999893188477,1.2549999952316284,-9.645999908447264,0.4900000095367431
1622109988144,8.260000228881836,-18.285999298095703,-17.226999282836914,1.215999960899353,-9.722999572753906,0.4760000109672546
1622109988154,7.070000171661377,-17.520000457763672,-15.527999877929688,1.2549999952316284,-9.83199977874756,0.4169999957084655
1622109988164,5.110000133514404,-17.30900001525879,-13.50100040435791,1.2549999952316284,-9.979999542236328,0.3510000109672546
1622109988174,2.1700000762939453,-16.81800079345703,-11.850000381469728,1.2549999952316284,-10.076000213623049,0.2150000035762786
1622109988184,-0.9800000190734864,-16.614999771118164,-10.18000030517578,1.2940000295639038,-10.152999877929688,0.2010000050067901
1622109988194,-4.130000114440918,-16.408000946044922,-8.9350004196167,1.2549999952316284,-10.107000350952148,0.1700000017881393
1622109988204,-6.510000228881836,-16.66699981689453,-8.270000457763672,1.2549999952316284,-9.965999603271484,0.2739999890327453
1622109988214,-7.630000114440918,-16.951000213623047,-7.467000007629395,1.1770000457763672,-9.760000228881836,0.231000006198883
1622109988224,-7.070000171661377,-16.788999557495117,-6.372000217437744,1.1380000114440918,-9.482000350952148,0.2399999946355819
1622109988234,-5.53000020980835,-15.887999534606934,-5.431000232696533,1.0590000152587893,-9.197999954223633,0.209999993443489
1622109988244,-3.359999895095825,-15.093000411987305,-5.505000114440918,1.0590000152587893,-9.050999641418455,0.2759999930858612
1622109988254,-0.2800000011920929,-14.347000122070312,-6.510000228881836,1.0590000152587893,-9.01900005340576,0.3219999969005584
1622109988264,2.799999952316284,-13.661999702453612,-8.380000114440918,1.0980000495910645,-9.057000160217283,0.3149999976158142
1622109988274,5.460000038146973,-12.461999893188477,-9.94499969482422,1.0980000495910645,-9.15999984741211,0.2169999927282333
1622109988284,7.280000209808349,-11.26200008392334,-11.51099967956543,1.0980000495910645,-9.276000022888184,0.1969999969005584
1622109988294,8.050000190734863,-10.670000076293944,-12.04599952697754,1.1770000457763672,-9.345999717712402,0.1439999938011169
1622109988304,8.819999694824219,-10.078000068664553,-12.581000328063965,1.215999960899353,-9.416999816894531,0.0920000001788139
1622109988314,9.800000190734863,-9.477999687194824,-12.760000228881836,1.215999960899353,-9.494000434875488,0.0790000036358833
1622109988324,10.359999656677246,-8.670999526977539,-12.902000427246094,1.2549999952316284,-9.538999557495115,0.1099999994039535
1622109988334,10.359999656677246,-7.592999935150147,-12.569000244140623,1.2940000295639038,-9.531999588012695,0.0719999969005584
1622109988344,10.989999771118164,-7.324999809265136,-11.668999671936035,1.3339999914169312,-9.513999938964846,0.1940000057220459
1622109988354,11.760000228881836,-7.025000095367432,-10.550000190734863,1.2940000295639038,-9.451000213623049,0.2849999964237213
1622109988364,13.4399995803833,-6.2870001792907715,-9.496000289916992,1.215999960899353,-9.366999626159668,0.2599999904632568
1622109988374,15.68000030517578,-5.823999881744385,-7.282000064849853,1.2549999952316284,-9.3100004196167,0.3899999856948852
1622109988384,18.40999984741211,-4.855000019073486,-5.120999813079834,1.1770000457763672,-9.413999557495115,0.531000018119812
1622109988394,20.299999237060547,-3.950000047683716,-3.3980000019073486,1.0980000495910645,-9.51900005340576,0.6719999909400939
1622109988404,21.979999542236328,-2.7420001029968266,-3.3980000019073486,1.1770000457763672,-9.602999687194824,0.6970000267028807
1622109988414,22.81999969482422,-1.6059999465942385,-4.192999839782715,1.215999960899353,-9.694000244140623,0.7599999904632568
1622109988424,22.81999969482422,-0.5519999861717224,-6.138999938964844,1.2940000295639038,-9.822999954223633,0.8169999718666076
1622109988434,21.280000686645508,0.3680000007152557,-8.53600025177002,1.3730000257492063,-10.015999794006348,0.7829999923706054
1622109988444,18.829999923706055,1.0770000219345093,-9.335000038146973,1.3730000257492063,-10.138999938964844,0.8009999990463256
1622109988454,16.3799991607666,1.5720000267028809,-8.109999656677246,1.3730000257492063,-10.255000114440918,0.781000018119812
1622109988464,12.880000114440918,1.25600004196167,-5.109000205993652,1.3339999914169312,-10.274999618530272,0.8970000147819519
1622109988474,9.869999885559082,0.6159999966621398,-1.881999969482422,1.3339999914169312,-10.178000450134276,0.7940000295639038
1622109988484,7.139999866485596,0.4990000128746032,2.006999969482422,1.3339999914169312,-10.11400032043457,0.8849999904632568
1622109988494,5.670000076293945,0.6369999647140502,3.240000009536743,1.215999960899353,-10.069000244140623,0.8539999723434448
1622109988504,4.199999809265137,0.774999976158142,4.4730000495910645,1.0980000495910645,-9.977999687194824,0.7900000214576721
1622109988514,2.0299999713897705,1.4479999542236328,5.089000225067139,1.0980000495910645,-9.899999618530272,0.8040000200271606
1622109988524,0.0,2.5510001182556152,5.2829999923706055,1.0590000152587893,-9.78499984741211,0.8240000009536743
1622109988534,-1.9600000381469729,4.25,5.724999904632568,1.0199999809265137,-9.746000289916992,0.8309999704360961
1622109988544,-3.009999990463257,5.506999969482422,5.448999881744385,1.0199999809265137,-9.699999809265137,0.7990000247955322
1622109988554,-3.5,6.931000232696533,4.633999824523926,0.981000006198883,-9.70699977874756,0.8379999995231628
1622109988563,-3.849999904632568,8.220000267028809,4.577000141143799,0.981000006198883,-9.699999809265137,0.7990000247955322
1622109988573,-3.9200000762939458,9.210000038146973,5.817999839782715,0.9409999847412108,-9.623000144958496,0.8130000233650208
1622109988583,-3.9200000762939458,9.54599952697754,6.730000019073486,0.9409999847412108,-9.590999603271484,0.8579999804496765
1622109988593,-3.430000066757202,9.960000038146973,8.01099967956543,0.8629999756813049,-9.553000450134276,0.865000009536743
1622109988603,-2.7300000190734863,10.159000396728516,8.89900016784668,0.9020000100135804,-9.597999572753906,0.8970000147819519
1622109988613,-2.240000009536743,10.012999534606934,9.72700023651123,0.8629999756813049,-9.699999809265137,0.7990000247955322
1622109988623,-2.1700000762939453,10.329999923706056,10.35099983215332,0.7850000262260437,-9.8100004196167,0.740000009536743
1622109988633,-1.5399999618530271,10.442999839782717,10.512999534606934,0.6280000209808348,-9.788999557495115,0.6240000128746032
1622109988643,-0.4900000095367431,10.531999588012695,9.604999542236328,0.5879999995231628,-9.704999923706056,0.5989999771118164
1622109988653,0.5600000023841857,11.074999809265137,6.927999973297119,0.5490000247955322,-9.67300033569336,0.6439999938011169
1622109988663,0.4900000095367431,12.109000205993652,3.486000061035156,0.6280000209808348,-9.781999588012695,0.5849999785423278
1622109988673,0.209999993443489,12.802000045776367,-0.4440000057220459,0.7059999704360961,-9.93000030517578,0.5189999938011169
1622109988683,-0.6299999952316284,13.182000160217283,-4.215000152587891,0.8240000009536743,-10.006999969482422,0.5059999823570251
1622109988693,-1.680000066757202,13.259000778198242,-5.054500102996826,0.9020000100135804,-9.961999893188477,0.4740000069141387
1622109988703,-2.7300000190734863,13.336000442504885,-5.894000053405762,0.981000006198883,-9.90999984741211,0.4040000140666961
1622109988713,-4.550000190734863,12.824999809265137,-5.414999961853027,0.981000006198883,-9.762000083923342,0.4690000116825103
1622109988723,-5.320000171661377,12.04300022125244,-2.99399995803833,0.981000006198883,-9.562000274658203,0.4650000035762786
1622109988733,-5.809999942779541,10.847000122070312,0.5619999766349792,0.981000006198883,-9.460000038146973,0.5630000233650208
1622109988743,-5.53000020980835,9.538000106811523,3.9560000896453857,0.8629999756813049,-9.428000450134276,0.6079999804496765
1622109988753,-4.130000114440918,8.597000122070312,6.065000057220459,0.8629999756813049,-9.440999984741213,0.6850000023841857
1622109988763,-2.450000047683716,8.288999557495117,5.796999931335449,0.8629999756813049,-9.531999588012695,0.7490000128746032
1622109988773,-0.699999988079071,8.51200008392334,4.13100004196167,0.8629999756813049,-9.661999702453612,0.8059999942779541
1622109988783,0.9800000190734864,8.621000289916992,2.302000045776367,0.8240000009536743,-9.89400005340576,0.7649999856948853
1622109988793,1.6799999475479126,9.293999671936035,0.5019999742507933,0.7850000262260437,-10.041000366210938,0.6990000009536743
1622109988803,1.6100000143051147,9.821000099182127,-0.4720000028610229,0.7850000262260437,-10.079999923706056,0.6919999718666076
1622109988813,0.7699999809265136,9.890000343322754,-0.4600000083446502,0.7450000047683715,-10.0600004196167,0.5759999752044677
1622109988823,-0.4900000095367431,9.9350004196167,0.8989999890327453,0.6669999957084655,-10.123000144958496,0.4850000143051147
1622109988833,-3.009999990463257,9.303000450134276,3.2750000953674316,0.6280000209808348,-10.20699977874756,0.5099999904632568
1622109988843,-6.230000019073486,8.694999694824219,5.513999938964844,0.6669999957084655,-10.168999671936035,0.5170000195503234
1622109988853,-9.520000457763674,7.511000156402587,6.584000110626221,0.7059999704360961,-10.199999809265137,0.4720000028610229
1622109988863,-12.670000076293944,6.285999774932861,7.078999996185303,0.7450000047683715,-10.284999847412108,0.4970000088214874
1622109988873,-16.100000381469727,5.333000183105469,8.04800033569336,0.7850000262260437,-10.211999893188477,0.3100000023841857
1622109988883,-19.670000076293945,4.303999900817871,9.857000350952148,0.8240000009536743,-10.109999656677246,0.4079999923706054
1622109988893,-20.75500106811523,3.5840001106262207,10.51200008392334,0.8240000009536743,-9.916000366210936,0.44200000166893
1622109988903,-21.84000015258789,2.864000082015991,11.166999816894531,0.7850000262260437,-9.89099979400635,0.5260000228881835
1622109988913,-23.799999237060547,2.1989998817443848,12.116000175476074,0.7450000047683715,-9.697999954223633,0.5600000023841857
1622109988923,-24.709999084472656,1.5709999799728394,14.06700038909912,0.6280000209808348,-9.58899974822998,0.6190000176429749
1622109988933,-24.36000061035156,1.6200000047683716,14.99899959564209,0.5490000247955322,-9.58199977874756,0.5809999704360961
1622109988943,-24.010000228881836,2.053999900817871,15.359999656677246,0.4709999859333038,-9.621000289916992,0.5740000009536743
1622109988953,-23.170000076293945,3.5299999713897705,15.052000045776367,0.3919999897480011,-9.576000213623049,0.5419999957084655
1622109988963,-22.190000534057617,5.71999979019165,14.72700023651123,0.3140000104904174,-9.55500030517578,0.4259999990463256
1622109988973,-21.209999084472656,7.94600009918213,14.19499969482422,0.3140000104904174,-9.572999954223633,0.3039999902248382
1622109988983,-20.020000457763672,10.140000343322754,14.652999877929688,0.2349999994039535,-9.5600004196167,0.2259999960660934
1622109988993,-18.479999542236328,12.642000198364258,16.586999893188477,0.1570000052452087,-9.50699996948242,0.1560000032186508
1622109989003,-17.149999618530273,14.324999809265137,18.73200035095215,0.0390000008046627,-9.494000434875488,0.0790000036358833
1622109989013,-14.979999542236328,15.942999839782717,20.43899917602539,-0.0390000008046627,-9.40999984741211,0.0540000014007091
1622109989023,-12.739999771118164,17.367000579833984,22.041000366210938,-0.0780000016093254,-9.40999984741211,0.0540000014007091
1622109989033,-10.149999618530272,18.39699935913086,23.85700035095215,-0.1570000052452087,-9.326000213623049,0.0289999991655349
1622109989043,-7.489999771118165,19.70299911499023,24.513999938964844,-0.2750000059604644,-9.402999877929688,0.0149999996647238
1622109989053,-5.110000133514404,20.70800018310547,24.051000595092773,-0.2750000059604644,-9.44200038909912,0.0080000003799796
1622109989063,-3.5,21.45800018310547,22.6200008392334,-0.3140000104904174,-9.479999542236328,0.0010000000474974
1622109989073,-3.009999990463257,22.402999877929688,20.084999084472656,-0.3529999852180481,-9.467000007629396,-0.0759999975562095
1622109989083,-2.7300000190734863,23.14800071716309,16.663000106811523,-0.3529999852180481,-9.569000244140623,-0.1739999949932098
1622109989093,-2.869999885559082,23.373001098632812,14.78350067138672,-0.3919999897480011,-9.6850004196167,-0.1940000057220459
1622109989103,-3.009999990463257,23.597999572753903,12.904000282287598,-0.4309999942779541,-9.814000129699709,-0.1369999945163726
1622109989113,-2.7300000190734863,23.38999938964844,9.241999626159668,-0.3919999897480011,-9.897999763488768,-0.1120000034570694
1622109989123,-3.359999895095825,23.25200080871582,5.5929999351501465,-0.3529999852180481,-9.968999862670898,-0.164000004529953
1622109989133,-4.199999809265137,22.229999542236328,2.924999952316284,-0.3140000104904174,-10.006999969482422,-0.1710000038146972
1622109989143,-5.320000171661377,21.073999404907227,1.0149999856948853,-0.3529999852180481,-9.987000465393066,-0.2870000004768371
1622109989153,-7.070000171661377,19.167999267578125,-1.8799999952316284,-0.3140000104904174,-9.994000434875488,-0.248999997973442
1622109989163,-8.609999656677246,17.391000747680664,-5.107999801635742,-0.2750000059604644,-9.94200038909912,-0.3190000057220459
1622109989173,-10.010000228881836,16.06100082397461,-8.043000221252441,-0.2750000059604644,-9.916999816894531,-0.2349999994039535
1622109989183,-11.0600004196167,14.369000434875488,-10.545000076293944,-0.3140000104904174,-9.83899974822998,-0.221000000834465
1622109989193,-11.619999885559082,13.180999755859377,-12.673999786376951,-0.2750000059604644,-9.762000083923342,-0.2080000042915344
1622109989203,-12.109999656677246,12.175000190734863,-14.628000259399414,-0.3140000104904174,-9.652999877929688,-0.1490000039339065
1622109989213,-11.479999542236328,11.246000289916992,-16.21299934387207,-0.3140000104904174,-9.536999702453612,-0.1280000060796737
1622109989223,-10.43000030517578,11.100000381469728,-17.80299949645996,-0.3140000104904174,-9.543999671936035,-0.0900000035762786
1622109989233,-9.869999885559082,11.493000030517578,-19.22599983215332,-0.3529999852180481,-9.58899974822998,-0.0579999983310699
1622109989243,-9.3100004196167,11.996000289916992,-20.062000274658203,-0.3529999852180481,-9.666999816894531,-0.0710000023245811
1622109989253,-8.960000038146973,13.05799961090088,-21.650999069213867,-0.3529999852180481,-9.65999984741211,-0.1099999994039535
1622109989263,-8.75,13.852999687194824,-22.933000564575195,-0.3140000104904174,-9.704999923706056,-0.0780000016093254
1622109989273,-8.680000305175781,15.081000328063965,-23.854000091552734,-0.2750000059604644,-9.697999954223633,-0.1169999986886978
1622109989283,-8.539999961853027,15.72599983215332,-23.88249969482422,-0.2750000059604644,-9.69200038909912,-0.1550000011920929
1622109989293,-8.399999618530273,16.371000289916992,-23.910999298095703,-0.2349999994039535,-9.755000114440918,-0.2460000067949295
1622109989303,-8.119999885559082,17.356000900268555,-24.660999298095703,-0.1959999948740005,-9.734999656677246,-0.3619999885559082
1622109989313,-8.050000190734863,18.187000274658203,-24.94099998474121,-0.1180000007152557,-9.857000350952148,-0.3440000116825103
1622109989323,-8.399999618530273,19.285999298095703,-25.52899932861328,-0.1180000007152557,-9.928000450134276,-0.3959999978542327
1622109989333,-9.3100004196167,20.59600067138672,-25.29800033569336,-0.1180000007152557,-9.92099952697754,-0.4350000023841857
1622109989343,-10.220000267028809,21.516000747680664,-25.277999877929688,-0.1180000007152557,-9.991999626159668,-0.4869999885559082
1622109989353,-11.340000152587892,22.882999420166016,-24.965999603271484,-0.0780000016093254,-10.02299976348877,-0.5329999923706054
1622109989363,-12.8100004196167,24.19300079345703,-24.73500061035156,-0.0780000016093254,-9.95300006866455,-0.4799999892711639
1622109989373,-13.720000267028809,25.59600067138672,-24.6299991607666,-0.0780000016093254,-9.862000465393066,-0.5440000295639038
1622109989383,-14.210000038146973,26.906000137329105,-24.39900016784668,-0.0390000008046627,-9.829999923706056,-0.4990000128746032
1622109989393,-14.06999969482422,28.76300048828125,-23.645000457763672,-0.0390000008046627,-9.822999954223633,-0.537000000476837
1622109989403,-13.93000030517578,30.90800094604492,-22.910999298095703,-0.0780000016093254,-9.78499984741211,-0.5299999713897705
1622109989413,-13.4399995803833,32.801998138427734,-22.36400032043457,-0.1180000007152557,-9.668999671936035,-0.5099999904632568
1622109989423,-12.25,35.44599914550781,-22.040000915527344,-0.1570000052452087,-9.553000450134276,-0.488999992609024
1622109989433,-10.640000343322754,39.11100006103515,-21.464000701904297,-0.0390000008046627,-9.527999877929688,-0.4050000011920929
1622109989443,-8.680000305175781,42.108001708984375,-19.513999938964844,-0.0390000008046627,-9.345999717712402,-0.5329999923706054
1622109989453,-5.809999942779541,44.95899963378906,-17.945999145507812,0.0780000016093254,-9.276000022888184,-0.4799999892711639
1622109989463,-2.380000114440918,46.79600143432618,-16.270999908447266,0.2750000059604644,-9.197999954223633,-0.4670000076293945
1622109989473,0.699999988079071,47.595001220703125,-14.352999687194824,0.5490000247955322,-9.276000022888184,-0.4799999892711639
1622109989483,3.2200000286102295,47.55099868774414,-12.086000442504885,0.8629999756813049,-9.444000244140623,-0.4300000071525573
1622109989493,4.409999847412109,46.13600158691406,-9.706000328063965,1.1380000114440918,-9.630000114440918,-0.5030000209808348
1622109989503,4.585000038146973,44.46150207519531,-8.472999572753906,1.4509999752044678,-9.71399974822998,-0.4779999852180481
1622109989513,4.760000228881836,42.7869987487793,-7.239999771118165,1.6480000019073486,-9.753000259399414,-0.4850000143051147
1622109989523,4.900000095367432,37.87699890136719,-5.191999912261963,1.6480000019073486,-9.753000259399414,-0.4850000143051147
1622109989533,4.550000190734863,32.0099983215332,-4.164999961853027,1.7649999856948853,-9.79800033569336,-0.453000009059906
1622109989543,4.130000114440918,25.618999481201172,-2.5910000801086426,1.843999981880188,-9.79800033569336,-0.453000009059906
1622109989553,3.430000066757202,19.114999771118164,-1.1790000200271606,1.8830000162124632,-9.79800033569336,-0.453000009059906
1622109989563,2.6600000858306885,12.168999671936035,-0.4839999973773956,1.7649999856948853,-9.79800033569336,-0.453000009059906
1622109989573,2.1700000762939453,5.408999919891357,-0.0410000011324882,1.7649999856948853,-9.80500030517578,-0.414000004529953
1622109989583,1.6799999475479126,-1.2489999532699585,0.6330000162124633,1.6480000019073486,-9.826000213623049,-0.2989999949932098
1622109989593,1.0499999523162842,-8.883999824523926,1.2059999704360962,1.6080000400543213,-9.772999763488768,-0.3689999878406524
1622109989603,0.209999993443489,-16.354000091552734,1.2389999628067017,1.491000056266785,-9.767000198364256,-0.4079999923706054
1622109989613,-0.0700000002980232,-22.893999099731445,0.4410000145435333,1.3339999914169312,-9.843999862670898,-0.4210000038146972
1622109989623,-0.8399999737739563,-28.304000854492188,-0.7260000109672546,1.0590000152587893,-9.88199996948242,-0.4280000030994415
1622109989633,-2.869999885559082,-31.924999237060547,-2.359999895095825,0.7059999704360961,-9.9350004196167,-0.3580000102519989
1622109989643,-6.650000095367432,-33.22700119018555,-4.651000022888184,0.3140000104904174,-10.036999702453612,-0.4550000131130218
1622109989653,-10.289999961853027,-31.718999862670895,-7.1570000648498535,0.0,-10.17300033569336,-0.3600000143051147
1622109989663,-13.369999885559082,-27.45400047302246,-9.177000045776367,-0.3529999852180481,-10.263999938964844,-0.2960000038146972
1622109989673,-16.8700008392334,-21.719999313354492,-9.44499969482422,-0.7450000047683715,-10.303000450134276,-0.3030000030994415
1622109989683,-19.809999465942383,-13.342000007629396,-8.180999755859375,-1.0980000495910645,-10.3100004196167,-0.2639999985694885
1622109989693,-22.68000030517578,-2.7869999408721924,-5.965000152587891,-1.2940000295639038,-10.3100004196167,-0.2639999985694885
1622109989703,-25.549999237060547,8.696999549865723,-3.371000051498413,-1.4509999752044678,-10.291000366210938,-0.1420000046491622
1622109989713,-26.98500061035156,13.907999038696287,-1.2795000076293943,-1.2940000295639038,-10.291000366210938,-0.1420000046491622
1622109989723,-28.420000076293945,19.118999481201172,0.8119999766349792,-1.0590000152587893,-10.220999717712402,-0.0890000015497207
1622109989733,-30.8700008392334,27.07200050354004,5.697999954223633,-0.6280000209808348,-10.13700008392334,-0.1140000000596046
1622109989743,-32.689998626708984,31.88999938964844,9.81700038909912,0.0390000008046627,-10.038999557495115,-0.2169999927282333
1622109989753,-32.900001525878906,32.867000579833984,12.335000038146973,0.7850000262260437,-9.80500030517578,-0.414000004529953
1622109989763,-32.7599983215332,27.729999542236328,14.059000015258787,1.4509999752044678,-9.694000244140623,-0.5939999818801879
1622109989773,-31.850000381469727,17.591999053955078,13.906000137329102,2.118000030517578,-9.718999862670898,-0.6779999732971191
1622109989783,-31.920000076293945,3.9309999942779545,9.152000427246092,2.628000020980835,-9.782999992370604,-0.7689999938011169
1622109989793,-33.529998779296875,-13.161999702453612,3.2939999103546143,2.941999912261963,-10.053000450134276,-0.8169999718666076
1622109989803,-36.68000030517578,-30.979999542236328,-1.2690000534057615,2.9030001163482666,-10.123000144958496,-0.8690000176429749
1622109989813,-38.849998474121094,-48.24300003051758,-4.953000068664551,2.3929998874664307,-9.657999992370604,-1.0260000228881836
1622109989823,-36.75,-60.87900161743164,-9.88199996948242,1.491000056266785,-9.18000030517578,-1.0210000276565552
1622109989833,-32.7599983215332,-65.84300231933594,-15.590000152587892,0.4309999942779541,-9.026000022888184,-0.9940000176429749
1622109989843,-29.399999618530273,-62.98500061035156,-19.707000732421875,-0.5879999995231628,-9.102999687194824,-1.0080000162124634
1622109989853,-25.969999313354492,-53.917999267578125,-21.945999145507812,-1.4119999408721924,-9.173999786376951,-1.059999942779541
1622109989863,-21.13999938964844,-41.060001373291016,-21.10099983215332,-2.118000030517578,-9.083000183105469,-1.1239999532699585
1622109989873,-17.709999084472656,-25.26499938964844,-15.54300022125244,-2.746000051498413,-9.107999801635742,-1.2079999446868896
1622109989883,-17.360000610351562,-6.295000076293945,-8.644000053405762,-2.9809999465942383,-9.444000244140623,-1.1080000400543213
1622109989893,-19.809999465942383,13.230999946594238,-4.491000175476074,-2.9809999465942383,-9.951000213623049,-1.3960000276565552
1622109989903,-23.3799991607666,31.07699966430664,-2.9079999923706055,-2.8239998817443848,-10.326000213623049,-1.3029999732971191
1622109989913,-26.809999465942383,44.53200149536133,-0.606000006198883,-2.313999891281128,-10.234999656677246,-1.3669999837875366
1622109989923,-27.93000030517578,53.51800155639648,4.460999965667725,-1.491000056266785,-10.095999717712402,-1.7009999752044678
1622109989933,-28.700000762939453,55.051998138427734,9.06700038909912,-0.4309999942779541,-10.064000129699709,-1.6549999713897705
1622109989943,-29.260000228881836,52.114498138427734,10.61050033569336,0.4709999859333038,-9.845999717712402,-1.5369999408721924
1622109989953,-29.81999969482422,49.176998138427734,12.154000282287598,1.0590000152587893,-9.645999908447264,-1.5420000553131104
1622109989963,-28.84000015258789,39.34700012207031,12.269000053405762,2.0399999618530273,-9.095999717712402,-1.7230000495910645
1622109989973,-25.059999465942383,27.113000869750977,11.107000350952148,2.313999891281128,-9.258000373840332,-1.712000012397766
1622109989983,-20.719999313354492,14.097000122070312,9.949000358581545,2.313999891281128,-9.604999542236328,-1.7730000019073486
1622109989993,-17.850000381469727,1.7330000400543213,9.119000434875488,2.118000030517578,-9.489999771118164,-1.753000020980835
1622109990003,-17.360000610351562,-10.55799961090088,5.459000110626221,1.8040000200271609,-9.210000038146973,-1.98199999332428
1622109990013,-15.890000343322754,-21.81599998474121,0.7730000019073486,1.3339999914169312,-9.229999542236328,-1.8669999837875368
1622109990023,-13.789999961853027,-29.868999481201172,-1.9259999990463257,0.7850000262260437,-9.02400016784668,-1.9099999666213987
1622109990033,-12.880000114440918,-35.01100158691406,-3.4010000228881836,0.1959999948740005,-9.048999786376951,-1.99399995803833
1622109990043,-11.760000228881836,-36.95800018310547,-5.664000034332275,-0.3919999897480011,-9.16499996185303,-2.013999938964844
1622109990053,-10.989999771118164,-35.465999603271484,-7.675000190734864,-0.9020000100135804,-9.281000137329102,-2.0350000858306885
1622109990063,-11.479999542236328,-31.954999923706055,-9.04599952697754,-1.2549999952316284,-9.253000259399414,-2.188999891281128
1622109990073,-11.760000228881836,-26.128000259399418,-9.4399995803833,-1.569000005722046,-9.137000083923342,-2.1689999103546143
1622109990083,-10.710000038146973,-18.099000930786133,-7.810999870300293,-1.72599995136261,-9.098999977111816,-2.1619999408721924
1622109990093,-8.75,-8.654000282287598,-6.145999908447266,-1.8040000200271609,-9.053000450134276,-2.194000005722046
1622109990103,-6.090000152587891,1.8079999685287476,-5.01200008392334,-1.7649999856948853,-8.982999801635742,-2.1419999599456787
1622109990113,-3.0799999237060547,10.16100025177002,-3.6099998950958256,-1.4509999752044678,-8.699000358581543,-2.1710000038146973
1622109990123,1.9600000381469729,15.835000038146973,-1.1169999837875366,-0.9020000100135804,-8.324000358581543,-2.263999938964844
1622109990133,8.75,18.42200088500977,3.9590001106262207,-0.1959999948740005,-8.182999610900879,-2.1600000858306885
1622109990143,16.030000686645508,15.901000022888184,10.196000099182127,0.4309999942779541,-8.21500015258789,-2.2049999237060547
1622109990153,22.049999237060547,8.944000244140625,17.000999450683594,0.9020000100135804,-8.401000022888184,-2.2780001163482666
1622109990163,24.920000076293945,4.065999984741211,19.26849937438965,1.3339999914169312,-8.555999755859375,-2.305000066757202
1622109990173,27.790000915527344,-0.8119999766349792,21.535999298095703,1.72599995136261,-8.586999893188477,-2.3510000705718994
1622109990183,32.900001525878906,-12.284000396728516,21.290000915527344,2.0789999961853027,-8.741999626159668,-2.378000020980835
1622109990193,36.540000915527344,-24.867000579833984,19.28499984741211,2.2750000953674316,-8.968999862670898,-2.2190001010894775
1622109990202,37.380001068115234,-39.43199920654297,18.849000930786133,2.197000026702881,-9.234999656677246,-2.066999912261963
1622109990212,37.029998779296875,-55.055999755859375,19.57699966430664,1.687000036239624,-9.416999816894531,-1.9390000104904177
1622109990223,35.4900016784668,-68.85099792480469,17.99799919128418,0.9020000100135804,-9.541999816894531,-1.6820000410079956
1622109990233,33.599998474121094,-78.24299621582033,13.21399974822998,0.0390000008046627,-9.6850004196167,-1.5479999780654907
1622109990242,31.079999923706055,-81.36299896240233,3.494999885559082,-0.7450000047683715,-9.904999732971191,-1.4279999732971191
1622109990252,27.440000534057617,-79.2959976196289,-7.015999794006348,-1.569000005722046,-10.17099952697754,-1.2760000228881836
1622109990262,24.079999923706055,-73.86799621582033,-14.020000457763672,-2.3929998874664307,-10.18000030517578,-0.9980000257492064
1622109990272,21.280000686645508,-64.69200134277344,-16.8799991607666,-3.25600004196167,-9.961999893188477,-0.8799999952316284
1622109990282,19.809999465942383,-50.7140007019043,-18.750999450683594,-4.079999923706055,-9.814000129699709,-0.8140000104904174
1622109990292,19.459999084472656,-32.2239990234375,-20.82200050354004,-4.550000190734863,-9.880000114440918,-0.6669999957084655
1622109990302,19.11000061035156,-10.031000137329102,-22.52400016784668,-4.824999809265137,-9.996000289916992,-0.6869999766349792
1622109990312,19.11000061035156,13.892999649047852,-22.35700035095215,-4.785999774932861,-10.112000465393066,-0.7080000042915344
1622109990322,19.38999938964844,35.92900085449219,-19.538000106811523,-4.590000152587891,-10.112000465393066,-0.7080000042915344
1622109990332,20.020000457763672,55.685001373291016,-15.486000061035156,-4.276000022888184,-9.982000350952148,-0.7639999985694885
1622109990342,20.510000228881836,72.38400268554688,-13.038999557495115,-3.7269999980926514,-9.97599983215332,-0.8029999732971191
1622109990352,20.299999237060547,84.6259994506836,-11.520000457763672,-2.864000082015991,-9.951000213623049,-0.7189999818801879
1622109990362,18.969999313354492,91.48699951171876,-9.3149995803833,-0.7850000262260437,-9.996000289916992,-0.6869999766349792
1622109990372,17.920000076293945,91.59500122070312,-6.701499938964844,0.0780000016093254,-10.027999877929688,-0.7329999804496765
1622109990382,16.8700008392334,91.7030029296875,-4.0879998207092285,0.7450000047683715,-10.144000053405762,-0.7530000209808348
1622109990392,14.140000343322754,86.30699920654298,0.7179999947547911,1.4119999408721924,-10.413999557495115,-0.8009999990463256
1622109990402,11.130000114440918,76.62000274658203,4.056000232696533,2.000999927520752,-10.491000175476074,-0.8140000104904174
1622109990412,7.210000038146973,65.31400299072266,4.480000019073486,2.431999921798706,-10.401000022888184,-0.8780000209808348
1622109990422,1.8200000524520872,51.11000061035156,3.6099998950958256,2.549999952316284,-10.20699977874756,-0.8439999818801879
1622109990432,-3.5,34.459999084472656,3.303999900817871,2.431999921798706,-10.071000099182127,-0.9390000104904174
1622109990442,-7.0,16.14299964904785,3.9839999675750737,1.8830000162124632,-10.006999969482422,-0.8479999899864196
1622109990452,-9.729999542236328,-1.2319999933242798,3.763000011444092,1.215999960899353,-9.845999717712402,-0.8600000143051147
1622109990462,-11.550000190734863,-15.36400032043457,1.2710000276565552,0.5490000247955322,-9.652999877929688,-0.8259999752044677
1622109990472,-12.529999732971191,-24.85300064086914,-1.7519999742507937,-0.2750000059604644,-9.607999801635742,-0.8579999804496765
1622109990482,-12.390000343322754,-29.326000213623047,-3.3940000534057617,-1.0980000495910645,-9.491999626159668,-0.8370000123977661
1622109990492,-11.409999847412108,-29.739999771118164,-4.675000190734863,-1.8040000200271609,-9.35099983215332,-0.7329999804496765
1622109990502,-8.960000038146973,-25.722000122070312,-7.308000087738037,-2.3540000915527344,-9.234999656677246,-0.7120000123977661
1622109990512,-5.599999904632568,-17.791000366210938,-11.168999671936035,-2.7070000171661377,-9.260000228881836,-0.7960000038146972
1622109990522,-2.940000057220459,-7.105999946594238,-15.32699966430664,-2.7850000858306885,-9.407999992370604,-0.8619999885559082
1622109990532,-0.699999988079071,5.199999809265137,-18.20400047302246,-2.7850000858306885,-9.536999702453612,-0.8050000071525573
1622109990542,-0.1400000005960464,16.485000610351562,-20.12299919128418,-2.7070000171661377,-9.633000373840332,-0.9419999718666076
1622109990552,-0.6299999952316284,26.979000091552734,-21.187000274658203,-2.3929998874664307,-9.612000465393066,-1.0579999685287476
1622109990562,-0.9800000190734864,35.71699905395508,-21.565000534057617,-2.0399999618530273,-9.520999908447264,-1.1210000514984133
1622109990572,-0.7699999809265136,38.96099853515625,-21.41950035095215,-1.6080000400543213,-9.437000274658203,-1.1460000276565552
1622109990582,-0.5600000023841857,42.20500183105469,-21.27400016784668,-1.0980000495910645,-9.392000198364256,-1.1779999732971191
1622109990592,0.2800000011920929,46.220001220703125,-21.06399917602539,-0.4309999942779541,-9.385000228881836,-1.2170000076293943
1622109990602,1.2599999904632568,47.40800094604492,-21.35199928283691,0.1959999948740005,-9.385000228881836,-1.2170000076293943
1622109990612,1.6100000143051147,44.999000549316406,-20.9950008392334,0.7059999704360961,-9.378000259399414,-1.2549999952316284
1622109990622,1.8200000524520872,38.34099960327149,-20.320999145507812,1.0980000495910645,-9.416999816894531,-1.2619999647140503
1622109990632,2.5899999141693115,28.16699981689453,-19.058000564575195,1.3730000257492063,-9.293999671936035,-1.2799999713897705
1622109990642,4.059999942779541,16.285999298095703,-18.593999862670895,1.4509999752044678,-9.262000083923342,-1.2350000143051147
1622109990652,6.510000228881836,4.150000095367432,-17.891000747680664,1.3730000257492063,-9.237000465393066,-1.1510000228881836
1622109990662,9.380000114440918,-6.8429999351501465,-18.833999633789062,1.1380000114440918,-9.314000129699709,-1.1640000343322754
1622109990672,11.970000267028809,-15.13599967956543,-20.58099937438965,0.8629999756813049,-9.392000198364256,-1.1779999732971191
1622109990682,13.93000030517578,-21.78300094604492,-23.60099983215332,0.4309999942779541,-9.513999938964846,-1.1599999666213987
1622109990692,15.539999961853027,-26.15800094604492,-25.79400062561035,-0.0390000008046627,-9.553000450134276,-1.1670000553131104
1622109990702,15.81999969482422,-27.378999710083008,-26.933000564575195,-0.6280000209808348,-9.527999877929688,-1.0829999446868896
1622109990712,16.239999771118164,-25.375999450683594,-28.21500015258789,-1.1380000114440918,-9.579999923706056,-1.0119999647140503
1622109990722,16.520000457763672,-18.718000411987305,-28.888999938964844,-1.569000005722046,-9.710000038146973,-0.9549999833106994
1622109990732,16.100000381469727,-8.645000457763672,-29.173999786376953,-2.1570000648498535,-10.019000053405762,-1.0099999904632568
1622109990742,15.329999923706056,3.6289999485015874,-28.645000457763672,-2.313999891281128,-10.109999656677246,-0.9459999799728392
1622109990752,14.210000038146973,16.46299934387207,-27.660999298095703,-2.236000061035156,-10.154999732971191,-0.9139999747276306
1622109990762,12.25,28.937000274658203,-26.243999481201172,-1.9609999656677248,-10.401000022888184,-0.8780000209808348
1622109990772,8.890000343322754,40.14899826049805,-24.125,-1.6080000400543213,-10.659999847412108,-0.7639999985694885
1622109990782,2.0999999046325684,49.46799850463867,-20.13599967956543,-1.0980000495910645,-10.911999702453612,-0.6890000104904174
1622109990792,-2.065000057220459,53.01649856567382,-18.69300079345703,-0.5879999995231628,-11.093999862670898,-0.5619999766349792
1622109990802,-6.230000019073486,56.564998626708984,-17.25,-0.1180000007152557,-11.152999877929688,-0.453000009059906
1622109990812,-15.1899995803833,60.12900161743164,-15.696999549865724,0.3919999897480011,-11.005000114440918,-0.3869999945163726
1622109990822,-22.75,60.37300109863281,-14.659000396728516,0.8240000009536743,-10.760000228881836,-0.4230000078678131
1622109990832,-29.88999938964844,57.42499923706055,-13.260000228881836,1.1770000457763672,-10.496000289916992,-0.3370000123977661
1622109990842,-34.790000915527344,52.75,-11.73799991607666,1.491000056266785,-10.204999923706056,-0.4050000011920929
1622109990852,-38.709999084472656,47.39699935913086,-11.616000175476074,1.687000036239624,-9.727999687194824,-0.4009999930858612
1622109990862,-41.02000045776367,40.678001403808594,-11.805999755859377,1.7649999856948853,-8.920999526977539,-0.4580000042915344
1622109990872,-39.83000183105469,32.9370002746582,-12.246999740600586,1.7649999856948853,-8.036999702453613,-0.5009999871253967
1622109990882,-33.810001373291016,25.256999969482425,-11.824000358581545,1.6480000019073486,-7.3400001525878915,-0.6169999837875366
1622109990892,-21.84000015258789,17.34600067138672,-11.300000190734863,1.569000005722046,-7.046999931335449,-0.9240000247955322
1622109990902,-5.53000020980835,10.321999549865724,-10.973999977111816,1.4119999408721924,-7.294000148773193,-1.3259999752044678
1622109990912,12.390000343322754,4.061999797821045,-9.732999801635742,1.1770000457763672,-7.597000122070312,-1.4190000295639038
1622109990922,28.13999938964844,-1.0230000019073486,-8.710000038146973,0.981000006198883,-7.652999877929688,-1.5490000247955322
1622109990932,40.95000076293945,-5.645999908447266,-9.098999977111816,0.7059999704360961,-7.756000041961671,-1.6460000276565552
1622109990942,51.310001373291016,-8.925999641418457,-10.246000289916992,0.5879999995231628,-8.12399959564209,-1.5920000076293943
1622109990952,59.5,-11.128000259399414,-9.85200023651123,0.4309999942779541,-8.987000465393066,-1.6640000343322754
1622109990962,63.41999816894531,-12.555999755859377,-9.819000244140623,0.2750000059604644,-10.064000129699709,-1.6549999713897705
1622109990972,60.130001068115234,-13.244999885559082,-9.940999984741213,0.1959999948740005,-11.071000099182127,-1.593999981880188
1622109990982,49.06999969482422,-13.111000061035156,-9.491000175476074,0.1180000007152557,-11.536999702453612,-1.437000036239624
1622109990992,42.10499954223633,-12.684999465942385,-8.882999420166016,0.0780000016093254,-11.828000068664553,-1.36899995803833
1622109991002,35.13999938964844,-12.258999824523926,-8.274999618530273,0.0780000016093254,-12.036999702453612,-1.087000012397766
1622109991012,20.649999618530273,-10.571999549865724,-6.554999828338623,0.0390000008046627,-11.883999824523926,-0.8209999799728394
1622109991022,6.860000133514404,-9.210000038146973,-4.609000205993652,0.0,-11.524999618530272,-0.5979999899864196
1622109991032,-4.829999923706055,-7.425000190734864,-3.441999912261963,0.0390000008046627,-11.145999908447266,-0.492000013589859
1622109991042,-13.720000267028809,-6.379000186920166,-3.328000068664551,0.0780000016093254,-10.696000099182127,-0.3330000042915344
1622109991052,-19.530000686645508,-5.291999816894531,-2.638999938964844,0.1180000007152557,-10.322999954223633,-0.1870000064373016
1622109991062,-23.170000076293945,-3.9170000553131104,-1.9700000286102295,0.1180000007152557,-9.835000038146973,-0.0209999997168779
1622109991072,-25.34000015258789,-3.114000082015991,-1.6859999895095823,0.1959999948740005,-9.319000244140623,-0.0099999997764825
1622109991082,-24.5,-2.2669999599456787,-1.253000020980835,0.3140000104904174,-9.027999877929688,-0.0780000016093254
1622109991092,-20.790000915527344,-2.3480000495910645,-1.1959999799728394,0.3529999852180481,-8.873000144958496,-0.0509999990463256
1622109991102,-16.100000381469727,-2.9149999618530273,0.4099999964237213,0.3529999852180481,-8.769000053405762,-0.19200000166893
1622109991112,-10.220000267028809,-3.7669999599456783,1.6100000143051147,0.3529999852180481,-8.657999992370605,-0.3709999918937683
1622109991122,-3.430000066757202,-4.804999828338623,1.8539999723434448,0.3919999897480011,-8.753000259399414,-0.5080000162124633
1622109991132,3.2899999618530273,-6.166999816894531,1.116000056266785,0.3529999852180481,-8.901000022888184,-0.5740000009536743
1622109991142,8.399999618530273,-7.488999843597413,0.9539999961853028,0.3529999852180481,-9.079999923706056,-0.6850000023841857
1622109991152,12.390000343322754,-9.005999565124512,-0.5220000147819519,0.3919999897480011,-9.234999656677246,-0.7120000123977661
1622109991162,15.539999961853027,-10.506999969482422,-2.4920001029968266,0.4309999942779541,-9.428000450134276,-0.7459999918937683
1622109991172,16.59000015258789,-12.793999671936035,-4.0329999923706055,0.3919999897480011,-9.635000228881836,-0.703000009059906
1622109991182,16.100000381469727,-15.11400032043457,-5.791999816894531,0.3919999897480011,-9.788999557495115,-0.7300000190734863
1622109991192,14.840000152587892,-17.388999938964844,-7.401999950408936,0.3140000104904174,-10.12600040435791,-0.6299999952316284
1622109991202,13.684999465942385,-18.61949920654297,-8.081000328063965,0.2750000059604644,-10.255000114440918,-0.5730000138282775
1622109991212,12.529999732971191,-19.850000381469727,-8.760000228881836,0.2750000059604644,-10.402999877929688,-0.6389999985694885
1622109991222,9.800000190734863,-22.43000030517578,-9.854999542236328,0.1570000052452087,-10.416000366210938,-0.5619999766349792
1622109991232,6.300000190734863,-24.25,-10.8149995803833,0.0780000016093254,-10.328000068664553,-0.3869999945163726
1622109991242,1.4700000286102295,-25.636999130249023,-11.414999961853027,-0.0390000008046627,-10.25100040435791,-0.3740000128746032
1622109991252,-2.869999885559082,-25.54800033569336,-12.324000358581545,-0.1180000007152557,-10.14799976348877,-0.2759999930858612
1622109991262,-6.230000019073486,-25.260000228881836,-13.552000045776367,-0.1570000052452087,-9.94200038909912,-0.3190000057220459
1622109991272,-8.960000038146973,-24.90399932861328,-14.769000053405762,-0.2349999994039535,-9.70300006866455,-0.31700000166893
1622109991282,-10.5,-23.76799964904785,-15.564000129699709,-0.2349999994039535,-9.496000289916992,-0.3600000143051147
1622109991292,-10.850000381469728,-21.979999542236328,-16.030000686645508,-0.2750000059604644,-9.335000038146973,-0.3709999918937683
1622109991302,-9.729999542236328,-19.67300033569336,-16.618999481201172,-0.3140000104904174,-9.218999862670898,-0.3510000109672546
1622109991312,-7.139999866485596,-17.320999145507812,-17.05699920654297,-0.2750000059604644,-9.08899974822998,-0.4079999923706054
1622109991322,-3.849999904632568,-14.5600004196167,-16.996000289916992,-0.2750000059604644,-9.076000213623049,-0.4850000143051147
1622109991332,0.4199999868869781,-12.130999565124512,-15.857000350952148,-0.1959999948740005,-9.178000450134276,-0.5830000042915344
1622109991342,4.760000228881836,-9.491000175476074,-15.107999801635742,-0.1570000052452087,-9.395999908447264,-0.7009999752044677
1622109991352,8.329999923706055,-6.830999851226807,-14.06999969482422,-0.1180000007152557,-9.744000434875488,-0.762000024318695
1622109991362,10.220000267028809,-4.640999794006348,-13.185999870300291,-0.0780000016093254,-10.020999908447266,-0.7710000276565551
1622109991372,9.800000190734863,-2.865000009536743,-12.375,0.0780000016093254,-10.144000053405762,-0.7530000209808348
1622109991382,7.070000171661377,-1.4529999494552612,-11.913000106811523,0.1959999948740005,-10.312000274658203,-0.703000009059906
1622109991392,3.7100000381469727,-0.4480000138282775,-11.166999816894531,0.2349999994039535,-10.4350004196167,-0.6850000023841857
1622109991402,0.209999993443489,-0.5889999866485595,-10.765999794006348,0.3140000104904174,-10.571000099182127,-0.5889999866485595
1622109991412,-4.409999847412109,-1.14900004863739,-10.01200008392334,0.3140000104904174,-10.50100040435791,-0.537000000476837
1622109991422,-7.0,-1.7409999370574951,-10.080499649047852,0.2750000059604644,-10.352999687194824,-0.4709999859333038
1622109991432,-9.59000015258789,-2.3329999446868896,-10.14900016784668,0.3140000104904174,-10.128000259399414,-0.3919999897480011
1622109991442,-13.4399995803833,-3.836999893188477,-10.486000061035156,0.2750000059604644,-9.895999908447264,-0.3510000109672546
1622109991452,-16.100000381469727,-5.269000053405762,-10.027000427246094,0.2349999994039535,-9.62600040435791,-0.3030000030994415
1622109991462,-17.360000610351562,-5.864999771118164,-9.065999984741213,0.1959999948740005,-9.342000007629396,-0.3330000042915344
1622109991472,-16.729999542236328,-6.699999809265137,-9.569000244140623,0.1959999948740005,-9.187000274658203,-0.3050000071525573
1622109991482,-13.93000030517578,-6.882999897003174,-9.743000030517578,0.1959999948740005,-9.102999687194824,-0.3300000131130218
1622109991492,-10.220000267028809,-6.931000232696533,-9.467000007629396,0.1180000007152557,-8.973999977111816,-0.3869999945163726
1622109991502,-5.880000114440918,-7.210999965667725,-7.881999969482423,0.0780000016093254,-8.920999526977539,-0.4580000042915344
1622109991512,-0.8399999737739563,-7.4089999198913565,-6.353000164031982,0.0780000016093254,-9.02400016784668,-0.5550000071525573
1622109991522,4.059999942779541,-7.068999767303467,-5.867000102996826,0.0780000016093254,-9.196000099182127,-0.7049999833106994
1622109991532,8.050000190734863,-5.8520002365112305,-5.510000228881836,0.1959999948740005,-9.388999938964846,-0.7390000224113464
1622109991542,10.640000343322754,-5.0329999923706055,-4.513000011444092,0.3529999852180481,-9.543999671936035,-0.7670000195503234
1622109991552,12.390000343322754,-4.392000198364258,-4.114999771118164,0.3529999852180481,-9.65999984741211,-0.787000000476837
1622109991562,13.579999923706056,-5.175000190734863,-4.111000061035156,0.3919999897480011,-9.782999992370604,-0.7689999938011169
1622109991572,13.369999885559082,-6.982999801635742,-5.140999794006348,0.3919999897480011,-9.866999626159668,-0.7440000176429749
1622109991582,12.18000030517578,-8.661999702453613,-6.502999782562256,0.4309999942779541,-9.911999702453612,-0.7120000123977661
1622109991592,11.0600004196167,-10.053000450134276,-7.886000156402587,0.3919999897480011,-9.925999641418455,-0.6349999904632568
1622109991602,9.800000190734863,-11.47700023651123,-8.279000282287598,0.4309999942779541,-9.970999717712402,-0.6029999852180481
1622109991612,8.680000305175781,-12.923999786376951,-8.534000396728516,0.5879999995231628,-9.932000160217283,-0.5960000157356262
1622109991622,7.559999942779541,-14.477999687194824,-8.595000267028809,0.7450000047683715,-9.862000465393066,-0.5440000295639038
1622109991632,7.070000171661377,-16.951000213623047,-8.675000190734863,0.9020000100135804,-9.829999923706056,-0.4990000128746032
1622109991642,6.71999979019165,-20.656999588012695,-8.618000030517578,1.0199999809265137,-9.843999862670898,-0.4210000038146972
1622109991652,6.579999923706055,-22.79399871826172,-8.39050006866455,1.0980000495910645,-9.734999656677246,-0.3619999885559082
1622109991662,6.440000057220459,-24.930999755859375,-8.163000106811523,1.0590000152587893,-9.651000022888184,-0.3869999945163726
1622109991672,6.929999828338623,-29.322999954223633,-7.445000171661377,0.981000006198883,-9.520999908447264,-0.4440000057220459
1622109991682,6.860000133514404,-34.06700134277344,-7.144000053405762,0.9409999847412108,-9.411999702453612,-0.3849999904632568
1622109991692,8.260000228881836,-38.04899978637695,-7.136000156402588,0.9409999847412108,-9.373000144958496,-0.3779999911785125
1622109991702,9.449999809265137,-41.49599838256836,-7.743000030517577,0.981000006198883,-9.366999626159668,-0.4169999957084655
1622109991712,11.0600004196167,-45.34400177001953,-8.493000030517578,1.0590000152587893,-9.451000213623049,-0.3919999897480011
1622109991722,12.670000076293944,-49.47600173950195,-9.647999763488768,1.2549999952316284,-9.572999954223633,-0.3740000128746032
1622109991732,13.720000267028809,-54.48899841308594,-11.456000328063965,1.4119999408721924,-9.710000038146973,-0.277999997138977
1622109991742,13.93000030517578,-60.4900016784668,-13.29599952697754,1.6080000400543213,-9.800999641418455,-0.2150000035762786
1622109991752,13.369999885559082,-67.89900207519531,-16.02400016784668,1.687000036239624,-9.852999687194824,-0.1439999938011169
1622109991762,12.25,-77.46499633789062,-19.41699981689453,1.6080000400543213,-9.763999938964846,0.0309999994933605
1622109991772,10.989999771118164,-88.0530014038086,-23.06100082397461,1.4509999752044678,-9.668999671936035,0.1669999957084655
1622109991782,10.920000076293944,-98.22000122070312,-26.274999618530273,1.1380000114440918,-9.604999542236328,0.2579999864101409
1622109991792,11.340000152587892,-105.6240005493164,-29.429000854492188,0.7450000047683715,-9.70300006866455,0.3600000143051147
1622109991802,11.760000228881836,-109.37999725341795,-32.72100067138672,0.3919999897480011,-9.916000366210936,0.44200000166893
1622109991812,11.130000114440918,-110.35299682617188,-35.66400146484375,0.0390000008046627,-10.071000099182127,0.4149999916553497
1622109991822,9.65999984741211,-108.38700103759766,-37.948001861572266,-0.3140000104904174,-10.225000381469728,0.3880000114440918
1622109991832,7.210000038146973,-103.97899627685548,-39.1609992980957,-0.5490000247955322,-10.263999938964844,0.3810000121593475
1622109991842,4.760000228881836,-97.49600219726562,-39.652000427246094,-0.8629999756813049,-10.303000450134276,0.3740000128746032
1622109991852,2.7300000190734863,-88.7770004272461,-39.11000061035156,-1.0980000495910645,-10.29599952697754,0.3350000083446502
1622109991862,0.4199999868869781,-77.76399993896484,-37.87900161743164,-1.215999960899353,-10.25,0.3039999902248382
1622109991871,-0.7699999809265136,-65.07499694824219,-36.06800079345703,-1.2549999952316284,-10.237000465393066,0.2259999960660934
1622109991881,-1.434999942779541,-58.60149765014648,-34.89099884033203,-1.215999960899353,-10.11400032043457,0.2080000042915344
1622109991891,-2.0999999046325684,-52.12799835205078,-33.7140007019043,-1.0980000495910645,-10.062000274658203,0.1379999965429306
1622109991901,-3.359999895095825,-39.89699935913086,-30.917999267578125,-0.8629999756813049,-10.093999862670898,0.0920000001788139
1622109991911,-4.269999980926514,-28.26300048828125,-27.15999984741211,-0.5879999995231628,-10.12600040435791,0.0469999983906745
1622109991921,-5.739999771118164,-18.36400032043457,-22.43000030517578,-0.3919999897480011,-10.10099983215332,0.1309999972581863
1622109991931,-7.420000076293945,-10.428000450134276,-17.049999237060547,-0.1959999948740005,-9.977999687194824,0.1129999980330467
1622109991941,-8.609999656677246,-3.98799991607666,-12.857999801635742,-0.0390000008046627,-9.901000022888184,0.1260000020265579
1622109991951,-8.819999694824219,1.9450000524520872,-9.821000099182127,0.1959999948740005,-9.815999984741213,0.101000003516674
1622109991961,-8.960000038146973,6.973999977111816,-7.300000190734864,0.2750000059604644,-9.763999938964846,0.0309999994933605
1622109991971,-8.609999656677246,11.729999542236328,-5.252999782562256,0.3919999897480011,-9.770999908447264,0.0700000002980232
1622109991981,-8.260000228881836,15.562000274658203,-4.007999897003174,0.4709999859333038,-9.647999763488768,0.0509999990463256
1622109991991,-7.0,18.753999710083008,-3.1610000133514404,0.5490000247955322,-9.564000129699709,0.0260000005364418
1622109992001,-5.460000038146973,21.929000854492188,-1.8200000524520872,0.6669999957084655,-9.564000129699709,0.0260000005364418
1622109992011,-4.199999809265137,23.69700050354004,-0.1570000052452087,0.6669999957084655,-9.557000160217283,-0.0120000001043081
1622109992021,-2.869999885559082,25.44499969482422,1.2170000076293943,0.7059999704360961,-9.550999641418455,-0.0509999990463256
1622109992031,-1.75,26.628999710083008,2.562999963760376,0.7850000262260437,-9.628000259399414,-0.0649999976158142
1622109992041,-1.0499999523162842,27.315000534057617,3.109999895095825,0.8240000009536743,-9.737000465393066,-0.123999997973442
1622109992051,-1.0499999523162842,27.663999557495117,3.9539999961853023,0.8240000009536743,-9.729999542236328,-0.1620000004768371
1622109992061,-1.399999976158142,27.74099922180176,4.322999954223633,0.8629999756813049,-9.762000083923342,-0.2080000042915344
1622109992071,-1.75,26.68199920654297,4.2779998779296875,0.8240000009536743,-9.722999572753906,-0.2010000050067901
1622109992081,-1.6100000143051147,25.839000701904297,3.4189999103546143,0.7850000262260437,-9.678000450134276,-0.2329999953508377
1622109992091,-1.5399999618530271,24.86599922180176,2.8919999599456787,0.7850000262260437,-9.722999572753906,-0.2010000050067901
1622109992101,-1.2599999904632568,24.378999710083008,2.0239999294281006,0.7850000262260437,-9.717000007629396,-0.2399999946355819
1622109992111,-1.190000057220459,24.090999603271484,1.4399999380111694,0.7850000262260437,-9.722999572753906,-0.2010000050067901
1622109992121,-1.1200000047683716,23.80299949645996,0.856000006198883,0.8240000009536743,-9.722999572753906,-0.2010000050067901
1622109992131,-0.8399999737739563,22.562000274658203,-0.5709999799728394,0.8240000009536743,-9.678000450134276,-0.2329999953508377
1622109992141,-0.6299999952316284,21.393999099731445,-2.4119999408721924,0.8629999756813049,-9.63199996948242,-0.2649999856948852
1622109992151,-0.7699999809265136,19.913000106811523,-4.093999862670898,0.9020000100135804,-9.678000450134276,-0.2329999953508377
1622109992161,-0.699999988079071,18.30699920654297,-5.869999885559082,0.9020000100135804,-9.717000007629396,-0.2399999946355819
1622109992171,-0.9800000190734864,15.939000129699709,-7.354000091552734,0.9409999847412108,-9.710000038146973,-0.277999997138977
1622109992181,-0.8399999737739563,13.765000343322754,-8.732000350952148,0.9020000100135804,-9.722999572753906,-0.2010000050067901
1622109992191,-0.7699999809265136,11.85099983215332,-9.56700038909912,0.9020000100135804,-9.6850004196167,-0.1940000057220459
1622109992201,-0.7699999809265136,10.642999649047852,-10.776000022888184,0.8240000009536743,-9.645999908447264,-0.1870000064373016
1622109992211,-0.4900000095367431,9.39400005340576,-11.35099983215332,0.7450000047683715,-9.6850004196167,-0.1940000057220459
1622109992221,-0.3499999940395355,8.97599983215332,-12.20699977874756,0.7059999704360961,-9.652999877929688,-0.1490000039339065
1622109992231,0.209999993443489,8.883000373840332,-12.081000328063965,0.5879999995231628,-9.737000465393066,-0.123999997973442
1622109992241,0.699999988079071,9.333000183105469,-12.215000152587892,0.5490000247955322,-9.75100040435791,-0.0460000000894069
1622109992251,0.9100000262260436,9.779000282287598,-11.92300033569336,0.5099999904632568,-9.744000434875488,-0.0850000008940696
1622109992261,0.9800000190734864,11.161999702453612,-12.105999946594238,0.4709999859333038,-9.781999588012695,-0.0920000001788139
1622109992271,0.6299999952316284,13.02299976348877,-11.777999877929688,0.4709999859333038,-9.821000099182127,-0.0989999994635581
1622109992281,0.0,14.859999656677246,-11.310999870300291,0.5099999904632568,-9.852999687194824,-0.1439999938011169
1622109992291,-0.209999993443489,16.016000747680664,-10.609999656677246,0.5879999995231628,-9.814000129699709,-0.1369999945163726
1622109992301,-0.7699999809265136,16.607999801635742,-9.937000274658203,0.5879999995231628,-9.814000129699709,-0.1369999945163726
1622109992311,-0.699999988079071,17.131000518798828,-9.276000022888184,0.6280000209808348,-9.814000129699709,-0.1369999945163726
1622109992321,-0.9450000524520874,17.357999801635742,-8.951499938964844,0.6669999957084655,-9.845999717712402,-0.1829999983310699
1622109992331,-1.190000057220459,17.584999084472656,-8.626999855041504,0.7059999704360961,-9.83899974822998,-0.221000000834465
1622109992341,-1.5399999618530271,18.409000396728516,-8.055999755859375,0.7450000047683715,-9.83199977874756,-0.2599999904632568
1622109992351,-2.380000114440918,18.295000076293945,-7.010000228881836,0.8629999756813049,-9.845999717712402,-0.1829999983310699
1622109992361,-2.869999885559082,18.542999267578125,-6.396999835968018,0.8629999756813049,-9.800999641418455,-0.2150000035762786
1622109992371,-3.2200000286102295,18.132999420166016,-5.688000202178955,0.8629999756813049,-9.800999641418455,-0.2150000035762786
1622109992381,-3.569999933242798,17.391000747680664,-5.107999801635742,0.8629999756813049,-9.717000007629396,-0.2399999946355819
1622109992391,-3.6400001049041744,16.709999084472656,-4.872000217437744,0.8629999756813049,-9.63199996948242,-0.2649999856948852
1622109992401,-3.6400001049041744,16.11400032043457,-5.119999885559082,0.8629999756813049,-9.63199996948242,-0.2649999856948852
1622109992411,-2.940000057220459,15.725000381469728,-5.329999923706055,0.8240000009536743,-9.63199996948242,-0.2649999856948852
1622109992421,-2.0299999713897705,15.015000343322754,-5.739999771118164,0.8629999756813049,-9.586999893188477,-0.2960000038146972
1622109992431,-1.2599999904632568,14.211999893188477,-6.02400016784668,0.9020000100135804,-9.579999923706056,-0.3350000083446502
1622109992441,-0.5600000023841857,13.22599983215332,-6.48199987411499,0.9020000100135804,-9.541999816894531,-0.328000009059906
1622109992451,0.699999988079071,11.961000442504885,-6.563000202178955,0.9020000100135804,-9.510000228881836,-0.2829999923706054
1622109992461,2.240000009536743,11.19499969482422,-7.052999973297119,0.8629999756813049,-9.510000228881836,-0.2829999923706054
1622109992471,3.2200000286102295,10.652000427246094,-6.794000148773193,0.9020000100135804,-9.54800033569336,-0.2899999916553497
1622109992481,3.849999904632568,10.204999923706056,-7.085000038146973,0.8629999756813049,-9.54800033569336,-0.2899999916553497
1622109992491,4.619999885559082,9.244000434875488,-7.681000232696533,0.8240000009536743,-9.607000350952148,-0.1800000071525573
1622109992501,4.96999979019165,8.420999526977539,-8.253000259399414,0.8629999756813049,-9.697999954223633,-0.1169999986886978
1622109992511,5.110000133514404,7.460000038146973,-8.848999977111816,0.8629999756813049,-9.697999954223633,-0.1169999986886978
1622109992521,5.039999961853027,7.046000003814697,-8.92199993133545,0.8240000009536743,-9.737000465393066,-0.123999997973442
1622109992531,4.795000076293945,7.064499855041504,-9.02549934387207,0.8240000009536743,-9.781999588012695,-0.0920000001788139
1622109992541,4.550000190734863,7.083000183105469,-9.128999710083008,0.7850000262260437,-9.744000434875488,-0.0850000008940696
1622109992551,4.480000019073486,6.989999771118164,-9.003000259399414,0.7850000262260437,-9.776000022888184,-0.1299999952316284
1622109992561,4.059999942779541,7.139999866485596,-9.04800033569336,0.7850000262260437,-9.859999656677246,-0.1049999967217445
1622109992571,3.6400001049041744,7.3379998207092285,-9.368000030517578,0.7059999704360961,-9.873000144958496,-0.0280000008642673
1622109992581,2.940000057220459,7.864999771118165,-9.133000373840332,0.7059999704360961,-9.873000144958496,-0.0280000008642673
1622109992591,2.380000114440918,8.598999977111816,-8.861000061035156,0.7059999704360961,-9.951000213623049,-0.0419999994337558
1622109992601,1.8200000524520872,9.585000038146973,-8.402999877929688,0.7059999704360961,-9.904999732971191,-0.0740000009536743
1622109992611,0.699999988079071,10.33899974822998,-7.843999862670899,0.7850000262260437,-9.944000244140623,-0.0799999982118606
1622109992621,-0.9100000262260436,10.968000411987305,-7.377999782562256,0.7850000262260437,-9.904999732971191,-0.0740000009536743
1622109992631,-2.309999942779541,10.930999755859377,-7.171000003814697,0.8240000009536743,-9.859999656677246,-0.1049999967217445
1622109992641,-3.1500000953674316,10.817999839782717,-7.333000183105469,0.8240000009536743,-9.866000175476074,-0.06700000166893
1622109992651,-3.2200000286102295,10.642999649047852,-7.150000095367432,0.8240000009536743,-9.866000175476074,-0.06700000166893
1622109992661,-3.849999904632568,10.805999755859377,-7.263999938964843,0.8629999756813049,-9.781999588012695,-0.0920000001788139
1622109992671,-3.990000009536743,10.319000244140623,-6.922999858856201,0.8629999756813049,-9.788999557495115,-0.0529999993741512
1622109992681,-3.9200000762939458,10.354999542236328,-7.130000114440918,0.8629999756813049,-9.737000465393066,-0.123999997973442
1622109992691,-3.6400001049041744,9.83199977874756,-6.583000183105469,0.8629999756813049,-9.737000465393066,-0.123999997973442
1622109992701,-3.359999895095825,9.142999649047852,-6.703999996185303,0.8629999756813049,-9.737000465393066,-0.123999997973442
1622109992711,-2.869999885559082,8.473999977111816,-6.538000106811523,0.8629999756813049,-9.69200038909912,-0.1550000011920929
1622109992721,-2.450000047683716,7.828999996185303,-6.508999824523926,0.8629999756813049,-9.69200038909912,-0.1550000011920929
1622109992731,-1.8899999856948853,7.703999996185303,-6.603000164031982,0.8240000009536743,-9.69200038909912,-0.1550000011920929
1622109992741,-1.7149999141693115,7.594500064849853,-6.58650016784668,0.8629999756813049,-9.6850004196167,-0.1940000057220459
1622109992751,-1.5399999618530271,7.485000133514405,-6.570000171661377,0.8240000009536743,-9.6850004196167,-0.1940000057220459
1622109992761,-0.9800000190734864,7.10699987411499,-6.849999904632568,0.8240000009536743,-9.652999877929688,-0.1490000039339065
1622109992771,-0.7699999809265136,7.124000072479248,-7.344999790191651,0.8240000009536743,-9.645999908447264,-0.1870000064373016
1622109992781,-0.699999988079071,6.730000019073486,-7.130000114440918,0.8629999756813049,-9.67300033569336,-0.032999999821186
1622109992791,-0.1400000005960464,6.309000015258789,-7.559000015258789,0.8240000009536743,-9.704999923706056,-0.0780000016093254
1622109992801,0.4199999868869781,6.263999938964844,-7.709000110626221,0.8240000009536743,-9.652999877929688,-0.1490000039339065
1622109992811,0.7699999809265136,5.756999969482422,-7.657000064849853,0.8629999756813049,-9.652999877929688,-0.1490000039339065
1622109992821,0.9100000262260436,5.427999973297119,-8.211999893188477,0.8629999756813049,-9.65999984741211,-0.1099999994039535
1622109992831,1.3300000429153442,4.735000133514404,-7.907999992370605,0.8629999756813049,-9.697999954223633,-0.1169999986886978
1622109992841,1.6100000143051147,4.252999782562256,-7.993000030517577,0.8629999756813049,-9.69200038909912,-0.1550000011920929
1622109992851,2.0299999713897705,4.013000011444092,-8.248000144958496,0.8240000009536743,-9.69200038909912,-0.1550000011920929
1622109992861,2.240000009536743,3.86299991607666,-8.204000473022461,0.8629999756813049,-9.697999954223633,-0.1169999986886978
1622109992871,2.0299999713897705,3.7579998970031734,-8.008999824523926,0.8629999756813049,-9.697999954223633,-0.1169999986886978
1622109992881,2.0299999713897705,3.4820001125335693,-8.057999610900879,0.8240000009536743,-9.744000434875488,-0.0850000008940696
1622109992891,1.8899999856948853,3.312000036239624,-8.300999641418457,0.8240000009536743,-9.704999923706056,-0.0780000016093254
1622109992901,1.9600000381469729,3.38100004196167,-8.288999557495117,0.8240000009536743,-9.744000434875488,-0.0850000008940696
1622109992911,2.0999999046325684,3.1579999923706055,-7.830999851226807,0.8629999756813049,-9.737000465393066,-0.123999997973442
1622109992921,1.9600000381469729,3.3399999141693115,-7.656000137329101,0.8629999756813049,-9.744000434875488,-0.0850000008940696
1622109992931,1.4700000286102295,3.255000114440918,-7.173999786376953,0.8240000009536743,-9.76900005340576,-0.1689999997615814
1622109992941,1.3300000429153442,3.5510001182556152,-6.836999893188477,0.8240000009536743,-9.76900005340576,-0.1689999997615814
1622109992951,1.2599999904632568,3.5205001831054688,-6.664999961853027,0.8240000009536743,-9.776000022888184,-0.1299999952316284
1622109992961,1.190000057220459,3.490000009536743,-6.493000030517578,0.7850000262260437,-9.788999557495115,-0.0529999993741512
1622109992971,0.8399999737739563,3.5799999237060547,-6.191999912261963,0.7850000262260437,-9.788999557495115,-0.0529999993741512
1622109992981,0.0700000002980232,3.450000047683716,-5.860000133514404,0.8240000009536743,-9.788999557495115,-0.0529999993741512
1622109992991,-0.0700000002980232,3.4539999961853027,-6.285999774932861,0.7850000262260437,-9.788999557495115,-0.0529999993741512
1622109993001,-0.7699999809265136,3.8550000190734863,-6.144000053405762,0.7850000262260437,-9.788999557495115,-0.0529999993741512
1622109993011,-0.8399999737739563,3.7579998970031734,-6.801000118255615,0.7850000262260437,-9.82800006866455,-0.0599999986588954
1622109993021,-0.9100000262260436,3.9319999217987065,-6.982999801635742,0.7850000262260437,-9.82800006866455,-0.0599999986588954
1622109993031,-1.2599999904632568,3.884000062942505,-6.706999778747559,0.7850000262260437,-9.82800006866455,-0.0599999986588954
1622109993041,-1.5399999618530271,3.697000026702881,-6.455999851226807,0.8629999756813049,-9.803000450134276,0.0240000002086162
1622109993051,-2.0299999713897705,3.203000068664551,-6.4720001220703125,0.7850000262260437,-9.718999862670898,-0.0010000000474974
1622109993061,-1.75,3.1010000705718994,-6.703000068664551,0.7450000047683715,-9.711999893188477,-0.0399999991059303
1622109993071,-1.5399999618530271,3.1619999408721924,-7.047999858856201,0.7450000047683715,-9.711999893188477,-0.0399999991059303
1622109993081,-1.3300000429153442,3.7170000076293945,-7.376999855041504,0.7059999704360961,-9.75100040435791,-0.0460000000894069
1622109993091,-1.1200000047683716,4.309000015258789,-7.9120001792907715,0.7059999704360961,-9.711999893188477,-0.0399999991059303
1622109993101,-1.1200000047683716,4.284999847412109,-7.77400016784668,0.7450000047683715,-9.75100040435791,-0.0460000000894069
1622109993111,-1.399999976158142,4.572999954223633,-7.794000148773193,0.7850000262260437,-9.744000434875488,-0.0850000008940696
1622109993121,-1.190000057220459,4.410999774932861,-7.681000232696533,0.7850000262260437,-9.75100040435791,-0.0460000000894069
1622109993131,-1.2599999904632568,4.683000087738037,-7.205999851226807,0.8240000009536743,-9.711999893188477,-0.0399999991059303
1622109993141,-0.9800000190734864,5.002999782562256,-7.007999897003174,0.7850000262260437,-9.711999893188477,-0.0399999991059303
1622109993151,-0.9800000190734864,5.298999786376953,-6.671000003814697,0.7450000047683715,-9.704999923706056,-0.0780000016093254
1622109993161,-0.8399999737739563,5.456999778747559,-6.359000205993652,0.7450000047683715,-9.75100040435791,-0.0460000000894069
1622109993171,-0.6649999618530273,5.619500160217285,-6.472499847412109,0.7450000047683715,-9.704999923706056,-0.0780000016093254
1622109993181,-0.4900000095367431,5.7820000648498535,-6.585999965667725,0.7450000047683715,-9.75100040435791,-0.0460000000894069
1622109993191,-0.5600000023841857,6.0329999923706055,-6.400000095367432,0.7850000262260437,-9.75100040435791,-0.0460000000894069
1622109993201,-0.6299999952316284,6.519000053405762,-6.739999771118164,0.7850000262260437,-9.744000434875488,-0.0850000008940696
1622109993211,-0.699999988079071,6.584000110626221,-6.302000045776367,0.8240000009536743,-9.744000434875488,-0.0850000008940696
1622109993221,-0.6299999952316284,6.629000186920166,-6.1519999504089355,0.8240000009536743,-9.744000434875488,-0.0850000008940696
1622109993231,-0.6299999952316284,6.203000068664551,-6.156000137329102,0.8629999756813049,-9.704999923706056,-0.0780000016093254
1622109993241,-0.6299999952316284,5.9029998779296875,-6.066999912261963,0.8240000009536743,-9.704999923706056,-0.0780000016093254
1622109993251,-0.6299999952316284,5.870999813079834,-6.285999774932861,0.8240000009536743,-9.697999954223633,-0.1169999986886978
1622109993261,-0.8399999737739563,5.428999900817871,-5.795000076293945,0.8240000009536743,-9.729999542236328,-0.1620000004768371
1622109993271,-0.9100000262260436,5.185999870300293,-5.625,0.8240000009536743,-9.729999542236328,-0.1620000004768371
1622109993281,-0.4900000095367431,5.099999904632568,-5.142000198364258,0.8240000009536743,-9.729999542236328,-0.1620000004768371
1622109993291,-0.5600000023841857,4.642000198364258,-5.364999771118164,0.7850000262260437,-9.737000465393066,-0.123999997973442
1622109993301,-0.4900000095367431,4.4720001220703125,-5.609000205993652,0.8240000009536743,-9.744000434875488,-0.0850000008940696
1622109993311,-0.4900000095367431,4.159999847412109,-5.449999809265137,0.7850000262260437,-9.704999923706056,-0.0780000016093254
1622109993321,-0.3499999940395355,4.552999973297119,-5.664999961853027,0.7850000262260437,-9.79599952697754,-0.0149999996647238
1622109993331,-0.3499999940395355,4.171999931335449,-5.519000053405762,0.7850000262260437,-9.75100040435791,-0.0460000000894069
1622109993341,-0.2800000011920929,3.83899998664856,-5.64900016784668,0.7450000047683715,-9.75100040435791,-0.0460000000894069
1622109993351,-0.0700000002980232,3.5880000591278076,-5.835999965667725,0.7059999704360961,-9.79599952697754,-0.0149999996647238
1622109993361,0.0,4.196000099182129,-5.6570000648498535,0.6669999957084655,-9.75100040435791,-0.0460000000894069
1622109993371,0.4199999868869781,4.1519999504089355,-5.807000160217285,0.6669999957084655,-9.75100040435791,-0.0460000000894069
1622109993381,0.2449999898672103,4.194499969482422,-6.048500061035156,0.6669999957084655,-9.75100040435791,-0.0460000000894069
1622109993391,0.0700000002980232,4.236999988555908,-6.289999961853027,0.6280000209808348,-9.788999557495115,-0.0529999993741512
1622109993401,0.0,4.7230000495910645,-6.63100004196167,0.6669999957084655,-9.788999557495115,-0.0529999993741512
1622109993411,0.0700000002980232,5.059999942779541,-6.927000045776367,0.6669999957084655,-9.788999557495115,-0.0529999993741512
1622109993421,-0.3499999940395355,5.448999881744385,-6.716000080108643,0.6669999957084655,-9.711999893188477,-0.0399999991059303
1622109993431,-0.209999993443489,5.691999912261963,-6.886000156402588,0.6280000209808348,-9.75100040435791,-0.0460000000894069
1622109993441,-0.4199999868869781,5.935999870300293,-7.057000160217285,0.6669999957084655,-9.75100040435791,-0.0460000000894069
1622109993451,-0.5600000023841857,5.854000091552734,-7.0,0.6669999957084655,-9.79599952697754,-0.0149999996647238
1622109993461,-0.4900000095367431,6.248000144958496,-7.2150001525878915,0.6669999957084655,-9.788999557495115,-0.0529999993741512
1622109993471,-0.4900000095367431,6.429999828338623,-7.039999961853027,0.7059999704360961,-9.788999557495115,-0.0529999993741512
1622109993481,-0.4900000095367431,6.664999961853027,-7.567999839782715,0.7450000047683715,-9.75100040435791,-0.0460000000894069
1622109993491,-0.7699999809265136,6.5269999504089355,-7.592000007629395,0.7450000047683715,-9.711999893188477,-0.0399999991059303
1622109993501,-1.190000057220459,6.341000080108643,-7.3400001525878915,0.7850000262260437,-9.704999923706056,-0.0780000016093254
1622109993510,-1.1200000047683716,6.409999847412109,-7.328000068664551,0.7850000262260437,-9.781999588012695,-0.0920000001788139
1622109993520,-1.0499999523162842,6.26800012588501,-6.927000045776367,0.7850000262260437,-9.744000434875488,-0.0850000008940696
1622109993530,-1.2599999904632568,6.23199987411499,-6.71999979019165,0.8240000009536743,-9.744000434875488,-0.0850000008940696
1622109993540,-1.2599999904632568,6.081999778747559,-6.675000190734863,0.8240000009536743,-9.704999923706056,-0.0780000016093254
1622109993550,-1.0499999523162842,6.23199987411499,-6.71999979019165,0.8240000009536743,-9.744000434875488,-0.0850000008940696
1622109993560,-1.2599999904632568,6.288000106811523,-6.638999938964844,0.8240000009536743,-9.744000434875488,-0.0850000008940696
1622109993570,-1.5399999618530271,6.406000137329102,-6.9019999504089355,0.8629999756813049,-9.75100040435791,-0.0460000000894069
1622109993580,-1.5399999618530271,6.3125,-6.7764997482299805,0.7850000262260437,-9.711999893188477,-0.0399999991059303
1622109993590,-1.5399999618530271,6.218999862670898,-6.651000022888184,0.7850000262260437,-9.75100040435791,-0.0460000000894069
1622109993600,-1.6799999475479126,5.732999801635742,-6.309999942779541,0.7850000262260437,-9.737000465393066,-0.123999997973442
1622109993610,-1.399999976158142,5.445000171661377,-6.289999961853027,0.7850000262260437,-9.704999923706056,-0.0780000016093254
1622109993620,-1.399999976158142,5.076000213623047,-6.2129998207092285,0.7850000262260437,-9.65999984741211,-0.1099999994039535
1622109993630,-1.0499999523162842,4.686999797821045,-6.423999786376953,0.7850000262260437,-9.65999984741211,-0.1099999994039535
1622109993640,-0.9800000190734864,4.580999851226807,-6.229000091552734,0.7450000047683715,-9.666999816894531,-0.0710000023245811
1622109993650,-1.190000057220459,4.098999977111816,-6.314000129699707,0.7450000047683715,-9.737000465393066,-0.123999997973442
1622109993660,-1.190000057220459,4.5929999351501465,-6.297999858856201,0.7059999704360961,-9.737000465393066,-0.123999997973442
1622109993670,-0.4199999868869781,4.7230000495910645,-6.63100004196167,0.7059999704360961,-9.737000465393066,-0.123999997973442
1622109993680,0.1400000005960464,4.914000034332275,-7.308000087738037,0.7450000047683715,-9.704999923706056,-0.0780000016093254
1622109993690,0.2800000011920929,4.876999855041504,-7.10099983215332,0.7850000262260437,-9.75100040435791,-0.0460000000894069
1622109993700,0.3499999940395355,4.84499979019165,-6.111999988555908,0.7059999704360961,-9.744000434875488,-0.0850000008940696
1622109993710,0.699999988079071,4.39900016784668,-5.195000171661377,0.7059999704360961,-9.697999954223633,-0.1169999986886978
1622109993720,0.7699999809265136,4.2729997634887695,-5.288000106811523,0.7450000047683715,-9.704999923706056,-0.0780000016093254
1622109993730,0.9100000262260436,4.196000099182129,-5.6570000648498535,0.7450000047683715,-9.704999923706056,-0.0780000016093254
1622109993740,0.7699999809265136,3.8959999084472656,-5.567999839782715,0.6669999957084655,-9.763999938964846,0.0309999994933605
1622109993750,0.4199999868869781,4.164000034332275,-5.875999927520752,0.7059999704360961,-9.718999862670898,-0.0010000000474974
1622109993760,0.4199999868869781,3.900000095367432,-5.99399995803833,0.7059999704360961,-9.75100040435791,-0.0460000000894069
1622109993770,0.0700000002980232,4.086999893188477,-6.244999885559082,0.7059999704360961,-9.711999893188477,-0.0399999991059303
1622109993780,0.0,3.624000072479248,-6.041999816894531,0.7059999704360961,-9.75100040435791,-0.0460000000894069
1622109993790,0.1049999967217445,3.4194998741149902,-6.291500091552734,0.7059999704360961,-9.711999893188477,-0.0399999991059303
1622109993800,0.209999993443489,3.2149999141693115,-6.540999889373779,0.7059999704360961,-9.666999816894531,-0.0710000023245811
1622109993810,0.4199999868869781,3.0199999809265137,-6.646999835968018,0.6669999957084655,-9.666999816894531,-0.0710000023245811
1622109993820,0.5600000023841857,3.250999927520752,-6.748000144958496,0.6669999957084655,-9.628000259399414,-0.0649999976158142
1622109993830,0.699999988079071,2.9630000591278076,-6.728000164031982,0.6669999957084655,-9.628000259399414,-0.0649999976158142
1622109993840,1.0499999523162842,3.3440001010894775,-6.874000072479248,0.7059999704360961,-9.697999954223633,-0.1169999986886978
1622109993850,0.9800000190734864,3.372999906539917,-7.436999797821045,0.7450000047683715,-9.744000434875488,-0.0850000008940696
1622109993860,1.2599999904632568,3.0769999027252197,-7.77400016784668,0.7850000262260437,-9.776000022888184,-0.1299999952316284
1622109993870,1.5399999618530271,3.055999994277954,-8.062000274658203,0.7450000047683715,-9.781999588012695,-0.0920000001788139
1622109993880,1.6100000143051147,2.7929999828338623,-8.178999900817871,0.7450000047683715,-9.763999938964846,0.0309999994933605
1622109993890,1.1200000047683716,2.930999994277954,-8.154999732971191,0.7450000047683715,-9.821000099182127,-0.0989999994635581
1622109993900,1.1200000047683716,3.1329998970031734,-8.901000022888184,0.7059999704360961,-9.859999656677246,-0.1049999967217445
1622109993910,0.2800000011920929,3.063999891281128,-8.913000106811523,0.7059999704360961,-9.904999732971191,-0.0740000009536743
1622109993920,-0.3499999940395355,3.3239998817443848,-8.369999885559082,0.7059999704360961,-9.944000244140623,-0.0799999982118606
1622109993930,-0.7699999809265136,3.6809999942779545,-8.378000259399414,0.7059999704360961,-9.904999732971191,-0.0740000009536743
1622109993940,-1.399999976158142,3.9570000171661377,-8.329999923706055,0.7059999704360961,-9.873000144958496,-0.0280000008642673
1622109993950,-1.6100000143051147,3.8190000057220455,-8.354000091552734,0.7059999704360961,-9.873000144958496,-0.0280000008642673
1622109993960,-1.5399999618530271,4.085999965667725,-8.661999702453613,0.7450000047683715,-9.866000175476074,-0.06700000166893
1622109993970,-1.8200000524520872,4.304999828338623,-8.694999694824219,0.7450000047683715,-9.873000144958496,-0.0280000008642673
1622109993980,-2.6600000858306885,4.248000144958496,-8.776000022888184,0.7450000047683715,-9.803000450134276,0.0240000002086162
1622109993990,-3.359999895095825,4.211999893188477,-8.569000244140625,0.7059999704360961,-9.873000144958496,-0.0280000008642673
1622109994000,-3.9200000762939458,4.589000225067139,-8.288999557495117,0.6669999957084655,-9.866000175476074,-0.06700000166893
1622109994010,-4.025000095367432,4.5625,-7.938499450683594,0.6669999957084655,-9.880000114440918,0.0099999997764825
1622109994020,-4.130000114440918,4.535999774932861,-7.5879998207092285,0.6669999957084655,-9.788999557495115,-0.0529999993741512
1622109994030,-4.269999980926514,4.934000015258789,-7.019999980926514,0.5879999995231628,-9.75100040435791,-0.0460000000894069
1622109994040,-4.130000114440918,5.400000095367432,-6.440000057220459,0.6280000209808348,-9.711999893188477,-0.0399999991059303
1622109994050,-3.990000009536743,5.875,-6.711999893188477,0.6669999957084655,-9.711999893188477,-0.0399999991059303
1622109994060,-3.7799999713897705,6.125999927520752,-6.525000095367432,0.6669999957084655,-9.666999816894531,-0.0710000023245811
1622109994070,-3.359999895095825,6.421999931335449,-6.189000129699707,0.7450000047683715,-9.666999816894531,-0.0710000023245811
1622109994080,-2.799999952316284,6.52400016784668,-5.958000183105469,0.7450000047683715,-9.628000259399414,-0.0649999976158142
1622109994090,-2.380000114440918,6.63700008392334,-5.796000003814697,0.7450000047683715,-9.65999984741211,-0.1099999994039535
1622109994100,-1.8899999856948853,6.374000072479248,-5.913000106811523,0.7450000047683715,-9.621000289916992,-0.1030000001192092
1622109994110,-1.5399999618530271,5.910999774932861,-5.710000038146973,0.7059999704360961,-9.61400032043457,-0.1420000046491622
1622109994120,-1.0499999523162842,6.190999984741211,-6.086999893188477,0.7059999704360961,-9.61400032043457,-0.1420000046491622
1622109994130,-0.6299999952316284,5.7779998779296875,-6.159999847412109,0.7450000047683715,-9.61400032043457,-0.1420000046491622
1622109994140,-0.1400000005960464,5.465000152587891,-6.001999855041504,0.7450000047683715,-9.652999877929688,-0.1490000039339065
1622109994150,0.3499999940395355,5.2829999923706055,-6.176000118255615,0.6669999957084655,-9.65999984741211,-0.1099999994039535
1622109994160,0.7699999809265136,4.861000061035156,-6.605999946594238,0.7450000047683715,-9.6850004196167,-0.1940000057220459
1622109994170,1.2599999904632568,4.776000022888184,-7.331999778747559,0.7450000047683715,-9.69200038909912,-0.1550000011920929
1622109994180,1.1200000047683716,4.747000217437744,-7.9770002365112305,0.7450000047683715,-9.69200038909912,-0.1550000011920929
1622109994190,1.1200000047683716,4.431000232696533,-8.60099983215332,0.7059999704360961,-9.729999542236328,-0.1620000004768371
1622109994200,0.9800000190734864,4.158999919891357,-9.076000213623049,0.7450000047683715,-9.737000465393066,-0.123999997973442
1622109994210,1.0499999523162842,4.108500003814697,-9.191499710083008,0.7059999704360961,-9.744000434875488,-0.0850000008940696
1622109994220,1.1200000047683716,4.058000087738037,-9.307000160217283,0.7059999704360961,-9.744000434875488,-0.0850000008940696
1622109994230,1.1200000047683716,3.9809999465942383,-9.675999641418455,0.6669999957084655,-9.75100040435791,-0.0460000000894069
1622109994240,1.0499999523162842,3.9809999465942383,-9.675999641418455,0.6669999957084655,-9.704999923706056,-0.0780000016093254
1622109994250,1.0499999523162842,4.260000228881836,-10.053000450134276,0.6669999957084655,-9.744000434875488,-0.0850000008940696
1622109994260,1.190000057220459,4.135000228881836,-10.145999908447266,0.6669999957084655,-9.744000434875488,-0.0850000008940696
1622109994270,1.190000057220459,4.6620001792907715,-9.91100025177002,0.6669999957084655,-9.788999557495115,-0.0529999993741512
1622109994280,0.9100000262260436,5.051000118255615,-9.699999809265137,0.7059999704360961,-9.781999588012695,-0.0920000001788139
1622109994290,0.5600000023841857,5.2820000648498535,-9.802000045776367,0.7059999704360961,-9.781999588012695,-0.0920000001788139
1622109994300,0.1400000005960464,6.165999889373779,-9.574999809265137,0.6669999957084655,-9.76900005340576,-0.1689999997615814
1622109994310,0.0,6.807000160217285,-9.177000045776367,0.6669999957084655,-9.75699996948242,-0.0080000003799796
1622109994320,0.3499999940395355,7.760000228881835,-8.937999725341797,0.6280000209808348,-9.788999557495115,-0.0529999993741512
1622109994330,0.7699999809265136,8.770000457763672,-8.618000030517578,0.6280000209808348,-9.788999557495115,-0.0529999993741512
1622109994340,1.190000057220459,9.678000450134276,-8.529000282287598,0.5879999995231628,-9.704999923706056,-0.0780000016093254
1622109994350,1.5399999618530271,10.229999542236328,-8.432000160217285,0.5490000247955322,-9.704999923706056,-0.0780000016093254
1622109994360,2.0999999046325684,11.487000465393066,-8.708000183105469,0.5099999904632568,-9.711999893188477,-0.0399999991059303
1622109994370,2.869999885559082,12.711000442504885,-9.20300006866455,0.5490000247955322,-9.67300033569336,-0.032999999821186
1622109994380,3.2200000286102295,14.463000297546388,-9.461999893188477,0.5099999904632568,-9.68000030517578,0.006000000052154
1622109994390,3.7100000381469727,15.675000190734863,-9.887999534606934,0.4709999859333038,-9.642000198364256,0.0130000002682209
1622109994400,4.059999942779541,16.899999618530273,-10.383000373840332,0.4309999942779541,-9.68000030517578,0.006000000052154
1622109994410,4.480000019073486,18.496999740600582,-11.380999565124512,0.4309999942779541,-9.67300033569336,-0.032999999821186
1622109994420,4.619999885559082,19.57200050354004,-11.831000328063965,0.4709999859333038,-9.718999862670898,-0.0010000000474974
1622109994430,4.585000038146973,20.340499877929688,-12.157500267028809,0.4709999859333038,-9.704999923706056,-0.0780000016093254
1622109994440,4.550000190734863,21.108999252319336,-12.484000205993652,0.5099999904632568,-9.67300033569336,-0.032999999821186
1622109994450,4.409999847412109,22.475000381469727,-13.380999565124512,0.5490000247955322,-9.763999938964846,0.0309999994933605
1622109994460,4.059999942779541,23.756000518798828,-13.793999671936035,0.5099999904632568,-9.770999908447264,0.0700000002980232
1622109994470,3.569999933242798,25.32900047302246,-14.654000282287598,0.5879999995231628,-9.822999954223633,0.1400000005960464
1622109994480,3.2200000286102295,26.354999542236328,-14.82900047302246,0.5879999995231628,-9.862000465393066,0.1330000013113021
1622109994490,2.380000114440918,27.83099937438965,-15.13700008392334,0.5879999995231628,-9.869000434875488,0.1720000058412551
1622109994500,1.6799999475479126,28.881999969482425,-15.449000358581545,0.7059999704360961,-9.862000465393066,0.1330000013113021
1622109994510,1.0499999523162842,30.243999481201172,-15.920000076293944,0.7850000262260437,-9.906999588012695,0.1650000065565109
1622109994520,0.1400000005960464,31.285999298095703,-15.380999565124512,0.8240000009536743,-9.913999557495115,0.2039999961853027
1622109994530,-1.0499999523162842,32.4739990234375,-14.461000442504885,0.8240000009536743,-9.913999557495115,0.2039999961853027
1622109994540,-1.8200000524520872,33.0099983215332,-13.869000434875488,0.8629999756813049,-9.869000434875488,0.1720000058412551
1622109994550,-2.5899999141693115,33.45600128173828,-13.57699966430664,0.9020000100135804,-9.822999954223633,0.1400000005960464
1622109994560,-3.0799999237060547,34.12900161743164,-12.960000038146973,0.981000006198883,-9.78499984741211,0.1469999998807907
1622109994570,-3.849999904632568,34.590999603271484,-11.954999923706056,0.9020000100135804,-9.732000350952148,0.0759999975562095
1622109994580,-4.130000114440918,35.24399948120117,-11.626999855041504,1.0199999809265137,-9.694000244140623,0.0829999968409538
1622109994590,-4.199999809265137,35.308998107910156,-11.189000129699709,1.0199999809265137,-9.73900032043457,0.1150000020861625
1622109994600,-4.480000019073486,35.707000732421875,-10.621000289916992,1.0980000495910645,-9.746000289916992,0.1539999991655349
1622109994610,-4.199999809265137,35.69499969482422,-10.552000045776367,1.1380000114440918,-9.694000244140623,0.0829999968409538
1622109994620,-3.7799999713897705,35.34600067138672,-10.187000274658203,1.1770000457763672,-9.73900032043457,0.1150000020861625
1622109994630,-3.7799999713897705,35.0260009765625,-9.177000045776367,1.2549999952316284,-9.701000213623049,0.1220000013709068
1622109994640,-3.7100000381469727,34.527000427246094,-8.767499923706055,1.2549999952316284,-9.647999763488768,0.0509999990463256
1622109994650,-3.6400001049041744,34.02799987792969,-8.357999801635742,1.2549999952316284,-9.687000274658203,0.0450000017881393
1622109994660,-3.430000066757202,33.08000183105469,-7.815000057220459,1.2940000295639038,-9.647999763488768,0.0509999990463256
1622109994670,-3.2899999618530273,32.154998779296875,-7.4089999198913565,1.2549999952316284,-9.68000030517578,0.006000000052154
1622109994680,-2.6600000858306885,31.343999862670895,-6.841000080108643,1.2549999952316284,-9.68000030517578,0.006000000052154
1622109994690,-2.6600000858306885,30.73200035095215,-6.593999862670898,1.215999960899353,-9.718999862670898,-0.0010000000474974
1622109994700,-2.869999885559082,29.85199928283691,-6.038000106811523,1.215999960899353,-9.67300033569336,-0.032999999821186
1622109994710,-2.6600000858306885,28.631000518798828,-5.968999862670898,1.215999960899353,-9.68000030517578,0.006000000052154
1622109994720,-2.240000009536743,27.541000366210938,-6.23199987411499,1.215999960899353,-9.642000198364256,0.0130000002682209
1622109994730,-1.8200000524520872,27.159000396728516,-6.085999965667725,1.1380000114440918,-9.58899974822998,-0.0579999983310699
1622109994740,-1.190000057220459,26.489999771118164,-5.920000076293945,1.0980000495910645,-9.654999732971191,0.0900000035762786
1622109994750,-0.209999993443489,25.93899917602539,-6.017000198364258,1.0590000152587893,-9.571000099182127,0.0649999976158142
1622109994760,0.7699999809265136,25.500999450683594,-5.952000141143799,0.981000006198883,-9.571000099182127,0.0649999976158142
1622109994770,1.8200000524520872,25.386999130249023,-6.113999843597412,0.9409999847412108,-9.571000099182127,0.0649999976158142
1622109994780,2.5899999141693115,25.606000900268555,-6.146999835968018,0.9020000100135804,-9.538999557495115,0.1099999994039535
1622109994790,3.7799999713897705,26.173999786376953,-6.544000148773193,0.8240000009536743,-9.50699996948242,0.1560000032186508
