timestamp,gyro_x,gyro_y,gyro_z,acc_x,acc_y,acc_z
1621847839519,0.0,0.0,0.0,0.0,0.0,0.0
1621847839528,-4.059999942779541,-18.770999908447266,57.676998138427734,-0.8240000009536743,-11.484999656677246,-0.8299999833106994
1621847839538,-0.3499999940395355,-21.10300064086914,51.15299987792969,-0.8629999756813049,-10.812000274658203,-0.3529999852180481
1621847839548,5.670000076293945,-22.187000274658203,43.99599838256836,-1.0199999809265137,-10.352999687194824,0.2060000002384185
1621847839558,12.31999969482422,-22.937999725341797,34.551998138427734,-1.1770000457763672,-9.8100004196167,0.740000009536743
1621847839568,21.06999969482422,-22.525999069213867,22.541000366210938,-1.3339999914169312,-9.201000213623049,1.1260000467300415
1621847839578,28.84000015258789,-19.94099998474121,10.699999809265137,-1.5299999713897705,-8.572999954223633,1.6349999904632568
1621847839588,34.5099983215332,-14.244999885559082,0.9710000157356262,-1.72599995136261,-8.119000434875488,1.99399995803833
1621847839598,39.900001525878906,-7.0320000648498535,-4.864999771118164,-1.9220000505447388,-8.107000350952148,2.1549999713897705
1621847839608,43.470001220703125,-1.2089999914169312,-4.833000183105469,-2.0399999618530273,-8.630000114440918,2.183000087738037
1621847839618,43.68000030517578,2.0880000591278076,-0.5559999942779541,-2.1570000648498535,-9.461999893188477,2.1549999713897705
1621847839628,40.25,4.859000205993652,4.695000171661377,-2.2750000953674316,-10.125,2.078000068664551
1621847839638,35.06999969482422,8.15999984741211,8.54699993133545,-2.431999921798706,-10.51200008392334,2.009999990463257
1621847839648,28.280000686645508,11.69200038909912,11.08899974822998,-2.549999952316284,-10.517999649047852,2.049000024795532
1621847839658,25.34000015258789,13.840999603271484,10.792499542236328,-2.5889999866485596,-10.371000289916992,2.115000009536743
1621847839668,22.399999618530273,15.989999771118164,10.496000289916992,-2.5889999866485596,-10.255000114440918,2.134999990463257
1621847839678,18.059999465942383,20.381000518798828,7.361000061035157,-2.549999952316284,-10.131999969482422,2.1170001029968266
1621847839688,13.93000030517578,23.17099952697754,4.440999984741211,-2.510999917984009,-10.013999938964844,1.89900004863739
1621847839698,10.079999923706056,24.861000061035156,2.1089999675750732,-2.510999917984009,-9.83899974822998,1.809999942779541
1621847839708,6.860000133514404,25.35199928283691,0.1340000033378601,-2.549999952316284,-9.70300006866455,1.7150000333786013
1621847839718,3.990000009536743,25.468999862670895,-1.3380000591278076,-2.628000020980835,-9.559000015258787,1.5809999704360962
1621847839728,1.3300000429153442,25.33099937438965,-2.569999933242798,-2.7070000171661377,-9.416000366210936,1.4470000267028809
1621847839738,-0.9800000190734864,26.441999435424805,-4.435999870300293,-2.864000082015991,-9.182000160217283,1.2489999532699585
1621847839748,-2.5899999141693115,28.86199951171875,-7.27899980545044,-2.9809999465942383,-9.00100040435791,1.121999979019165
1621847839758,-3.569999933242798,31.513999938964844,-10.222999572753906,-3.0989999771118164,-8.741999626159668,1.0080000162124634
1621847839768,-3.7100000381469727,34.65999984741211,-13.151000022888184,-3.25600004196167,-8.567000389099121,0.9190000295639038
1621847839778,-3.0799999237060547,38.81999969482422,-16.184999465942383,-3.413000106811523,-8.411999702453613,0.9459999799728392
1621847839788,-2.799999952316284,43.42599868774414,-20.135000228881836,-3.413000106811523,-8.282999992370605,0.8899999856948853
1621847839798,-2.380000114440918,48.255001068115234,-23.334999084472656,-3.3340001106262207,-8.314000129699707,0.8439999818801879
1621847839808,-2.799999952316284,52.15999984741211,-24.92099952697754,-3.25600004196167,-8.461999893188477,0.777999997138977
1621847839818,-3.7799999713897705,54.74300003051758,-25.461000442504883,-3.177000045776367,-8.532999992370605,0.7260000109672546
1621847839828,-4.900000095367432,56.53499984741211,-26.35300064086914,-3.138000011444092,-8.706999778747559,0.8149999976158142
1621847839838,-6.860000133514404,57.26499938964844,-26.86400032043457,-2.941999912261963,-8.869000434875488,0.8259999752044677
1621847839848,-8.890000343322754,56.63600158691406,-26.121999740600582,-2.746000051498413,-9.022999763488768,0.7990000247955322
1621847839858,-11.479999542236328,55.006000518798835,-25.343000411987305,-2.7070000171661377,-9.076000213623049,0.8690000176429749
1621847839868,-12.704999923706056,54.43450164794922,-25.728500366210938,-2.628000020980835,-8.95300006866455,0.8510000109672546
1621847839878,-13.93000030517578,53.862998962402344,-26.11400032043457,-2.510999917984009,-8.920999526977539,0.8970000147819519
1621847839888,-15.470000267028809,53.23400115966797,-27.788000106811523,-2.431999921798706,-8.805000305175781,0.9169999957084656
1621847839898,-16.729999542236328,53.56999969482422,-30.500999450683594,-2.2750000953674316,-8.812000274658203,0.955999970436096
1621847839908,-16.729999542236328,53.70399856567382,-33.67599868774414,-2.0789999961853027,-8.734999656677246,0.968999981880188
1621847839918,-16.65999984741211,52.698001861572266,-34.422000885009766,-1.9220000505447388,-8.579999923706055,0.9959999918937684
1621847839928,-15.890000343322754,50.89799880981445,-33.887001037597656,-1.8040000200271609,-8.394000053405762,1.069000005722046
1621847839938,-14.06999969482422,49.4010009765625,-32.65800094604492,-1.7649999856948853,-8.362000465393066,1.1150000095367432
1621847839948,-11.970000267028809,47.60900115966797,-30.55699920654297,-1.687000036239624,-8.477999687194824,1.093999981880188
1621847839958,-9.729999542236328,45.18899917602539,-27.714000701904297,-1.6480000019073486,-8.631999969482422,1.0670000314712524
1621847839968,-7.699999809265136,42.34700012207031,-25.301000595092773,-1.5299999713897705,-8.967000007629395,0.9279999732971193
1621847839978,-6.300000190734863,39.569000244140625,-23.65800094604492,-1.569000005722046,-9.461999893188477,0.8009999990463256
1621847839988,-6.300000190734863,36.28900146484375,-21.18000030517578,-1.6080000400543213,-9.854999542236328,0.7720000147819519
1621847839998,-7.8400001525878915,33.617000579833984,-19.73200035095215,-1.6480000019073486,-10.086999893188477,0.731000006198883
1621847840008,-10.149999618530272,31.69099998474121,-19.290000915527344,-1.6480000019073486,-10.227999687194824,0.6259999871253967
1621847840018,-11.199999809265137,29.802000045776367,-17.84600067138672,-1.569000005722046,-10.439000129699709,0.4699999988079071
1621847840028,-10.710000038146973,27.56800079345703,-15.255000114440918,-1.4509999752044678,-10.965999603271484,0.2969999909400939
1621847840038,-7.9099998474121085,23.650999069213867,-11.18299961090088,-1.2940000295639038,-12.034000396728516,0.0289999991655349
1621847840048,-6.369999885559082,17.663000106811523,-4.632999897003174,-1.2940000295639038,-13.090999603271484,-0.0780000016093254
1621847840058,-11.760000228881836,11.6899995803833,-2.203000068664551,-1.3339999914169312,-13.10200023651123,-0.238999992609024
1621847840068,-16.520000457763672,10.01099967956543,-5.982999801635742,-1.0980000495910645,-12.493000030517578,-0.5299999713897705
1621847840078,-19.040000915527344,11.373000144958496,-10.078000068664553,-0.8629999756813049,-12.008999824523926,-0.5640000104904174
1621847840088,-20.825000762939453,12.489500045776367,-13.79050064086914,-0.7450000047683715,-11.383999824523926,-0.4939999878406524
1621847840098,-22.61000061035156,13.605999946594238,-17.503000259399414,-0.3529999852180481,-10.48900032043457,-0.3759999871253967
1621847840108,-22.959999084472656,18.243000030517575,-32.11000061035156,0.3140000104904174,-9.819000244140623,-0.3370000123977661
1621847840118,-18.1299991607666,22.961000442504883,-45.564998626708984,1.0199999809265137,-9.484999656677246,-0.1990000009536743
1621847840128,-11.409999847412108,24.68400001525879,-51.303001403808594,1.687000036239624,-9.446000099182127,-0.19200000166893
1621847840138,-4.059999942779541,22.52199935913086,-52.75,2.236000061035156,-9.45300006866455,-0.152999997138977
1621847840148,3.359999895095825,16.573999404907227,-50.45899963378906,2.5889999866485596,-9.35099983215332,-0.0560000017285346
1621847840158,8.960000038146973,9.628000259399414,-44.930999755859375,2.7850000858306885,-9.20300006866455,0.0099999997764825
1621847840168,13.020000457763672,4.0329999923706055,-38.59600067138672,2.7850000858306885,-9.210000038146973,0.0489999987185001
1621847840178,15.890000343322754,-1.4160000085830688,-33.0890007019043,2.6670000553131104,-9.378000259399414,0.0989999994635581
1621847840188,17.290000915527344,-5.567999839782715,-29.697999954223633,2.4709999561309814,-9.513999938964846,0.1940000057220459
1621847840198,17.850000381469727,-7.960000038146973,-27.41900062561035,2.236000061035156,-9.513999938964846,0.1940000057220459
1621847840208,17.989999771118164,-8.402000427246094,-26.92799949645996,1.9609999656677248,-9.392000198364256,0.1759999990463256
1621847840218,17.56999969482422,-7.679999828338623,-26.58799934387207,1.687000036239624,-9.276000022888184,0.1969999969005584
1621847840228,16.8700008392334,-5.875,-25.131999969482425,1.4119999408721924,-9.204999923706056,0.248999997973442
1621847840238,15.609999656677246,-4.572999954223633,-22.840999603271484,1.2549999952316284,-9.071000099182127,0.3919999897480011
1621847840248,14.420000076293944,-3.2060000896453857,-20.11199951171875,1.0980000495910645,-8.833000183105469,0.3939999938011169
1621847840258,13.720000267028809,-2.038000106811523,-17.062999725341797,1.0199999809265137,-8.670999526977539,0.3829999864101409
1621847840268,12.8100004196167,-1.0889999866485596,-13.980999946594238,0.981000006198883,-8.62600040435791,0.3510000109672546
1621847840278,11.409999847412108,-0.090999998152256,-12.383999824523926,0.9020000100135804,-8.657999992370605,0.3059999942779541
1621847840288,10.220000267028809,1.3890000581741333,-11.909999847412108,0.8240000009536743,-8.696000099182129,0.2989999949932098
1621847840298,9.55500030517578,2.508000135421753,-12.210000038146973,0.7059999704360961,-8.682999610900879,0.2220000028610229
1621847840308,8.890000343322754,3.627000093460083,-12.510000228881836,0.6280000209808348,-8.720999717712402,0.2150000035762786
1621847840318,6.929999828338623,6.513999938964844,-13.5649995803833,0.5490000247955322,-8.78499984741211,0.123999997973442
1621847840328,5.039999961853027,9.175000190734863,-13.736000061035156,0.4309999942779541,-8.78499984741211,0.123999997973442
1621847840338,3.569999933242798,13.25,-13.869999885559082,0.3529999852180481,-8.8100004196167,0.0399999991059303
1621847840348,3.009999990463257,16.79800033569336,-13.031000137329102,0.3919999897480011,-8.847999572753906,0.032999999821186
1621847840358,3.1500000953674316,20.20800018310547,-12.215999603271484,0.4309999942779541,-8.862000465393066,0.1099999994039535
1621847840368,3.9200000762939458,22.941999435424805,-11.592000007629396,0.4309999942779541,-8.932999610900879,0.0579999983310699
1621847840378,5.460000038146973,25.18400001525879,-11.409999847412108,0.5099999904632568,-8.991999626159668,0.1669999957084655
1621847840388,7.210000038146973,27.093999862670895,-11.357999801635742,0.4309999942779541,-9.286999702453612,0.0350000001490116
1621847840398,8.329999923706055,29.993000030517575,-12.480999946594238,0.3529999852180481,-9.395999908447264,-0.0240000002086162
1621847840408,9.3100004196167,34.4739990234375,-14.107999801635742,0.2349999994039535,-9.543999671936035,-0.0900000035762786
1621847840418,9.520000457763674,39.66400146484375,-15.324999809265137,0.0390000008046627,-9.58899974822998,-0.0579999983310699
1621847840428,9.029999732971191,46.65900039672851,-16.295000076293945,-0.0780000016093254,-9.279999732971191,-0.003000000026077
1621847840438,7.630000114440918,54.50899887084961,-17.683000564575195,-0.1570000052452087,-9.003000259399414,0.006000000052154
1621847840448,8.539999961853027,62.93899917602539,-18.32900047302246,-0.3140000104904174,-9.17099952697754,0.0560000017285346
1621847840458,9.800000190734863,71.4260025024414,-17.68600082397461,-0.5490000247955322,-9.494000434875488,0.0790000036358833
1621847840468,11.550000190734863,80.48100280761719,-17.440000534057617,-0.981000006198883,-9.637000083923342,0.2129999995231628
1621847840478,12.949999809265137,91.0719985961914,-20.26300048828125,-1.3730000257492063,-9.637000083923342,0.2129999995231628
1621847840488,13.649999618530272,98.42749786376952,-22.875499725341797,-1.7649999856948853,-9.80500030517578,0.2630000114440918
1621847840498,14.350000381469728,105.78299713134766,-25.488000869750977,-2.3929998874664307,-10.095999717712402,0.3310000002384185
1621847840508,14.350000381469728,124.21600341796876,-30.05699920654297,-3.0199999809265137,-10.434000015258787,0.6700000166893005
1621847840518,11.340000152587892,147.31700134277344,-32.87799835205078,-3.490999937057495,-10.625,1.0740000009536743
1621847840528,7.349999904632568,175.53500366210935,-36.50299835205078,-3.6480000019073486,-10.553000450134276,1.565000057220459
1621847840538,2.1700000762939453,204.4510040283203,-42.06700134277344,-3.2170000076293945,-10.80500030517578,1.6399999856948853
1621847840548,-0.9800000190734864,230.99400329589844,-47.47999954223633,-2.9030001163482666,-11.619999885559082,1.9739999771118164
1621847840558,-0.7699999809265136,253.54400634765625,-49.189998626708984,-2.7070000171661377,-11.30500030517578,2.6670000553131104
1621847840568,-4.550000190734863,270.9020080566406,-53.30799865722656,-2.236000061035156,-10.01099967956543,3.015000104904175
1621847840578,-9.100000381469728,285.47900390625,-65.0250015258789,-1.569000005722046,-8.809000015258789,3.4260001182556152
1621847840588,-7.8400001525878915,299.9289855957031,-73.20999908447266,-0.981000006198883,-7.853000164031982,3.872999906539917
1621847840598,-6.579999923706055,308.1409912109375,-71.40699768066406,-0.4709999859333038,-6.927999973297119,4.275000095367432
1621847840608,-5.110000133514404,310.2950134277344,-65.48300170898438,0.5879999995231628,-6.611999988555908,4.290999889373779
1621847840618,2.0299999713897705,306.86199951171875,-57.70100021362305,1.4119999408721924,-7.711999893188477,3.9779999256134033
1621847840628,13.090000152587892,299.4830017089844,-47.70000076293945,1.72599995136261,-9.772999763488768,3.6940000057220455
1621847840638,18.479999542236328,287.67999267578125,-39.617000579833984,2.0789999961853027,-11.312999725341797,3.6210000514984126
1621847840648,17.639999389648438,269.5830078125,-36.553001403808594,2.9809999465942383,-11.588000297546388,3.374000072479248
1621847840658,14.420000076293944,246.197998046875,-31.719999313354492,4.079999923706055,-11.288999557495115,3.0280001163482666
1621847840668,13.93000030517578,220.11000061035156,-23.24099922180176,4.745999813079834,-11.149999618530272,2.694000005722046
1621847840678,13.789999961853027,205.7779998779297,-19.762001037597656,4.98199987411499,-11.159000396728516,2.2939999103546143
1621847840688,13.649999618530272,191.4459991455078,-16.283000946044922,5.059999942779541,-11.163999557495115,2.0940001010894775
1621847840698,12.31999969482422,161.67100524902344,-13.50100040435791,5.059999942779541,-10.92300033569336,1.8580000400543213
1621847840708,11.340000152587892,133.43600463867188,-11.79800033569336,5.020999908447266,-10.63700008392334,1.5900000333786013
1621847840718,10.920000076293944,106.14199829101562,-8.579000473022461,4.785999774932861,-10.29300022125244,1.4509999752044678
1621847840728,11.0600004196167,80.19499969482422,-5.335000038146973,4.315000057220459,-10.020999908447266,1.2599999904632568
1621847840738,11.340000152587892,56.68000030517578,-3.7950000762939458,3.7269999980926514,-9.715999603271484,1.1150000095367432
1621847840748,10.989999771118164,37.18000030517578,-4.461999893188477,3.138000011444092,-9.470999717712402,1.0779999494552612
1621847840758,10.149999618530272,22.054000854492188,-5.3520002365112305,2.510999917984009,-9.22599983215332,1.0420000553131104
1621847840768,8.960000038146973,11.211000442504885,-6.340000152587891,1.843999981880188,-9.012000083923342,0.9599999785423278
1621847840778,7.8400001525878915,4.633999824523926,-8.138999938964844,1.2940000295639038,-8.928000450134277,0.9350000023841856
1621847840788,6.510000228881836,1.3530000448226929,-10.494999885559082,0.8629999756813049,-8.87600040435791,0.865000009536743
1621847840798,4.96999979019165,0.524999976158142,-11.848999977111816,0.5879999995231628,-8.777999877929688,0.762000024318695
1621847840808,4.480000019073486,1.3930000066757202,-12.335000038146973,0.3140000104904174,-8.545999526977539,0.8029999732971191
1621847840818,4.550000190734863,3.0439999103546143,-12.826000213623049,0.1959999948740005,-8.385000228881836,0.7919999957084655
1621847840828,4.96999979019165,4.552000045776367,-11.70699977874756,0.2349999994039535,-8.314000129699707,0.8439999818801879
1621847840838,5.599999904632568,5.581999778747559,-9.89099979400635,0.3529999852180481,-8.352999687194824,0.8370000123977661
1621847840848,5.949999809265137,6.230999946594238,-7.927999973297118,0.4709999859333038,-8.597999572753906,0.8740000128746032
1621847840858,5.949999809265137,6.110000133514404,-7.238999843597413,0.5490000247955322,-8.791999816894531,0.8399999737739563
1621847840868,5.809999942779541,5.730999946594238,-6.701499938964844,0.7059999704360961,-9.022999763488768,0.7990000247955322
1621847840878,5.670000076293945,5.3520002365112305,-6.164000034332275,0.7850000262260437,-9.145999908447264,0.8169999718666076
1621847840888,5.739999771118164,3.7790000438690186,-5.303999900817871,1.0980000495910645,-9.076000213623049,0.8690000176429749
1621847840898,5.739999771118164,0.2590000033378601,-4.289999961853027,1.6480000019073486,-9.043999671936035,0.915000021457672
1621847840908,4.96999979019165,-6.294000148773193,-1.3940000534057615,2.0399999618530273,-9.366000175476074,0.9380000233650208
1621847840918,4.829999923706055,-15.197999954223633,1.940000057220459,2.510999917984009,-9.734999656677246,0.9919999837875366
1621847840928,2.940000057220459,-26.40999984741211,3.446000099182129,3.0989999771118164,-9.979999542236328,1.0279999971389773
1621847840938,-0.5600000023841857,-42.5,4.802999973297119,3.8440001010894775,-10.194000244140623,1.1100000143051147
1621847840948,-4.269999980926514,-63.17599868774414,7.980999946594238,4.4720001220703125,-10.496000289916992,1.0169999599456787
1621847840958,-8.890000343322754,-88.61599731445312,11.171999931335447,4.745999813079834,-10.741000175476074,1.0540000200271606
1621847840968,-15.050000190734863,-116.52300262451172,12.222000122070312,4.9029998779296875,-10.729999542236328,1.2150000333786013
1621847840978,-20.86000061035156,-143.37100219726562,12.107999801635742,5.059999942779541,-10.68000030517578,1.3830000162124634
1621847840988,-24.63999938964844,-169.50900268554688,12.402999877929688,5.138999938964844,-10.850000381469728,1.6720000505447388
1621847840998,-26.950000762939453,-196.66900634765625,13.656000137329102,5.296000003814697,-11.041000366210936,2.075999975204468
1621847841008,-30.8700008392334,-226.7530059814453,16.170000076293945,5.413000106811523,-10.88599967956543,2.7809998989105225
1621847841018,-35.560001373291016,-257.3999938964844,21.072999954223633,5.138999938964844,-10.817999839782717,3.071000099182129
1621847841028,-39.970001220703125,-285.00201416015625,25.232999801635746,4.629000186920166,-10.802000045776367,3.433000087738037
1621847841038,-44.79999923706055,-308.5199890136719,27.198999404907227,4.079999923706055,-10.913999557495115,3.611999988555908
1621847841048,-47.529998779296875,-327.8059997558594,28.135000228881836,3.3340001106262207,-11.32699966430664,3.6989998817443848
1621847841058,-48.22999954223633,-342.2170104980469,30.85300064086914,2.3540000915527344,-11.291000366210938,3.9440000057220455
1621847841068,-49.41999816894531,-346.92449951171875,32.759498596191406,1.687000036239624,-10.479000091552734,4.086999893188477
1621847841078,-50.61000061035156,-351.6319885253906,34.66600036621094,0.9020000100135804,-9.67300033569336,4.03000020980835
1621847841088,-55.15999984741211,-356.9599914550781,38.2760009765625,-0.0390000008046627,-9.28600025177002,4.0980000495910645
1621847841098,-55.22999954223633,-355.43798828125,45.36800003051758,-0.8629999756813049,-8.96399974822998,4.076000213623047
1621847841108,-52.709999084472656,-345.947998046875,52.016998291015625,-1.4119999408721924,-8.505000114440918,3.9570000171661377
1621847841118,-48.93000030517578,-331.80499267578125,52.02299880981445,-1.6480000019073486,-8.102999687194824,3.7100000381469727
1621847841128,-42.77000045776367,-316.3349914550781,49.3489990234375,-1.843999981880188,-7.669000148773193,3.506999969482422
1621847841138,-35.13999938964844,-299.697998046875,47.30699920654297,-2.000999927520752,-7.355000019073486,3.0850000381469727
1621847841148,-28.06999969482422,-281.9049987792969,43.54899978637695,-2.2750000953674316,-7.58900022506714,2.6050000190734863
1621847841158,-21.770000457763672,-263.0459899902344,36.56800079345703,-2.431999921798706,-8.178000450134277,2.1029999256134033
1621847841168,-16.520000457763672,-241.14999389648435,30.90399932861328,-2.510999917984009,-9.08199977874756,1.5850000381469729
1621847841178,-14.0,-217.68800354003903,28.85700035095215,-2.510999917984009,-9.92300033569336,1.1579999923706057
1621847841188,-14.0,-195.06100463867188,28.724000930786133,-2.2750000953674316,-10.5,0.8169999718666076
1621847841197,-16.100000381469727,-174.197998046875,30.128999710083008,-1.9220000505447388,-10.656999588012695,0.3510000109672546
1621847841207,-20.719999313354492,-154.57200622558594,30.88800048828125,-1.491000056266785,-10.763999938964844,0.0540000014007091
1621847841217,-25.969999313354492,-135.60299682617188,30.53700065612793,-1.1380000114440918,-10.859999656677246,-0.0829999968409538
1621847841227,-30.3799991607666,-117.95200347900392,29.597999572753903,-0.7450000047683715,-10.621000289916992,-0.0799999982118606
1621847841237,-33.599998474121094,-103.46700286865234,27.673999786376953,-0.3919999897480011,-10.144000053405762,-0.0759999975562095
1621847841247,-34.09000015258789,-91.26599884033205,24.99099922180176,-0.0780000016093254,-9.628000259399414,-0.0649999976158142
1621847841257,-30.65999984741211,-80.95099639892578,23.32699966430664,0.1180000007152557,-9.06700038909912,-0.0850000008940696
1621847841267,-25.40999984741211,-73.06400299072266,21.732999801635746,0.2750000059604644,-8.595999717712402,-0.0419999994337558
1621847841277,-21.665000915527344,-69.6925048828125,20.550498962402344,0.3140000104904174,-8.241999626159668,-0.0189999993890523
1621847841287,-17.920000076293945,-66.32099914550781,19.368000030517575,0.3529999852180481,-8.12600040435791,0.0010000000474974
1621847841297,-10.289999961853027,-60.14099884033203,16.974000930786133,0.2349999994039535,-8.27400016784668,-0.0649999976158142
1621847841307,-3.849999904632568,-54.35900115966797,15.222000122070312,0.1570000052452087,-8.395999908447266,-0.0469999983906745
1621847841317,-0.0700000002980232,-47.959999084472656,14.005000114440918,0.1570000052452087,-8.473999977111816,-0.0599999986588954
1621847841327,1.4700000286102295,-41.448001861572266,12.949000358581545,0.1959999948740005,-8.583000183105469,-0.1190000027418136
1621847841337,2.0999999046325684,-36.9630012512207,13.314000129699709,0.2349999994039535,-8.72599983215332,0.0149999996647238
1621847841347,1.4700000286102295,-33.1150016784668,14.062999725341797,0.1570000052452087,-8.777999877929688,0.0850000008940696
1621847841357,-0.4900000095367431,-28.951000213623047,14.229000091552734,0.0780000016093254,-8.694000244140625,0.0599999986588954
1621847841367,-2.0999999046325684,-25.410999298095703,13.503000259399414,0.0390000008046627,-8.668999671936035,0.1439999938011169
1621847841377,-2.7300000190734863,-22.1299991607666,12.232999801635742,-0.0390000008046627,-8.63700008392334,0.1899999976158142
1621847841387,-3.359999895095825,-18.177000045776367,10.371000289916992,-0.1959999948740005,-8.527999877929688,0.248999997973442
1621847841397,-4.409999847412109,-13.43299961090088,7.65399980545044,-0.3919999897480011,-8.439000129699707,0.4239999949932098
1621847841407,-4.619999885559082,-6.439000129699707,4.267000198364258,-0.5879999995231628,-8.362000465393066,0.4370000064373016
1621847841417,-4.829999923706055,1.2079999446868896,0.0,-0.7850000262260437,-8.670999526977539,0.3829999864101409
1621847841427,-6.440000057220459,9.90999984741211,-3.7969999313354497,-0.981000006198883,-8.954999923706055,0.4129999876022338
1621847841437,-9.3100004196167,19.42200088500977,-6.953000068664551,-1.0199999809265137,-9.053000450134276,0.5149999856948853
1621847841447,-11.970000267028809,29.218999862670895,-10.911999702453612,-0.981000006198883,-8.951000213623047,0.6129999756813049
1621847841457,-14.350000381469728,38.18000030517578,-15.37399959564209,-0.7850000262260437,-8.623000144958496,0.7900000214576721
1621847841467,-16.59000015258789,46.845001220703125,-20.17200088500977,-0.6669999957084655,-8.25100040435791,0.9350000023841856
1621847841477,-17.149999618530273,53.667999267578125,-25.01099967956543,-0.4309999942779541,-8.123000144958496,1.1169999837875366
1621847841487,-16.799999237060547,58.63899993896485,-28.61199951171875,-0.2750000059604644,-8.46399974822998,1.0169999599456787
1621847841497,-14.5600004196167,61.1609992980957,-30.01499938964844,-0.0390000008046627,-9.718999862670898,0.6759999990463256
1621847841507,-13.090000152587892,60.8125,-28.441999435424805,0.2349999994039535,-11.66800022125244,0.2129999995231628
1621847841517,-11.619999885559082,60.4640007019043,-26.868999481201172,0.2750000059604644,-13.310999870300291,0.0430000014603137
1621847841527,-10.079999923706056,54.73099899291992,-20.558000564575195,-0.1180000007152557,-13.218000411987305,0.4180000126361846
1621847841537,-11.970000267028809,45.03200149536133,-17.150999069213867,-0.1570000052452087,-11.961999893188477,0.5199999809265136
1621847841547,-16.65999984741211,36.195999145507805,-21.05500030517578,-0.2349999994039535,-10.79599952697754,0.6850000023841857
1621847841557,-17.989999771118164,30.652999877929688,-21.46299934387207,-0.4309999942779541,-10.26200008392334,0.8190000057220459
1621847841567,-16.729999542236328,26.027000427246097,-16.593000411987305,-0.7850000262260437,-10.461999893188477,0.8240000009536743
1621847841577,-14.420000076293944,21.184999465942383,-13.324000358581545,-0.9409999847412108,-11.234000205993652,0.6880000233650208
1621847841587,-10.56999969482422,17.454999923706055,-13.128000259399414,-1.0199999809265137,-11.993000030517578,0.4740000069141387
1621847841597,-6.650000095367432,14.539999961853027,-11.510000228881836,-1.1770000457763672,-12.630000114440918,0.2430000007152557
1621847841607,-3.569999933242798,12.00100040435791,-9.612000465393066,-1.1380000114440918,-12.815999984741213,0.1700000017881393
1621847841617,-1.6100000143051147,8.88700008392334,-10.090000152587892,-1.2549999952316284,-12.64799976348877,0.1199999973177909
1621847841627,-0.699999988079071,6.604000091552734,-12.055999755859377,-1.2940000295639038,-12.26099967956543,0.1879999935626983
1621847841637,-0.209999993443489,6.340000152587891,-15.798999786376951,-1.3339999914169312,-11.746000289916992,0.1990000009536743
1621847841647,-0.209999993443489,7.795000076293945,-21.229000091552734,-1.2940000295639038,-11.197999954223633,0.2560000121593475
1621847841657,-0.699999988079071,9.55799961090088,-27.600000381469727,-1.1380000114440918,-10.649999618530272,0.3129999935626983
1621847841667,-1.3300000429153442,10.77400016784668,-32.07600021362305,-0.9020000100135804,-10.17300033569336,0.31700000166893
1621847841677,-1.8899999856948853,11.078000068664553,-33.79999923706055,-0.5879999995231628,-9.85099983215332,0.2949999868869781
1621847841687,-1.6799999475479126,9.784000396728516,-33.31700134277344,-0.0780000016093254,-9.135000228881836,0.3009999990463256
1621847841697,-1.4700000286102295,7.347000122070312,-31.187999725341797,0.2349999994039535,-8.572999954223633,0.2809999883174896
1621847841707,-1.190000057220459,3.8599998950958256,-28.746000289916992,0.4709999859333038,-8.142000198364258,0.31700000166893
1621847841717,0.0700000002980232,-0.9599999785423278,-25.18899917602539,0.6669999957084655,-7.973999977111816,0.2669999897480011
1621847841727,1.8200000524520872,-6.860000133514404,-21.96500015258789,0.8240000009536743,-7.914999961853027,0.1580000072717666
1621847841737,3.6400001049041744,-12.703000068664553,-19.868000030517575,0.7850000262260437,-7.94600009918213,0.1120000034570694
1621847841747,4.235000133514404,-15.559499740600586,-19.589500427246097,0.8629999756813049,-7.777999877929688,0.061999998986721
1621847841757,4.829999923706055,-18.416000366210938,-19.31100082397461,0.9409999847412108,-7.552999973297118,0.1420000046491622
1621847841767,5.809999942779541,-24.75,-18.86400032043457,1.1380000114440918,-7.416999816894531,0.0460000000894069
1621847841777,6.230000019073486,-30.95800018310547,-18.323999404907227,1.3339999914169312,-7.473999977111816,-0.0829999968409538
1621847841787,7.349999904632568,-38.31399917602539,-16.920000076293945,1.5299999713897705,-7.5900001525878915,-0.1030000001192092
1621847841797,8.75,-47.23099899291992,-14.725000381469728,1.6080000400543213,-7.808000087738037,-0.2220000028610229
1621847841807,10.010000228881836,-57.506000518798835,-12.484999656677246,1.569000005722046,-8.173999786376953,-0.4059999883174896
1621847841817,10.710000038146973,-68.57099914550781,-10.597999572753906,1.491000056266785,-8.668999671936035,-0.5329999923706054
1621847841827,11.199999809265137,-79.4020004272461,-9.23799991607666,1.215999960899353,-9.17099952697754,-0.6209999918937683
1621847841837,10.850000381469728,-88.86199951171875,-7.992000102996825,0.9020000100135804,-9.666999816894531,-0.7490000128746032
1621847841847,9.380000114440918,-96.29100036621092,-6.175000190734863,0.7059999704360961,-10.23900032043457,-0.8889999985694885
1621847841857,8.050000190734863,-101.33499908447266,-4.576000213623047,0.4309999942779541,-10.987000465393066,-0.9409999847412108
1621847841867,6.019999980926514,-103.81999969482422,-3.380000114440918,0.2349999994039535,-11.67099952697754,-0.902999997138977
1621847841877,3.0799999237060547,-104.87100219726562,-4.276000022888184,0.0390000008046627,-11.725000381469728,-0.5939999818801879
1621847841887,-1.75,-104.42099761962892,-5.618000030517578,-0.0390000008046627,-10.947999954223633,-0.2579999864101409
1621847841897,-7.769999980926514,-103.52500152587892,-6.668000221252441,0.0,-9.96399974822998,0.0350000001490116
1621847841907,-10.289999961853027,-100.68699645996094,-8.656000137329102,0.2349999994039535,-9.342000007629396,0.3440000116825103
1621847841917,-9.3100004196167,-96.09700012207033,-10.902999877929688,0.5490000247955322,-9.163999557495115,0.6940000057220459
1621847841927,-8.399999618530273,-92.55699920654298,-12.836999893188477,0.8629999756813049,-9.197999954223633,0.887000024318695
1621847841937,-7.420000076293945,-90.33899688720705,-14.934000015258787,1.1770000457763672,-9.451000213623049,0.9629999995231628
1621847841947,-5.949999809265137,-88.23500061035156,-18.400999069213867,1.6480000019073486,-9.741000175476074,1.031000018119812
1621847841957,-3.6400001049041744,-86.91400146484375,-23.072999954223633,2.313999891281128,-10.140999794006348,1.0399999618530271
1621847841967,-1.399999976158142,-88.697998046875,-24.24099922180176,3.138000011444092,-10.54800033569336,1.0880000591278076
1621847841977,-0.0700000002980232,-93.45500183105467,-23.871000289916992,3.8829998970031734,-10.767999649047852,1.2079999446868896
1621847841987,0.699999988079071,-102.26200103759766,-23.5049991607666,4.511000156402588,-10.873000144958496,1.3489999771118164
1621847841997,0.6299999952316284,-107.50300598144533,-23.611499786376953,4.942999839782715,-10.746000289916992,1.531000018119812
1621847842007,0.5600000023841857,-112.74400329589844,-23.718000411987305,5.2170000076293945,-10.572999954223633,1.680999994277954
1621847842017,0.4199999868869781,-123.72899627685548,-24.30500030517578,5.374000072479248,-10.284000396728516,1.85099995136261
1621847842027,0.8399999737739563,-135.03900146484375,-25.871999740600582,5.492000102996826,-10.065999984741213,1.968999981880188
1621847842037,1.6100000143051147,-145.37100219726562,-27.339000701904297,5.492000102996826,-9.96399974822998,2.066999912261963
1621847842047,2.799999952316284,-155.42799377441406,-27.54800033569336,5.452000141143799,-10.02299976348877,2.1760001182556152
1621847842057,3.9200000762939458,-165.43099975585935,-26.04199981689453,5.335000038146973,-10.029999732971191,2.2149999141693115
1621847842067,4.690000057220459,-174.6959991455078,-23.48200035095215,5.296000003814697,-9.998000144958496,2.259999990463257
1621847842077,4.96999979019165,-183.4510040283203,-20.19300079345703,5.177999973297119,-9.857000350952148,2.365000009536743
1621847842087,5.389999866485596,-192.06700134277344,-15.670000076293944,4.98199987411499,-9.708999633789062,2.430000066757202
1621847842097,6.019999980926514,-199.5959930419922,-11.666999816894531,4.824999809265137,-9.586999893188477,2.4119999408721924
1621847842107,6.369999885559082,-206.343994140625,-8.87600040435791,4.668000221252441,-9.63199996948242,2.444000005722046
1621847842117,6.300000190734863,-212.2760009765625,-5.869999885559082,4.39300012588501,-9.638999938964846,2.4830000400543213
1621847842127,5.670000076293945,-217.86300659179688,-2.803999900817871,4.1579999923706055,-9.625,2.4049999713897705
1621847842137,5.25,-222.54600524902344,-0.4309999942779541,3.92300009727478,-9.649999618530272,2.321000099182129
1621847842147,5.389999866485596,-226.12600708007812,2.135999917984009,3.6480000019073486,-9.642999649047852,2.2829999923706055
1621847842157,4.690000057220459,-228.91200256347656,4.630000114440918,3.3340001106262207,-9.565999984741213,2.2960000038146973
1621847842167,4.550000190734863,-230.78900146484375,7.21400022506714,3.0199999809265137,-9.475000381469728,2.2330000400543213
1621847842177,4.690000057220459,-230.73199462890625,9.711000442504885,2.5889999866485596,-9.437000274658203,2.240000009536743
1621847842187,4.690000057220459,-228.41600036621097,10.687999725341797,2.118000030517578,-9.42300033569336,2.1619999408721924
1621847842197,5.039999961853027,-223.2460021972656,10.392000198364258,1.6480000019073486,-9.434000015258787,2.000999927520752
1621847842207,5.039999961853027,-215.56199645996097,9.54300022125244,1.2549999952316284,-9.58199977874756,1.934999942779541
1621847842217,3.9200000762939458,-206.53599548339844,9.14400005340576,0.9020000100135804,-9.748000144958496,1.746999979019165
1621847842227,2.5899999141693115,-196.86900329589844,9.142999649047852,0.5879999995231628,-9.836999893188477,1.5720000267028809
1621847842237,1.6099998950958252,-191.95999145507812,9.119999885559082,0.4309999942779541,-9.887000083923342,1.4029999971389773
1621847842247,0.6299999952316284,-187.05099487304688,9.097000122070312,0.2750000059604644,-9.788999557495115,1.3009999990463257
1621847842257,-1.399999976158142,-177.197998046875,10.053000450134276,0.1570000052452087,-9.65999984741211,1.24399995803833
1621847842267,-3.009999990463257,-168.64599609375,11.133999824523926,0.0780000016093254,-9.406999588012695,1.1690000295639038
1621847842277,-4.480000019073486,-159.87899780273435,11.401000022888184,0.0390000008046627,-9.194000244140623,1.087000012397766
1621847842287,-5.25,-152.08900451660156,11.565999984741213,-0.0390000008046627,-9.01900005340576,0.9990000128746032
1621847842297,-6.650000095367432,-145.03700256347656,10.677000045776367,-0.0780000016093254,-8.826000213623047,1.0329999923706057
1621847842307,-8.680000305175781,-137.88499450683594,8.8100004196167,-0.1180000007152557,-8.638999938964844,1.1059999465942385
1621847842317,-10.710000038146973,-130.72000122070312,5.666999816894531,-0.1570000052452087,-8.54800033569336,1.0420000553131104
1621847842327,-12.25,-124.34600067138672,2.1710000038146973,-0.1180000007152557,-8.54800033569336,1.0420000553131104
1621847842337,-13.789999961853027,-118.21099853515624,-1.5809999704360962,-0.1180000007152557,-8.793999671936035,1.0779999494552612
1621847842347,-14.699999809265137,-113.06999969482422,-6.1479997634887695,0.0,-9.437000274658203,0.8849999904632568
1621847842357,-16.450000762939453,-109.6240005493164,-9.16499996185303,0.0390000008046627,-10.119000434875488,0.6850000023841857
1621847842367,-21.0,-107.88500213623048,-11.77299976348877,0.0390000008046627,-10.30500030517578,0.6129999756813049
1621847842377,-24.709999084472656,-106.45400238037108,-15.855999946594238,0.1570000052452087,-10.090999603271484,0.531000018119812
1621847842387,-24.920000076293945,-106.0,-17.624000549316406,0.1959999948740005,-10.027999877929688,0.621999979019165
1621847842397,-24.5,-107.1719970703125,-16.62299919128418,0.1570000052452087,-9.822999954223633,0.8169999718666076
1621847842407,-20.86000061035156,-108.56700134277344,-16.371000289916992,0.0390000008046627,-9.5600004196167,0.902999997138977
1621847842417,-15.119999885559082,-109.75499725341795,-16.08300018310547,-0.1570000052452087,-9.53499984741211,0.9879999756813048
1621847842427,-10.359999656677246,-109.04100036621094,-16.099000930786133,-0.4709999859333038,-9.734999656677246,0.9919999837875366
1621847842437,-6.650000095367432,-107.1760025024414,-16.19700050354004,-0.7850000262260437,-9.965999603271484,0.9509999752044676
1621847842447,-4.900000095367432,-102.8730010986328,-16.006999969482422,-1.1380000114440918,-10.152999877929688,0.8790000081062316
1621847842457,-3.990000009536743,-97.01399993896484,-13.765000343322754,-1.3339999914169312,-10.519000053405762,0.6949999928474426
1621847842467,-4.09499979019165,-94.49549865722656,-11.722000122070312,-1.569000005722046,-10.968000411987305,0.5360000133514404
1621847842477,-4.199999809265137,-91.97699737548828,-9.678999900817873,-1.687000036239624,-11.354999542236328,0.4670000076293945
1621847842487,-4.619999885559082,-87.04100036621094,-5.822999954223633,-1.7649999856948853,-11.303000450134276,0.3970000147819519
1621847842497,-5.179999828338623,-82.01699829101562,-2.875999927520752,-1.7649999856948853,-10.979999542236328,0.3740000128746032
1621847842507,-4.269999980926514,-76.7249984741211,-1.4450000524520874,-1.72599995136261,-10.277999877929688,0.4580000042915344
1621847842517,-2.380000114440918,-71.927001953125,-0.0309999994933605,-1.6480000019073486,-10.006999969482422,0.5059999823570251
1621847842527,0.9800000190734864,-68.11199951171875,0.5,-1.569000005722046,-9.859999656677246,0.5720000267028807
1621847842537,5.179999828338623,-64.49099731445312,-0.2829999923706054,-1.4509999752044678,-9.821000099182127,0.5789999961853027
1621847842547,10.010000228881836,-60.95899963378906,-1.366000056266785,-1.3730000257492063,-9.821000099182127,0.5789999961853027
1621847842557,14.0,-58.00699996948242,-1.9830000400543213,-1.2549999952316284,-9.776000022888184,0.5469999909400939
1621847842567,17.079999923706055,-55.935001373291016,-2.0439999103546143,-1.1380000114440918,-9.690999984741213,0.5220000147819519
1621847842577,19.040000915527344,-54.72999954223633,-1.618000030517578,-1.0590000152587893,-9.536999702453612,0.5490000247955322
1621847842587,20.020000457763672,-54.43399810791016,-0.0740000009536743,-0.981000006198883,-9.428000450134276,0.6079999804496765
1621847842597,20.86000061035156,-54.16600036621094,0.8270000219345092,-0.8629999756813049,-9.37600040435791,0.5379999876022338
1621847842607,21.06999969482422,-54.483001708984375,1.4110000133514404,-0.981000006198883,-9.498000144958496,0.5559999942779541
1621847842617,21.209999084472656,-54.53900146484375,2.538000106811523,-1.0590000152587893,-9.388999938964846,0.615000009536743
1621847842627,20.299999237060547,-53.73199844360352,2.3959999084472656,-1.0590000152587893,-9.137000083923342,0.5400000214576721
1621847842637,20.299999237060547,-53.290000915527344,1.9049999713897705,-1.0199999809265137,-9.0600004196167,0.5529999732971191
1621847842647,21.13999938964844,-52.584999084472656,2.740000009536743,-0.9409999847412108,-8.944000244140625,0.5740000009536743
1621847842657,21.700000762939453,-52.38199996948242,3.203000068664551,-0.8629999756813049,-8.82800006866455,0.5939999818801879
1621847842667,22.225000381469727,-52.85449981689453,3.2614998817443848,-0.6669999957084655,-8.75100040435791,0.6079999804496765
1621847842677,22.75,-53.32699966430664,3.319999933242798,-0.4709999859333038,-8.67300033569336,0.621999979019165
1621847842687,24.219999313354492,-55.435001373291016,3.5880000591278076,-0.3529999852180481,-8.602999687194824,0.6740000247955322
1621847842697,25.270000457763672,-58.305999755859375,4.1479997634887695,-0.2349999994039535,-8.564000129699707,0.6809999942779541
1621847842707,26.38999938964844,-62.28400039672851,3.7309999465942383,-0.1959999948740005,-8.718999862670898,0.652999997138977
1621847842717,26.670000076293945,-66.73300170898438,3.1600000858306885,-0.1570000052452087,-8.842000007629395,0.6719999909400939
1621847842727,26.809999465942383,-71.96399688720703,2.5929999351501465,-0.3529999852180481,-9.163999557495115,0.6940000057220459
1621847842737,24.920000076293945,-76.1969985961914,1.2070000171661377,-0.5879999995231628,-9.50699996948242,0.8330000042915344
1621847842747,21.0,-78.9260025024414,-1.0509999990463257,-0.8629999756813049,-9.829999923706056,0.856000006198883
1621847842757,15.119999885559082,-79.68900299072266,-3.1760001182556152,-1.215999960899353,-9.998000144958496,0.906000018119812
1621847842767,8.399999618530273,-78.8010025024414,-4.583000183105469,-1.5299999713897705,-10.005000114440918,0.944000005722046
1621847842777,2.799999952316284,-75.39099884033203,-6.185999870300293,-1.843999981880188,-9.972999572753906,0.9900000095367432
1621847842787,-2.1700000762939453,-70.51300048828125,-7.244999885559082,-1.9609999656677248,-9.86400032043457,1.0490000247955322
1621847842797,-6.650000095367432,-65.3030014038086,-6.965000152587891,-2.0399999618530273,-9.902999877929688,1.0420000553131104
1621847842807,-9.9399995803833,-60.71200180053711,-5.586999893188477,-2.0789999961853027,-9.850000381469728,0.9720000028610228
1621847842817,-13.090000152587892,-56.0,-4.89900016784668,-2.0789999961853027,-9.76599979400635,0.9470000267028807
1621847842827,-15.68000030517578,-50.529998779296875,-5.284999847412109,-1.9220000505447388,-9.76599979400635,0.9470000267028807
1621847842837,-17.219999313354492,-45.87900161743164,-5.460000038146973,-1.72599995136261,-9.871000289916992,1.0880000591278076
1621847842847,-17.360000610351562,-42.185001373291016,-5.447999954223633,-1.4509999752044678,-10.187000274658203,1.0720000267028809
1621847842857,-16.3799991607666,-39.20800018310547,-4.99399995803833,-1.1380000114440918,-10.928000450134276,0.981000006198883
1621847842867,-15.81999969482422,-38.654502868652344,-3.90149998664856,-0.9409999847412108,-11.70699977874756,0.8830000162124633
1621847842877,-15.260000228881836,-38.10100173950195,-2.809000015258789,-0.7850000262260437,-11.758999824523926,0.9539999961853028
1621847842887,-17.5,-38.445999145507805,-2.869999885559082,-0.5879999995231628,-11.140999794006348,1.062999963760376
1621847842897,-19.459999084472656,-37.400001525878906,-7.5900001525878915,-0.4709999859333038,-10.156999588012695,1.3559999465942385
1621847842907,-18.270000457763672,-34.137001037597656,-15.614999771118164,-0.2349999994039535,-9.109999656677246,1.7400000095367432
1621847842916,-15.609999656677246,-28.7450008392334,-26.03700065612793,0.1180000007152557,-8.640999794006348,2.0209999084472656
1621847842926,-8.1899995803833,-22.437000274658203,-37.22200012207031,0.5490000247955322,-8.899999618530273,2.134999990463257
1621847842936,0.9100000262260436,-16.69700050354004,-45.59199905395508,1.0199999809265137,-9.647999763488768,2.0829999446868896
1621847842946,6.929999828338623,-14.093999862670898,-49.46900177001953,1.5299999713897705,-10.258999824523926,1.934999942779541
1621847842956,9.100000381469728,-13.310999870300291,-49.472999572753906,2.0399999618530273,-10.677000045776367,1.8220000267028809
1621847842966,7.420000076293945,-14.276000022888184,-47.22600173950195,2.431999921798706,-11.005000114440918,1.6440000534057615
1621847842976,4.409999847412109,-15.857000350952148,-43.097999572753906,2.6670000553131104,-11.197999954223633,1.6100000143051147
1621847842986,0.4199999868869781,-18.20800018310547,-39.03499984741211,2.7850000858306885,-11.100000381469728,1.5080000162124634
1621847842996,-2.309999942779541,-21.111000061035156,-35.069000244140625,3.0199999809265137,-10.73900032043457,1.4919999837875366
1621847843006,-3.7100000381469727,-24.358999252319336,-31.163000106811523,3.0989999771118164,-10.378000259399414,1.47599995136261
1621847843016,-3.2899999618530273,-27.50900077819824,-27.80900001525879,3.138000011444092,-10.003000259399414,1.3830000162124634
1621847843026,-1.75,-30.53700065612793,-23.93600082397461,3.177000045776367,-9.75,1.3079999685287476
1621847843036,0.209999993443489,-34.17399978637695,-20.242000579833984,3.2170000076293945,-9.536999702453612,1.22599995136261
1621847843046,2.1700000762939453,-37.4739990234375,-15.635000228881836,3.177000045776367,-9.28499984741211,1.1510000228881836
1621847843056,5.25,-41.08700180053711,-10.869999885559082,3.138000011444092,-9.071000099182127,1.069000005722046
1621847843066,7.0,-43.12200164794922,-8.598999977111816,3.0199999809265137,-8.857000350952148,0.9869999885559082
1621847843076,8.75,-45.15700149536133,-6.328000068664551,2.9030001163482666,-8.651000022888184,0.944000005722046
1621847843086,12.31999969482422,-49.15900039672851,-1.7730000019073486,2.7850000858306885,-8.380000114440918,0.9919999837875366
1621847843096,17.149999618530273,-53.02299880981445,2.805000066757202,2.7070000171661377,-8.102999687194824,1.0010000467300415
1621847843106,23.170000076293945,-56.854000091552734,6.394999980926514,2.510999917984009,-7.902999877929688,0.9959999918937684
1621847843116,29.260000228881836,-60.94900131225586,9.866000175476074,2.236000061035156,-7.818999767303467,0.9710000157356262
1621847843126,34.93000030517578,-63.494998931884766,12.616000175476074,1.8830000162124632,-7.742000102996825,0.9850000143051147
1621847843136,40.7400016784668,-64.03500366210938,13.657999992370604,1.569000005722046,-7.710000038146973,1.0299999713897705
1621847843146,46.47999954223633,-63.33300018310547,14.918999671936035,1.2549999952316284,-7.6599998474121085,1.1990000009536743
1621847843156,51.099998474121094,-61.08599853515625,15.883999824523926,1.0199999809265137,-7.551000118255616,1.2580000162124634
1621847843166,56.0,-58.10200119018555,16.694000244140625,0.7850000262260437,-7.603000164031982,1.3279999494552612
1621847843176,60.20000076293945,-54.577999114990234,17.67099952697754,0.5099999904632568,-7.797999858856201,1.5329999923706057
1621847843186,61.38999938964844,-50.952999114990234,17.67099952697754,0.3919999897480011,-7.986999988555909,1.6990000009536743
1621847843196,58.65999984741211,-45.39799880981445,15.593999862670898,0.1959999948740005,-8.406999588012695,1.8240000009536743
1621847843206,52.9900016784668,-39.2140007019043,11.565999984741213,-0.0780000016093254,-9.196000099182127,2.003000020980835
1621847843216,42.90999984741211,-31.704999923706055,7.275000095367432,-0.3919999897480011,-9.946000099182127,2.190000057220459
1621847843226,29.68000030517578,-21.80699920654297,3.546999931335449,-0.7059999704360961,-10.501999855041504,2.4100000858306885
1621847843236,15.609999656677246,-9.723999977111816,-0.0799999982118606,-0.9409999847412108,-10.697999954223633,2.615000009536743
1621847843246,2.309999942779541,4.091000080108643,-4.254000186920166,-1.0980000495910645,-10.685999870300291,2.7760000228881836
1621847843256,-10.010000228881836,18.218000411987305,-7.379000186920166,-1.215999960899353,-10.506999969482422,2.88700008392334
1621847843266,-14.909999847412108,25.834999084472656,-9.056500434875488,-1.215999960899353,-10.321000099182127,2.9600000381469727
1621847843276,-19.809999465942383,33.45199966430664,-10.734000205993652,-1.1770000457763672,-10.197999954223633,2.941999912261963
1621847843286,-28.13999938964844,48.45899963378906,-14.413999557495115,-1.2940000295639038,-10.197999954223633,2.941999912261963
1621847843296,-35.279998779296875,64.23600006103516,-19.238000869750977,-1.5299999713897705,-10.236000061035156,2.934999942779541
1621847843306,-40.529998779296875,81.48999786376953,-25.57799911499023,-1.6480000019073486,-10.571000099182127,2.7960000038146973
1621847843316,-43.68000030517578,99.98799896240232,-32.125,-1.843999981880188,-11.567999839782717,2.5810000896453857
1621847843326,-44.59000015258789,119.23600006103516,-37.6870002746582,-2.3929998874664307,-12.279000282287598,2.7739999294281006
1621847843336,-47.880001068115234,139.69200134277344,-43.25,-2.9030001163482666,-11.670000076293944,3.1600000858306885
1621847843346,-51.72999954223633,158.8070068359375,-48.053001403808594,-2.549999952316284,-9.29599952697754,3.697999954223633
1621847843356,-51.029998779296875,175.86700439453125,-43.624000549316406,-2.7070000171661377,-9.199999809265137,3.8350000381469727
1621847843366,-44.72999954223633,190.17100524902344,-32.43000030517578,-3.25600004196167,-9.732000350952148,4.138999938964844
1621847843376,-37.029998779296875,203.04600524902344,-26.03700065612793,-3.6480000019073486,-10.184000015258787,4.218999862670898
1621847843386,-33.040000915527344,216.9510040283203,-26.285999298095703,-3.8050000667572026,-10.486000061035156,4.125999927520752
1621847843396,-32.27000045776367,232.0760040283203,-25.395999908447266,-3.961999893188477,-10.994999885559082,4.076000213623047
1621847843406,-35.279998779296875,247.73699951171875,-21.49799919128418,-4.1579999923706055,-11.54300022125244,4.019000053405762
1621847843416,-40.25,262.8500061035156,-19.329999923706055,-4.000999927520752,-11.928999900817873,3.950999975204468
1621847843426,-47.459999084472656,276.0,-20.138999938964844,-3.490999937057495,-12.345000267028809,3.5989999771118164
1621847843436,-53.619998931884766,285.3389892578125,-21.90399932861328,-3.059999942779541,-12.626999855041504,3.390000104904175
1621847843446,-57.61000061035156,292.4909973144531,-23.770999908447266,-2.510999917984009,-12.284000396728516,3.250999927520752
1621847843456,-62.93000030517578,294.6520080566406,-27.156999588012695,-1.6480000019073486,-11.449999809265137,3.0399999618530273
1621847843466,-65.34500122070312,292.7095031738281,-27.42850112915039,-0.7850000262260437,-10.465999603271484,2.6559998989105225
1621847843476,-67.76000213623047,290.7669982910156,-27.700000762939453,0.0,-9.675000190734863,2.236999988555908
1621847843486,-69.44000244140625,283.49700927734375,-25.56999969482422,0.7850000262260437,-9.097999572753906,1.9010000228881836
1621847843496,-67.2699966430664,271.6440124511719,-25.66900062561035,1.5299999713897705,-8.494000434875488,1.4099999666213987
1621847843506,-63.279998779296875,255.447998046875,-27.743000030517575,2.1570000648498535,-7.973000049591064,0.944000005722046
1621847843516,-58.52000045776367,235.5019989013672,-28.70199966430664,2.549999952316284,-7.620999813079834,0.527999997138977
1621847843526,-51.869998931884766,213.77099609375,-29.618999481201172,2.7070000171661377,-7.436999797821045,0.1620000004768371
1621847843536,-44.45000076293945,191.54100036621097,-31.334999084472656,2.7070000171661377,-7.395999908447266,-0.0689999982714653
1621847843546,-38.56999969482422,169.88699340820312,-33.09199905395508,2.4709999561309814,-7.4120001792907715,-0.4309999942779541
1621847843556,-33.040000915527344,151.31500244140625,-34.59000015258789,2.197000026702881,-7.455999851226807,-0.637000024318695
1621847843566,-27.93000030517578,135.69900512695312,-35.922000885009766,1.9220000505447388,-7.558000087738037,-0.7350000143051147
1621847843576,-24.63999938964844,123.08000183105467,-36.512001037597656,1.6480000019073486,-7.6599998474121085,-0.8330000042915344
1621847843586,-22.260000228881836,112.69100189208984,-35.643001556396484,1.491000056266785,-7.717000007629395,-0.962000012397766
1621847843596,-20.510000228881836,104.0260009765625,-33.26100158691406,1.2940000295639038,-7.818999767303467,-1.059999942779541
1621847843606,-18.690000534057617,96.93800354003906,-30.957000732421875,1.1770000457763672,-7.896999835968018,-1.0740000009536743
1621847843616,-17.56999969482422,90.47100067138672,-27.334999084472656,1.0980000495910645,-7.896999835968018,-1.0740000009536743
1621847843626,-16.170000076293945,84.51499938964844,-22.982999801635746,1.0199999809265137,-7.967000007629395,-1.1260000467300415
1621847843636,-14.06999969482422,78.3759994506836,-17.597000122070312,0.9409999847412108,-8.076000213623047,-1.184999942779541
1621847843646,-11.479999542236328,72.91500091552734,-13.229000091552734,0.9020000100135804,-8.121000289916992,-1.1529999971389773
1621847843656,-8.470000267028809,67.39299774169922,-9.725000381469728,0.8629999756813049,-8.217000007629395,-1.2899999618530271
1621847843666,-4.96999979019165,62.29999923706055,-6.64300012588501,0.7450000047683715,-8.371000289916992,-1.3170000314712524
1621847843676,-3.2199997901916504,59.76799774169922,-5.383500099182129,0.6669999957084655,-8.635000228881836,-1.4029999971389773
1621847843686,-1.4700000286102295,57.23600006103515,-4.124000072479248,0.5879999995231628,-8.996000289916992,-1.3869999647140503
1621847843696,1.2599999904632568,51.667999267578125,-1.9780000448226929,0.5099999904632568,-9.383000373840332,-1.4550000429153442
1621847843706,2.1700000762939453,46.880001068115234,0.5899999737739563,0.2750000059604644,-9.904999732971191,-1.4279999732971191
1621847843716,2.0299999713897705,43.2140007019043,2.430999994277954,0.0,-10.505000114440918,-1.4140000343322754
1621847843726,0.4900000095367431,41.21099853515625,1.2960000038146973,-0.2750000059604644,-11.12600040435791,-1.2849999666213987
1621847843736,-2.6600000858306885,41.75,-2.163000106811523,-0.5879999995231628,-11.770999908447266,-1.2389999628067017
1621847843746,-7.489999771118165,44.43000030517578,-5.671000003814697,-0.9409999847412108,-12.390999794006348,-1.1089999675750732
1621847843756,-13.649999618530272,49.801998138427734,-9.130999565124512,-1.3730000257492063,-12.83199977874756,-0.8690000176429749
1621847843766,-21.559999465942383,58.36199951171875,-12.526000022888184,-1.8040000200271609,-12.630000114440918,-0.4350000023841857
1621847843776,-30.8700008392334,68.89199829101562,-13.796999931335447,-2.197000026702881,-11.821000099182127,-0.0529999993741512
1621847843786,-38.290000915527344,81.3499984741211,-10.675999641418455,-2.746000051498413,-10.92300033569336,0.5040000081062316
1621847843796,-41.439998626708984,98.4990005493164,-5.946000099182129,-3.372999906539917,-10.154999732971191,1.1169999837875366
1621847843806,-42.0,119.8769989013672,-3.0299999713897705,-3.8440001010894775,-9.76599979400635,1.6239999532699585
1621847843816,-41.29999923706055,144.31300354003906,-3.3410000801086426,-4.000999927520752,-9.904999732971191,1.9579999446868896
1621847843826,-40.040000915527344,171.57000732421875,-5.144999980926514,-3.8440001010894775,-10.376999855041504,2.1530001163482666
1621847843836,-39.619998931884766,198.1699981689453,-8.060999870300293,-3.3340001106262207,-11.060999870300291,2.191999912261963
1621847843846,-40.880001068115234,220.61099243164065,-9.149999618530272,-2.5889999866485596,-11.468000411987305,2.240000009536743
1621847843856,-42.77000045776367,237.26499938964844,-8.062000274658203,-1.72599995136261,-11.57699966430664,2.180999994277954
1621847843866,-43.540000915527344,249.7010040283203,-6.438000202178955,-0.8629999756813049,-11.42300033569336,2.2079999446868896
1621847843876,-43.04999923706055,258.1319885253906,-4.666999816894531,0.0,-11.100000381469728,2.184999942779541
1621847843886,-42.41999816894531,259.8394775390625,-3.263999938964844,0.8629999756813049,-10.699999809265137,2.1760001182556152
1621847843896,-41.790000915527344,261.5469970703125,-1.8609999418258667,1.5299999713897705,-10.17099952697754,2.109999895095825
1621847843906,-38.9900016784668,260.2460021972656,1.8899999856948853,2.0789999961853027,-9.866000175476074,1.9650000333786013
1621847843916,-34.5099983215332,256.37799072265625,5.685999870300293,2.628000020980835,-9.684000015258787,1.837000012397766
1621847843926,-29.190000534057617,250.45799255371097,8.623000144958496,3.138000011444092,-9.404999732971191,1.6080000400543213
1621847843936,-23.170000076293945,241.9429931640625,10.958999633789064,3.6089999675750737,-9.163999557495115,1.3710000514984133
1621847843946,-17.360000610351562,230.80799865722656,12.833999633789064,4.000999927520752,-8.871000289916992,1.065000057220459
1621847843956,-11.479999542236328,217.0050048828125,13.3149995803833,4.354000091552734,-8.585000038146973,0.7969999909400939
1621847843966,-5.460000038146973,201.43800354003903,12.914999961853027,4.4720001220703125,-8.291999816894531,0.4900000095367431
1621847843976,-0.0700000002980232,185.4530029296875,11.66100025177002,4.511000156402588,-8.142000198364258,0.31700000166893
1621847843986,4.409999847412109,169.8040008544922,8.901000022888184,4.511000156402588,-8.10099983215332,0.0850000008940696
1621847843996,7.139999866485596,154.52000427246094,6.491000175476074,4.433000087738037,-8.234999656677246,-0.0579999983310699
1621847844006,6.789999961853027,139.8489990234375,5.040999889373779,4.236000061035156,-8.505000114440918,-0.1059999987483024
1621847844016,3.7100000381469727,126.37000274658205,4.085999965667725,4.039999961853027,-8.692000389099121,-0.1780000030994415
1621847844026,-0.4199999868869781,115.23500061035156,2.3359999656677246,3.7660000324249263,-8.930000305175781,-0.1809999942779541
1621847844036,-4.550000190734863,105.89600372314452,1.6840000152587893,3.490999937057495,-9.14400005340576,-0.0989999994635581
1621847844046,-8.890000343322754,97.51100158691406,2.4800000190734863,3.2170000076293945,-9.17099952697754,0.0560000017285346
1621847844056,-12.31999969482422,91.09200286865236,4.618000030517578,2.9030001163482666,-9.076000213623049,0.19200000166893
1621847844066,-13.720000267028809,86.29499816894531,6.828999996185303,2.6670000553131104,-8.86400032043457,0.3490000069141387
1621847844076,-13.93000030517578,84.01249694824219,8.487500190734863,2.628000020980835,-8.710000038146973,0.3759999871253967
1621847844086,-14.140000343322754,81.7300033569336,10.145999908447266,2.5889999866485596,-8.678000450134277,0.4219999909400939
1621847844096,-13.229999542236328,77.13600158691406,15.236000061035156,2.5889999866485596,-8.65999984741211,0.5440000295639038
1621847844106,-11.970000267028809,71.4800033569336,20.707000732421875,2.549999952316284,-8.628000259399414,0.5899999737739563
1621847844116,-8.680000305175781,65.86900329589844,23.910999298095703,2.628000020980835,-8.602999687194824,0.6740000247955322
1621847844126,-3.990000009536743,60.922000885009766,24.95800018310547,2.5889999866485596,-8.564000129699707,0.6809999942779541
1621847844136,1.4700000286102295,56.38399887084961,24.086999893188477,2.4709999561309814,-8.756999969482422,0.6470000147819519
1621847844146,6.650000095367432,51.79800033569336,23.49099922180176,2.3540000915527344,-9.03499984741211,0.6380000114440918
1621847844156,10.989999771118164,47.678001403808594,23.47599983215332,2.2750000953674316,-9.312000274658203,0.6280000209808348
1621847844166,14.0,44.41699981689453,22.617000579833984,2.2750000953674316,-9.621000289916992,0.5740000009536743
1621847844176,14.770000457763672,42.077999114990234,21.777999877929688,2.313999891281128,-9.859999656677246,0.5720000267028807
1621847844186,13.789999961853027,39.72200012207031,21.433000564575195,2.2750000953674316,-9.968999862670898,0.5130000114440918
1621847844196,11.409999847412108,37.53200149536133,20.549999237060547,2.236000061035156,-10.006999969482422,0.5059999823570251
1621847844206,8.819999694824219,35.22800064086914,18.295000076293945,2.2750000953674316,-9.994000434875488,0.4289999902248382
1621847844216,6.230000019073486,33.0099983215332,15.55799961090088,2.2750000953674316,-9.954999923706056,0.4350000023841857
1621847844226,4.900000095367432,30.774999618530273,13.315999984741213,2.2750000953674316,-9.83899974822998,0.4560000002384185
1621847844236,4.550000190734863,27.527000427246097,11.18000030517578,2.2750000953674316,-9.645999908447264,0.4900000095367431
1621847844246,4.900000095367432,23.645999908447266,11.420000076293944,2.2750000953674316,-9.522999763488768,0.4720000028610229
1621847844256,4.760000228881836,18.22100067138672,14.371999740600586,2.1570000648498535,-9.503000259399414,0.356000006198883
1621847844266,5.320000171661377,12.670000076293944,18.440000534057617,2.000999927520752,-9.64400005340576,0.2509999871253967
1621847844276,5.390000343322754,10.462499618530272,18.868499755859375,1.7649999856948853,-9.770999908447264,0.0700000002980232
1621847844286,5.460000038146973,8.255000114440918,19.29700088500977,1.569000005722046,-9.873000144958496,-0.0280000008642673
1621847844296,4.829999923706055,5.4079999923706055,17.302000045776367,1.4119999408721924,-9.885000228881836,-0.1889999955892562
1621847844306,3.430000066757202,3.2699999809265137,14.508000373840332,1.1770000457763672,-9.878000259399414,-0.2280000001192092
1621847844316,1.3300000429153442,2.194999933242798,11.333000183105469,0.981000006198883,-9.83199977874756,-0.2599999904632568
1621847844326,-0.5600000023841857,1.781000018119812,8.843999862670898,0.7850000262260437,-9.663999557495115,-0.3100000023841857
1621847844336,-2.5899999141693115,0.4670000076293945,7.829999923706055,0.6280000209808348,-9.62600040435791,-0.3030000030994415
1621847844346,-4.409999847412109,-0.7730000019073486,10.027999877929688,0.4309999942779541,-9.748000144958496,-0.2849999964237213
1621847844356,-6.650000095367432,-3.010999917984009,13.045000076293944,0.1959999948740005,-9.902999877929688,-0.3120000064373016
1621847844366,-8.960000038146973,-4.953000068664551,15.190999984741213,0.0390000008046627,-10.159999847412108,-0.4370000064373016
1621847844376,-10.989999771118164,-6.14900016784668,15.121999740600586,-0.1959999948740005,-10.42300033569336,-0.5230000019073486
1621847844386,-11.6899995803833,-6.044000148773193,13.718999862670898,-0.3919999897480011,-10.763999938964844,-0.6230000257492065
1621847844396,-12.25,-6.202000141143799,12.197999954223633,-0.5490000247955322,-10.880000114440918,-0.6439999938011169
1621847844406,-13.090000152587892,-6.320000171661377,11.253000259399414,-0.6280000209808348,-10.880000114440918,-0.6439999938011169
1621847844416,-13.020000457763672,-6.822999954223633,12.08899974822998,-0.7450000047683715,-10.835000038146973,-0.6759999990463256
1621847844426,-11.970000267028809,-6.797999858856201,14.368000030517578,-0.8629999756813049,-10.756999969482422,-0.662000000476837
1621847844436,-10.989999771118164,-7.32100009918213,17.332000732421875,-1.0199999809265137,-10.571000099182127,-0.5889999866485595
1621847844446,-9.59000015258789,-7.75,20.17099952697754,-1.1380000114440918,-10.33199977874756,-0.5870000123977661
1621847844456,-7.489999771118165,-8.237000465393066,22.92799949645996,-1.2549999952316284,-10.152999877929688,-0.4760000109672546
1621847844466,-4.690000057220459,-7.453999996185303,24.131999969482425,-1.3339999914169312,-10.036999702453612,-0.4550000131130218
1621847844476,-2.0299999713897705,-6.6020002365112305,22.93199920654297,-1.4119999408721924,-9.960000038146973,-0.44200000166893
1621847844486,-1.1200000047683716,-5.7285003662109375,21.806499481201172,-1.4509999752044678,-10.01200008392334,-0.3709999918937683
1621847844496,-0.209999993443489,-4.855000019073486,20.680999755859375,-1.569000005722046,-10.043999671936035,-0.4169999957084655
1621847844506,0.1400000005960464,-2.6540000438690186,16.66200065612793,-1.569000005722046,-10.076000213623049,-0.4620000123977661
1621847844516,-0.7699999809265136,0.1599999964237213,12.395999908447266,-1.5299999713897705,-10.05500030517578,-0.578000009059906
1621847844526,-3.0799999237060547,3.013999938964844,8.706000328063965,-1.491000056266785,-10.079999923706056,-0.662000000476837
1621847844536,-5.389999866485596,5.020999908447266,5.789999961853027,-1.3730000257492063,-9.996000289916992,-0.6869999766349792
1621847844546,-7.8400001525878915,6.4070000648498535,3.973000049591065,-1.3339999914169312,-9.911999702453612,-0.7120000123977661
1621847844556,-10.56999969482422,7.48199987411499,2.313999891281128,-1.215999960899353,-9.737000465393066,-0.8009999990463256
1621847844566,-12.25,8.479000091552734,1.4950000047683716,-1.1770000457763672,-9.652999877929688,-0.8259999752044677
1621847844576,-12.390000343322754,8.994000434875488,0.5910000205039978,-1.1380000114440918,-9.576000213623049,-0.8119999766349792
1621847844586,-12.109999656677246,9.890000343322754,-0.4600000083446502,-1.0980000495910645,-9.45300006866455,-0.8299999833106994
1621847844596,-11.0600004196167,10.37600040435791,-2.009000062942505,-1.1380000114440918,-9.407999992370604,-0.8619999885559082
1621847844606,-9.520000457763674,11.913000106811523,-3.869999885559082,-1.1770000457763672,-9.31700038909912,-0.9259999990463256
1621847844615,-8.260000228881836,13.656000137329102,-5.695000171661377,-1.215999960899353,-9.23900032043457,-0.9120000004768372
1621847844625,-7.420000076293945,16.125999450683594,-7.605000019073486,-1.2549999952316284,-9.232999801635742,-0.9509999752044676
1621847844635,-6.929999828338623,19.05699920654297,-9.718000411987305,-1.2549999952316284,-9.277999877929688,-0.9190000295639038
1621847844645,-7.0,22.621000289916992,-10.583000183105469,-1.215999960899353,-9.270999908447264,-0.9580000042915344
1621847844655,-7.280000209808349,26.18600082397461,-10.23799991607666,-1.2549999952316284,-9.263999938964846,-0.9959999918937684
1621847844665,-6.789999961853027,29.332000732421875,-9.541000366210936,-1.1380000114440918,-9.342000007629396,-1.0099999904632568
1621847844675,-6.230000019073486,32.1349983215332,-7.697000026702882,-1.0590000152587893,-9.380000114440918,-1.0169999599456787
1621847844685,-5.389999866485596,34.016998291015625,-5.872000217437744,-0.9020000100135804,-9.411999702453612,-1.062000036239624
1621847844695,-4.795000076293945,34.678001403808594,-5.187000274658203,-0.8240000009536743,-9.366999626159668,-1.093999981880188
1621847844705,-4.199999809265137,35.3390007019043,-4.501999855041504,-0.7059999704360961,-9.359999656677246,-1.1330000162124634
1621847844715,-2.7300000190734863,35.577999114990234,-3.038000106811523,-0.5879999995231628,-9.359999656677246,-1.1330000162124634
1621847844725,-1.3300000429153442,34.59700012207031,-1.5049999952316284,-0.4709999859333038,-9.359999656677246,-1.1330000162124634
1621847844735,-0.0700000002980232,33.4010009765625,-0.3659999966621398,-0.3529999852180481,-9.392000198364256,-1.1779999732971191
1621847844745,1.6799999475479126,31.656999588012695,0.2509999871253967,-0.2750000059604644,-9.571000099182127,-1.2890000343322754
1621847844755,3.2899999618530273,29.56100082397461,0.449999988079071,-0.2349999994039535,-9.777999877929688,-1.2460000514984133
1621847844765,4.409999847412109,27.19700050354004,0.9570000171661376,-0.1570000052452087,-9.71399974822998,-1.1549999713897705
1621847844775,4.550000190734863,24.472000122070312,0.6899999976158142,-0.0780000016093254,-9.32800006866455,-1.087000012397766
1621847844785,3.849999904632568,21.746999740600582,0.4230000078678131,-0.1180000007152557,-9.012000083923342,-1.0709999799728394
1621847844795,3.430000066757202,19.488000869750977,0.7350000143051147,-0.2349999994039535,-8.9350004196167,-1.0579999685287476
1621847844805,3.7100000381469727,18.83099937438965,-0.3759999871253967,-0.2349999994039535,-8.916999816894531,-0.9350000023841856
1621847844815,3.359999895095825,18.61199951171875,-2.759999990463257,-0.1959999948740005,-8.845999717712402,-0.8830000162124633
1621847844825,3.2200000286102295,18.23900032043457,-4.673999786376953,-0.1570000052452087,-8.8149995803833,-0.8370000123977661
1621847844835,2.799999952316284,18.461000442504883,-6.341000080108643,-0.1180000007152557,-8.930000305175781,-0.8579999804496765
1621847844845,1.4700000286102295,18.940000534057617,-8.246000289916992,-0.0780000016093254,-9.232999801635742,-0.9509999752044676
1621847844855,-0.1400000005960464,20.05900001525879,-10.963000297546388,-0.0390000008046627,-9.619000434875488,-1.0190000534057615
1621847844865,-2.0299999713897705,20.73500061035156,-13.1899995803833,0.0780000016093254,-9.991999626159668,-1.1640000343322754
1621847844875,-3.5,21.68400001525879,-14.94200038909912,0.1180000007152557,-10.447999954223633,-1.2849999666213987
1621847844885,-5.179999828338623,22.641000747680664,-16.336999893188477,0.1570000052452087,-10.840999603271484,-1.3140000104904177
1621847844895,-7.420000076293945,22.729999542236328,-17.2450008392334,0.1959999948740005,-10.98900032043457,-1.3799999952316284
1621847844905,-9.449999809265137,22.49099922180176,-16.29199981689453,0.2349999994039535,-10.873000144958496,-1.3600000143051147
1621847844915,-10.114999771118164,22.259998321533203,-15.58650016784668,0.3140000104904174,-10.642000198364258,-1.319000005722046
1621847844925,-10.779999732971191,22.02899932861328,-14.880999565124512,0.4709999859333038,-9.991999626159668,-1.1640000343322754
1621847844935,-11.409999847412108,21.732999801635746,-12.800999641418455,0.5099999904632568,-9.637000083923342,-1.1419999599456787
1621847844945,-11.550000190734863,21.128999710083008,-10.98799991607666,0.5490000247955322,-9.39900016784668,-1.1390000581741333
1621847844955,-10.779999732971191,20.724000930786133,-9.496000289916992,0.5879999995231628,-9.282999992370604,-1.11899995803833
1621847844965,-9.170000076293944,20.253999710083008,-8.440999984741211,0.7059999704360961,-9.199000358581545,-1.1440000534057615
1621847844975,-7.8400001525878915,18.81399917602539,-7.13100004196167,0.7059999704360961,-9.076000213623049,-1.1619999408721924
1621847844985,-6.579999923706055,17.687000274658203,-5.980000019073486,0.7059999704360961,-9.043999671936035,-1.1169999837875366
1621847844995,-5.25,16.072999954223633,-4.486999988555908,0.6669999957084655,-9.005000114440918,-1.1100000143051147
1621847845005,-4.409999847412109,14.253000259399414,-3.0309998989105225,0.6280000209808348,-9.012000083923342,-1.0709999799728394
1621847845015,-3.5,12.512999534606934,-1.631999969482422,0.5879999995231628,-8.973999977111816,-1.0640000104904177
1621847845025,-2.6600000858306885,10.984999656677246,-0.621999979019165,0.5099999904632568,-8.987000465393066,-0.9869999885559082
1621847845035,-0.9800000190734864,9.244999885559082,-0.4309999942779541,0.4309999942779541,-8.954999923706055,-0.9419999718666076
1621847845045,0.7699999809265136,8.222999572753906,-0.6819999814033508,0.3919999897480011,-9.04599952697754,-0.8780000209808348
1621847845055,2.450000047683716,7.076000213623047,-1.0269999504089355,0.3140000104904174,-9.038999557495115,-0.9169999957084656
1621847845065,4.130000114440918,6.5970001220703125,-1.537999987602234,0.2349999994039535,-9.130000114440918,-0.8529999852180481
1621847845075,5.809999942779541,6.978000164031982,-1.6840000152587893,0.1959999948740005,-9.28499984741211,-0.8799999952316284
1621847845085,7.489999771118165,7.298999786376954,-2.694000005722046,0.1570000052452087,-9.407999992370604,-0.8619999885559082
1621847845095,8.119999885559082,8.352999687194824,-3.431999921798706,0.1570000052452087,-9.498000144958496,-0.7990000247955322
1621847845105,8.960000038146973,8.880000114440918,-3.197000026702881,0.1180000007152557,-9.645999908447264,-0.8640000224113464
1621847845115,9.3100004196167,8.831000328063965,-2.9210000038146973,0.1570000052452087,-9.80799961090088,-0.8529999852180481
1621847845125,9.170000076293944,9.447999954223633,-2.385999917984009,0.1180000007152557,-9.92300033569336,-0.8730000257492065
1621847845135,8.960000038146973,10.197999954223633,-2.6089999675750732,0.1570000052452087,-10.038999557495115,-0.8939999938011169
1621847845145,8.539999961853027,10.413000106811523,-2.819999933242798,0.1959999948740005,-10.142000198364258,-0.9919999837875366
1621847845155,8.119999885559082,10.628000259399414,-3.0309998989105225,0.2349999994039535,-10.211999893188477,-1.0440000295639038
1621847845165,6.300000190734863,10.607000350952148,-3.318000078201294,0.2750000059604644,-10.166999816894531,-1.0759999752044678
1621847845175,4.619999885559082,11.260000228881836,-4.197999954223633,0.3529999852180481,-10.166999816894531,-1.0759999752044678
1621847845185,2.5199999809265137,11.588000297546388,-4.85099983215332,0.3529999852180481,-10.194000244140623,-0.9210000038146972
1621847845195,0.5600000023841857,11.37399959564209,-5.244999885559082,0.3919999897480011,-10.109999656677246,-0.9459999799728392
1621847845205,-1.75,11.260000228881836,-5.4070000648498535,0.4709999859333038,-10.057000160217283,-1.0169999599456787
1621847845215,-3.849999904632568,10.883000373840332,-5.686999797821045,0.4709999859333038,-9.991999626159668,-1.1640000343322754
1621847845225,-5.949999809265137,10.180999755859377,-5.738999843597412,0.5879999995231628,-9.913999557495115,-1.1510000228881836
1621847845235,-7.8400001525878915,9.366000175476074,-5.953999996185303,0.6280000209808348,-9.843999862670898,-1.0980000495910645
1621847845245,-9.380000114440918,8.173999786376953,-6.448999881744385,0.6669999957084655,-9.727999687194824,-1.0779999494552612
1621847845255,-10.149999618530272,7.342999935150147,-7.376999855041504,0.6669999957084655,-9.64400005340576,-1.1030000448226929
1621847845265,-10.149999618530272,6.276000022888184,-7.777999877929688,0.6669999957084655,-9.53499984741211,-1.0440000295639038
1621847845275,-9.520000457763674,5.910999774932861,-8.126999855041504,0.7059999704360961,-9.458000183105469,-1.0299999713897705
1621847845285,-8.609999656677246,5.039000034332275,-8.42300033569336,0.7059999704360961,-9.425999641418455,-0.9850000143051147
1621847845295,-7.630000114440918,4.427000045776367,-8.175000190734863,0.7059999704360961,-9.43299961090088,-0.9459999799728392
1621847845305,-5.739999771118164,3.7339999675750737,-7.870999813079834,0.7059999704360961,-9.470999717712402,-0.953000009059906
1621847845315,-4.550000190734863,3.1419999599456787,-7.335999965667725,0.6669999957084655,-9.562000274658203,-0.8889999985694885
1621847845325,-3.849999904632568,2.3670001029968266,-6.974999904632568,0.6669999957084655,-9.55500030517578,-0.9279999732971193
1621847845335,-3.359999895095825,2.062999963760376,-6.460000038146973,0.6280000209808348,-9.593999862670898,-0.9350000023841856
1621847845345,-3.2200000286102295,1.5399999618530271,-5.9120001792907715,0.5879999995231628,-9.638999938964846,-0.902999997138977
1621847845355,-2.6600000858306885,1.7790000438690186,-5.6570000648498535,0.5490000247955322,-9.607999801635742,-0.8579999804496765
1621847845365,-2.4850001335144043,1.559999942779541,-5.624500274658203,0.5879999995231628,-9.569000244140623,-0.8510000109672546
1621847845375,-2.309999942779541,1.340999960899353,-5.5920000076293945,0.5490000247955322,-9.529999732971191,-0.8439999818801879
1621847845385,-1.5399999618530271,1.0779999494552612,-5.710000038146973,0.5490000247955322,-9.529999732971191,-0.8439999818801879
1621847845395,-0.6299999952316284,1.2079999446868896,-6.041999816894531,0.5099999904632568,-9.607999801635742,-0.8579999804496765
1621847845405,-0.3499999940395355,1.3940000534057615,-6.294000148773193,0.5490000247955322,-9.61400032043457,-0.8190000057220459
1621847845415,0.0700000002980232,1.24399995803833,-6.249000072479248,0.5490000247955322,-9.61400032043457,-0.8190000057220459
1621847845425,0.5600000023841857,0.9240000247955322,-6.447999954223633,0.5490000247955322,-9.638999938964846,-0.902999997138977
1621847845435,0.209999993443489,0.4860000014305114,-6.382999897003174,0.5490000247955322,-9.638999938964846,-0.902999997138977
1621847845445,0.3499999940395355,0.2179999947547912,-7.282999992370605,0.5490000247955322,-9.607999801635742,-0.8579999804496765
1621847845455,0.4900000095367431,-0.0049999998882412,-8.032999992370605,0.5490000247955322,-9.645999908447264,-0.8640000224113464
1621847845465,0.4199999868869781,-0.3210000097751617,-7.448999881744384,0.4709999859333038,-9.60099983215332,-0.8960000276565551
1621847845475,1.0499999523162842,-0.8199999928474426,-7.039000034332275,0.5099999904632568,-9.562000274658203,-0.8889999985694885
1621847845485,1.6100000143051147,-1.5169999599456787,-6.309000015258789,0.5099999904632568,-9.562000274658203,-0.8889999985694885
1621847845495,2.380000114440918,-2.288000106811523,-5.165999889373779,0.5099999904632568,-9.60099983215332,-0.8960000276565551
1621847845505,3.009999990463257,-2.802999973297119,-4.261000156402588,0.5099999904632568,-9.61400032043457,-0.8190000057220459
1621847845515,3.359999895095825,-3.51200008392334,-3.461999893188477,0.5099999904632568,-9.61400032043457,-0.8190000057220459
1621847845525,3.430000066757202,-4.079999923706055,-3.065000057220459,0.5099999904632568,-9.652999877929688,-0.8259999752044677
1621847845535,3.5,-4.834000110626221,-2.4159998893737793,0.4709999859333038,-9.69200038909912,-0.8330000042915344
1621847845545,3.359999895095825,-5.353000164031982,-2.2939999103546143,0.5099999904632568,-9.737000465393066,-0.8009999990463256
1621847845555,3.359999895095825,-6.046000003814697,-1.9900000095367432,0.4709999859333038,-9.729999542236328,-0.8389999866485595
1621847845565,3.0799999237060547,-6.552999973297119,-1.937000036239624,0.4309999942779541,-9.737000465393066,-0.8009999990463256
1621847845575,2.450000047683716,-7.22599983215332,-1.3450000286102295,0.3919999897480011,-9.737000465393066,-0.8009999990463256
1621847845585,2.4149999618530273,-7.422499656677246,-1.2374999523162842,0.3529999852180481,-9.737000465393066,-0.8009999990463256
1621847845595,2.380000114440918,-7.618999958038329,-1.1299999952316284,0.3919999897480011,-9.744000434875488,-0.762000024318695
1621847845605,2.5199999809265137,-7.940000057220459,-1.3289999961853027,0.3919999897480011,-9.729999542236328,-0.8389999866485595
1621847845615,2.6600000858306885,-8.324999809265137,-1.965999960899353,0.3529999852180481,-9.65999984741211,-0.787000000476837
1621847845625,2.799999952316284,-8.58899974822998,-2.0829999446868896,0.2750000059604644,-9.621000289916992,-0.7799999713897705
1621847845635,3.359999895095825,-8.694000244140625,-1.888000011444092,0.2349999994039535,-9.58899974822998,-0.7350000143051147
1621847845645,3.849999904632568,-8.762999534606934,-1.9010000228881836,0.2750000059604644,-9.58899974822998,-0.7350000143051147
1621847845655,4.829999923706055,-9.12399959564209,-1.4670000076293943,0.2349999994039535,-9.628000259399414,-0.7419999837875366
1621847845665,5.53000020980835,-9.28999996185303,-0.9269999861717224,0.1959999948740005,-9.595999717712402,-0.6959999799728394
1621847845675,5.599999904632568,-9.314000129699709,-0.7889999747276306,0.1570000052452087,-9.635000228881836,-0.703000009059906
1621847845685,6.019999980926514,-9.532999992370604,-0.7570000290870667,0.1180000007152557,-9.687000274658203,-0.6330000162124633
1621847845695,6.650000095367432,-9.083000183105469,-0.8909999728202819,0.0780000016093254,-9.642000198364256,-0.6639999747276306
1621847845705,7.070000171661377,-8.515999794006348,-1.287999987602234,0.0390000008046627,-9.687000274658203,-0.6330000162124633
1621847845715,7.349999904632568,-8.178999900817871,-1.5839999914169312,0.0390000008046627,-9.661999702453612,-0.5490000247955322
1621847845725,7.980000019073486,-7.631999969482423,-2.2699999809265137,0.0390000008046627,-9.661999702453612,-0.5490000247955322
1621847845735,8.539999961853027,-7.388999938964843,-2.440000057220459,0.0390000008046627,-9.682000160217283,-0.4329999983310699
1621847845745,9.100000381469728,-7.193999767303467,-2.3350000381469727,0.0390000008046627,-9.720999717712402,-0.4390000104904174
1621847845755,9.029999732971191,-6.5370001792907715,-2.431999921798706,0.0390000008046627,-9.791999816894531,-0.492000013589859
1621847845765,8.890000343322754,-6.317999839782715,-2.4649999141693115,0.0,-9.869000434875488,-0.5049999952316284
1621847845775,7.980000019073486,-6.03000020980835,-2.484999895095825,0.0,-9.946000099182127,-0.5189999938011169
1621847845785,6.860000133514404,-5.514999866485596,-2.180999994277954,0.0,-9.946000099182127,-0.5189999938011169
1621847845795,5.110000133514404,-5.007999897003174,-2.2339999675750732,0.0,-9.984999656677246,-0.5260000228881835
1621847845805,3.430000066757202,-4.8420000076293945,-2.7730000019073486,-0.0390000008046627,-9.939000129699709,-0.5580000281333923
1621847845815,2.8000001907348633,-4.511500358581543,-3.0345001220703125,0.0,-9.946000099182127,-0.5189999938011169
1621847845825,2.1700000762939453,-4.181000232696533,-3.2960000038146973,-0.0390000008046627,-9.901000022888184,-0.5509999990463256
1621847845835,1.0499999523162842,-3.5199999809265137,-3.8190000057220455,-0.0390000008046627,-9.862000465393066,-0.5440000295639038
1621847845845,0.2800000011920929,-2.640000104904175,-4.375,0.0,-9.78499984741211,-0.5299999713897705
1621847845855,-0.0700000002980232,-2.138000011444092,-5.210000038146973,0.0,-9.70699977874756,-0.5170000195503234
1621847845865,-0.209999993443489,-1.6790000200271606,-4.986999988555908,0.0,-9.68000030517578,-0.6710000038146972
1621847845875,0.4900000095367431,-1.8090000152587893,-4.65500020980835,0.0,-9.687000274658203,-0.6330000162124633
1621847845885,0.3499999940395355,-1.8940000534057615,-4.171999931335449,0.0,-9.72599983215332,-0.6389999985694885
1621847845895,-0.0700000002980232,-1.8739999532699585,-3.884000062942505,0.0,-9.803000450134276,-0.652999997138977
1621847845905,-0.5600000023841857,-2.377000093460083,-3.049000024795532,0.0,-9.842000007629396,-0.6600000262260437
1621847845915,-1.190000057220459,-2.1619999408721924,-2.6559998989105225,0.0,-9.842000007629396,-0.6600000262260437
1621847845925,-1.75,-2.388999938964844,-2.9800000190734863,-0.0390000008046627,-9.770999908447264,-0.6079999804496765
1621847845935,-1.9600000381469729,-1.934999942779541,-3.5399999618530273,-0.1180000007152557,-9.732000350952148,-0.6010000109672546
1621847845945,-2.1700000762939453,-1.2619999647140503,-4.131999969482422,-0.1570000052452087,-9.654999732971191,-0.5870000123977661
1621847845955,-2.0299999713897705,-0.8199999928474426,-4.623000144958496,-0.1570000052452087,-9.585000038146973,-0.5350000262260437
1621847845965,-1.190000057220459,-0.2119999974966049,-5.6529998779296875,-0.1570000052452087,-9.54599952697754,-0.527999997138977
1621847845975,-0.2800000011920929,0.4250000119209289,-6.038000106811523,-0.1570000052452087,-9.538999557495115,-0.5669999718666076
1621847845985,0.699999988079071,1.0700000524520874,-6.065999984741211,-0.1180000007152557,-9.57800006866455,-0.5740000009536743
1621847845995,1.4700000286102295,1.8849999904632568,-5.8520002365112305,-0.1570000052452087,-9.623000144958496,-0.5419999957084655
1621847846005,2.0299999713897705,2.5250000953674316,-5.453999996185303,-0.1570000052452087,-9.630000114440918,-0.5030000209808348
1621847846015,2.450000047683716,3.0889999866485596,-5.426000118255615,-0.1180000007152557,-9.553000450134276,-0.488999992609024
1621847846025,3.009999990463257,3.7339999675750737,-5.453999996185303,-0.0390000008046627,-9.54599952697754,-0.527999997138977
1621847846035,3.2200000286102295,3.934500217437744,-5.383500099182129,-0.0780000016093254,-9.553000450134276,-0.488999992609024
1621847846045,3.430000066757202,4.135000228881836,-5.313000202178955,-0.1180000007152557,-9.597999572753906,-0.4580000042915344
1621847846055,3.990000009536743,4.580999851226807,-5.020999908447266,-0.0780000016093254,-9.612000465393066,-0.3799999952316284
1621847846065,4.269999980926514,4.8979997634887695,-4.395999908447266,-0.0780000016093254,-9.619000434875488,-0.3420000076293945
1621847846075,4.900000095367432,5.238999843597412,-3.910000085830689,-0.0780000016093254,-9.70300006866455,-0.31700000166893
1621847846085,5.389999866485596,5.250999927520752,-3.9790000915527344,-0.0390000008046627,-9.710000038146973,-0.277999997138977
1621847846095,5.25,5.6479997634887695,-4.61899995803833,-0.0780000016093254,-9.755000114440918,-0.2460000067949295
1621847846105,5.110000133514404,6.048999786376953,-5.685999870300293,-0.0780000016093254,-9.786999702453612,-0.2919999957084655
1621847846115,4.760000228881836,6.381999969482422,-6.764999866485596,-0.0780000016093254,-9.83199977874756,-0.2599999904632568
1621847846125,3.6400001049041744,6.535999774932861,-7.235000133514405,-0.0390000008046627,-9.90999984741211,-0.2739999890327453
1621847846135,2.7300000190734863,6.482999801635742,-7.742000102996825,0.0,-9.94200038909912,-0.3190000057220459
1621847846145,1.399999976158142,6.454999923706055,-7.177999973297119,0.0,-9.902999877929688,-0.3120000064373016
1621847846155,0.5600000023841857,6.26800012588501,-6.927000045776367,0.0390000008046627,-9.826000213623049,-0.2989999949932098
1621847846165,-0.0700000002980232,6.35699987411499,-6.626999855041504,0.0390000008046627,-9.793999671936035,-0.2529999911785125
1621847846175,-0.0700000002980232,6.239999771118164,-6.36299991607666,0.0,-9.748000144958496,-0.2849999964237213
1621847846185,0.699999988079071,6.150000095367432,-6.663000106811523,-0.0390000008046627,-9.638999938964846,-0.2259999960660934
1621847846195,1.4700000286102295,6.4670000076293945,-7.247000217437744,-0.0390000008046627,-9.562000274658203,-0.2119999974966049
1621847846205,1.8899999856948853,6.640999794006348,-7.429999828338623,0.0,-9.562000274658203,-0.2119999974966049
1621847846215,2.450000047683716,6.576000213623047,-7.868000030517577,0.0,-9.586999893188477,-0.2960000038146972
1621847846225,2.5199999809265137,6.758999824523926,-7.692999839782715,0.0390000008046627,-9.663999557495115,-0.3100000023841857
1621847846235,2.309999942779541,6.321000099182129,-7.627999782562256,0.0780000016093254,-9.772999763488768,-0.3689999878406524
1621847846245,1.2599999904632568,5.6519999504089355,-7.461999893188477,0.0390000008046627,-9.772999763488768,-0.3689999878406524
1621847846255,0.8399999737739563,5.284999847412109,-6.993499755859375,0.0780000016093254,-9.85099983215332,-0.3829999864101409
1621847846265,0.4199999868869781,4.918000221252441,-6.525000095367432,0.0780000016093254,-9.88199996948242,-0.4280000030994415
1621847846275,-0.4199999868869781,4.460000038146973,-5.539999961853027,0.0780000016093254,-9.85099983215332,-0.3829999864101409
1621847846285,-1.4700000286102295,3.2149999141693115,-4.124000072479248,0.0,-9.85099983215332,-0.3829999864101409
1621847846294,-1.6799999475479126,2.9719998836517334,-3.9539999961853023,-0.0390000008046627,-9.812000274658203,-0.3759999871253967
1621847846304,-1.5399999618530271,2.9679999351501465,-4.736999988555908,-0.1180000007152557,-9.767000198364256,-0.4079999923706054
1621847846315,-1.4700000286102295,2.9760000705718994,-5.5879998207092285,-0.1570000052452087,-9.772999763488768,-0.3689999878406524
1621847846324,-1.190000057220459,3.5269999504089355,-6.698999881744385,-0.1180000007152557,-9.767000198364256,-0.4079999923706054
1621847846334,-1.1200000047683716,4.098999977111816,-7.5229997634887695,-0.1570000052452087,-9.812000274658203,-0.3759999871253967
1621847846344,-1.3300000429153442,4.447000026702881,-7.888000011444091,-0.1180000007152557,-9.80500030517578,-0.414000004529953
1621847846354,-1.9600000381469729,4.434999942779541,-7.818999767303467,-0.0780000016093254,-9.843999862670898,-0.4210000038146972
1621847846364,-2.450000047683716,4.419000148773193,-7.323999881744384,-0.0780000016093254,-9.80500030517578,-0.414000004529953
1621847846374,-2.799999952316284,4.176000118255615,-7.1539998054504395,-0.0780000016093254,-9.760000228881836,-0.4460000097751617
1621847846384,-3.009999990463257,3.6570000648498535,-7.0320000648498535,-0.0390000008046627,-9.71399974822998,-0.4779999852180481
1621847846394,-3.2899999618530273,3.4739999771118164,-7.205999851226807,-0.0390000008046627,-9.71399974822998,-0.4779999852180481
1621847846404,-3.430000066757202,3.181999921798706,-6.760000228881836,-0.0780000016093254,-9.661999702453612,-0.5490000247955322
1621847846414,-2.940000057220459,2.663000106811523,-6.638000011444092,-0.0390000008046627,-9.668999671936035,-0.5099999904632568
1621847846424,-2.309999942779541,2.5250000953674316,-6.663000106811523,-0.1180000007152557,-9.597999572753906,-0.4580000042915344
1621847846434,-1.8899999856948853,2.0510001182556152,-6.390999794006348,-0.0780000016093254,-9.572999954223633,-0.3740000128746032
1621847846444,-1.1200000047683716,2.1080000400543213,-6.309999942779541,-0.0390000008046627,-9.5600004196167,-0.4510000050067901
1621847846454,0.0,1.8769999742507937,-6.208000183105469,-0.0390000008046627,-9.56700038909912,-0.4120000004768371
1621847846464,0.524999976158142,1.681999921798706,-6.31350040435791,-0.0780000016093254,-9.56700038909912,-0.4120000004768371
1621847846474,1.0499999523162842,1.4869999885559082,-6.419000148773193,-0.0780000016093254,-9.597999572753906,-0.4580000042915344
1621847846484,1.6799999475479126,1.812000036239624,-6.645999908447266,-0.0390000008046627,-9.597999572753906,-0.4580000042915344
1621847846494,2.240000009536743,1.950000047683716,-6.622000217437744,-0.0390000008046627,-9.604999542236328,-0.4189999997615814
1621847846504,2.799999952316284,2.184999942779541,-7.14900016784668,-0.0390000008046627,-9.619000434875488,-0.3420000076293945
1621847846514,3.5,2.816999912261963,-7.109000205993652,-0.0390000008046627,-9.579999923706056,-0.3350000083446502
1621847846524,3.7100000381469727,3.255000114440918,-7.173999786376953,-0.0390000008046627,-9.593999862670898,-0.2579999864101409
1621847846534,4.619999885559082,3.194000005722046,-6.828999996185303,-0.0390000008046627,-9.593999862670898,-0.2579999864101409
1621847846544,5.53000020980835,3.4260001182556152,-6.929999828338623,-0.0390000008046627,-9.710000038146973,-0.277999997138977
1621847846554,6.019999980926514,3.6930000782012935,-6.03000020980835,-0.0780000016093254,-9.722999572753906,-0.2010000050067901
1621847846564,6.510000228881836,3.9040000438690186,-5.210999965667725,-0.0780000016093254,-9.762000083923342,-0.2080000042915344
1621847846574,6.71999979019165,4.203999996185303,-4.0920000076293945,-0.0780000016093254,-9.776000022888184,-0.1299999952316284
1621847846584,6.650000095367432,4.500999927520752,-3.7560000419616695,-0.0780000016093254,-9.845999717712402,-0.1829999983310699
1621847846594,6.019999980926514,4.581999778747559,-3.812000036239624,-0.0780000016093254,-9.937000274658203,-0.1190000027418136
1621847846604,4.900000095367432,4.314000129699707,-3.503999948501587,-0.0390000008046627,-9.97599983215332,-0.1260000020265579
1621847846614,3.6400001049041744,4.03000020980835,-3.910000085830689,-0.0390000008046627,-9.968999862670898,-0.164000004529953
1621847846624,2.380000114440918,4.01800012588501,-3.8410000801086426,-0.0390000008046627,-9.968999862670898,-0.164000004529953
1621847846634,1.0499999523162842,3.325000047683716,-3.5360000133514404,-0.0390000008046627,-9.97599983215332,-0.1260000020265579
1621847846644,-0.209999993443489,2.744999885559082,-3.069999933242798,-0.0390000008046627,-9.897999763488768,-0.1120000034570694
1621847846654,-0.4549999833106994,2.4749999046325684,-3.1529998779296875,-0.0780000016093254,-9.821000099182127,-0.0989999994635581
1621847846664,-0.699999988079071,2.2049999237060547,-3.236000061035156,-0.0780000016093254,-9.776000022888184,-0.1299999952316284
1621847846674,-1.1200000047683716,1.8079999685287476,-3.803999900817871,-0.0780000016093254,-9.76900005340576,-0.1689999997615814
1621847846684,-1.0499999523162842,1.430999994277954,-4.084000110626221,-0.1180000007152557,-9.800999641418455,-0.2150000035762786
1621847846694,-1.2599999904632568,1.381999969482422,-5.015999794006348,-0.1180000007152557,-9.762000083923342,-0.2080000042915344
1621847846704,-1.6100000143051147,1.2970000505447388,-5.742000102996826,-0.1570000052452087,-9.762000083923342,-0.2080000042915344
1621847846714,-1.9600000381469729,1.4140000343322754,-6.00600004196167,-0.1180000007152557,-9.722999572753906,-0.2010000050067901
1621847846724,-2.450000047683716,1.6740000247955322,-6.671000003814697,-0.1180000007152557,-9.755000114440918,-0.2460000067949295
1621847846734,-2.5899999141693115,2.013999938964844,-7.39300012588501,-0.1570000052452087,-9.678000450134276,-0.2329999953508377
1621847846744,-3.009999990463257,2.431999921798706,-7.744999885559082,-0.1180000007152557,-9.678000450134276,-0.2329999953508377
1621847846754,-2.7300000190734863,2.674999952316284,-7.915999889373779,-0.1180000007152557,-9.67099952697754,-0.2709999978542327
1621847846764,-2.6600000858306885,2.8580000400543213,-7.741000175476073,-0.0780000016093254,-9.6850004196167,-0.1940000057220459
1621847846774,-2.380000114440918,3.4170000553131104,-7.2870001792907715,-0.1180000007152557,-9.710000038146973,-0.277999997138977
1621847846784,-2.0299999713897705,3.5799999237060547,-7.401000022888184,-0.0780000016093254,-9.710000038146973,-0.277999997138977
1621847846794,-2.1700000762939453,3.73799991607666,-7.089000225067139,-0.0780000016093254,-9.70300006866455,-0.31700000166893
1621847846804,-2.0299999713897705,3.8670001029968266,-7.421000003814697,-0.0780000016093254,-9.663999557495115,-0.3100000023841857
1621847846814,-1.75,3.9319999217987065,-8.192000389099121,-0.0390000008046627,-9.663999557495115,-0.3100000023841857
1621847846824,-1.5399999618530271,4.427000045776367,-8.175000190734863,0.0,-9.619000434875488,-0.3420000076293945
1621847846834,-1.6100000143051147,4.005000114440918,-7.396999835968018,0.0390000008046627,-9.619000434875488,-0.3420000076293945
1621847846844,-1.190000057220459,3.9570000171661377,-7.120999813079834,0.0390000008046627,-9.619000434875488,-0.3420000076293945
1621847846854,-1.0500000715255735,3.963000059127808,-7.1554999351501465,0.0390000008046627,-9.612000465393066,-0.3799999952316284
1621847846864,-0.9100000262260436,3.9690001010894775,-7.190000057220459,0.0390000008046627,-9.619000434875488,-0.3420000076293945
1621847846874,-0.4900000095367431,3.7049999237060542,-7.308000087738037,0.0390000008046627,-9.663999557495115,-0.3100000023841857
1621847846884,0.4900000095367431,3.4089999198913574,-7.644000053405762,0.0390000008046627,-9.70300006866455,-0.31700000166893
1621847846894,0.4900000095367431,3.5510001182556152,-8.045999526977539,0.0390000008046627,-9.70300006866455,-0.31700000166893
1621847846904,0.699999988079071,3.424999952316284,-8.138999938964844,0.0,-9.70300006866455,-0.31700000166893
1621847846914,0.8399999737739563,3.299999952316284,-8.232000350952148,0.0,-9.70300006866455,-0.31700000166893
1621847846924,0.9100000262260436,3.36899995803833,-8.220000267028809,0.0,-9.710000038146973,-0.277999997138977
1621847846934,0.9100000262260436,3.5309998989105225,-8.333000183105469,0.0390000008046627,-9.70300006866455,-0.31700000166893
1621847846944,0.5600000023841857,3.461999893188477,-8.345999717712402,0.0390000008046627,-9.741999626159668,-0.3240000009536743
1621847846954,0.3499999940395355,4.013000011444092,-8.248000144958496,0.0,-9.741999626159668,-0.3240000009536743
1621847846964,0.0700000002980232,4.565000057220459,-8.151000022888184,0.0390000008046627,-9.741999626159668,-0.3240000009536743
1621847846974,-0.4900000095367431,4.986999988555908,-7.72100019454956,0.0390000008046627,-9.819000244140623,-0.3370000123977661
1621847846984,-0.9100000262260436,5.688000202178955,-7.669000148773193,0.0390000008046627,-9.793999671936035,-0.2529999911785125
1621847846994,-0.8399999737739563,5.857999801635742,-7.426000118255616,0.0780000016093254,-9.793999671936035,-0.2529999911785125
1621847847004,-1.2599999904632568,6.333000183105469,-7.697000026702882,0.0780000016093254,-9.83899974822998,-0.221000000834465
1621847847014,-1.6100000143051147,6.26800012588501,-8.135000228881836,0.1180000007152557,-9.83199977874756,-0.2599999904632568
1621847847024,-1.8200000524520872,6.855999946594238,-8.244999885559082,0.1180000007152557,-9.826000213623049,-0.2989999949932098
1621847847034,-1.9600000381469729,7.261000156402587,-8.529000282287598,0.1570000052452087,-9.779999732971191,-0.3300000131130218
1621847847044,-1.8200000524520872,7.492000102996825,-8.630000114440918,0.1959999948740005,-9.786999702453612,-0.2919999957084655
1621847847054,-2.134999990463257,7.404999732971192,-8.538999557495117,0.1570000052452087,-9.779999732971191,-0.3300000131130218
1621847847064,-2.450000047683716,7.317999839782715,-8.447999954223633,0.1959999948740005,-9.748000144958496,-0.2849999964237213
1621847847074,-2.450000047683716,7.244999885559082,-8.034000396728516,0.2750000059604644,-9.741999626159668,-0.3240000009536743
1621847847084,-2.5899999141693115,6.863999843597412,-7.888000011444091,0.3140000104904174,-9.734999656677246,-0.3619999885559082
1621847847094,-2.6600000858306885,6.218999862670898,-7.859000205993653,0.3140000104904174,-9.779999732971191,-0.3300000131130218
1621847847104,-2.6600000858306885,5.598999977111816,-7.968999862670899,0.3140000104904174,-9.727999687194824,-0.4009999930858612
1621847847114,-3.359999895095825,5.064000129699707,-7.3520002365112305,0.3529999852180481,-9.760000228881836,-0.4460000097751617
1621847847124,-3.2899999618530273,3.888000011444092,-7.132999897003174,0.3529999852180481,-9.767000198364256,-0.4079999923706054
1621847847134,-3.0799999237060547,3.3239998817443848,-7.1620001792907715,0.3140000104904174,-9.720999717712402,-0.4390000104904174
1621847847144,-3.1500000953674316,2.881999969482422,-7.879000186920166,0.2750000059604644,-9.727999687194824,-0.4009999930858612
1621847847154,-3.430000066757202,2.8289999961853027,-8.38599967956543,0.2750000059604644,-9.727999687194824,-0.4009999930858612
1621847847164,-3.569999933242798,2.7929999828338623,-8.178999900817871,0.3140000104904174,-9.720999717712402,-0.4390000104904174
1621847847174,-3.6400001049041744,2.558000087738037,-7.651999950408936,0.2750000059604644,-9.753000259399414,-0.4850000143051147
1621847847184,-3.849999904632568,2.740000009536743,-7.478000164031982,0.3140000104904174,-9.753000259399414,-0.4850000143051147
1621847847194,-3.5,2.4809999465942383,-6.813000202178955,0.3140000104904174,-9.720999717712402,-0.4390000104904174
1621847847204,-3.5,2.2170000076293945,-5.7220001220703125,0.3140000104904174,-9.682000160217283,-0.4329999983310699
1621847847214,-3.1500000953674316,1.9010000228881836,-5.138000011444092,0.3140000104904174,-9.682000160217283,-0.4329999983310699
1621847847224,-2.450000047683716,1.6859999895095823,-5.531000137329102,0.3140000104904174,-9.637000083923342,-0.4639999866485595
1621847847234,-1.6799999475479126,1.2039999961853027,-5.616000175476074,0.3140000104904174,-9.637000083923342,-0.4639999866485595
1621847847244,-0.9100000262260436,1.3329999446868896,-5.948999881744385,0.2349999994039535,-9.637000083923342,-0.4639999866485595
1621847847254,-0.9100000262260436,1.28849995136261,-6.098999977111816,0.2349999994039535,-9.675999641418455,-0.4709999859333038
1621847847264,-0.9100000262260436,1.24399995803833,-6.249000072479248,0.2750000059604644,-9.675999641418455,-0.4709999859333038
1621847847274,-0.4900000095367431,1.406000018119812,-6.361999988555908,0.2349999994039535,-9.71399974822998,-0.4779999852180481
1621847847284,-0.4199999868869781,1.2400000095367432,-5.822999954223633,0.1959999948740005,-9.71399974822998,-0.4779999852180481
1621847847294,-0.7699999809265136,1.4869999885559082,-5.210999965667725,0.1570000052452087,-9.720999717712402,-0.4390000104904174
1621847847304,-0.5600000023841857,2.0510001182556152,-5.183000087738037,0.1570000052452087,-9.720999717712402,-0.4390000104904174
1621847847314,-0.209999993443489,2.3469998836517334,-4.8460001945495605,0.1570000052452087,-9.71399974822998,-0.4779999852180481
1621847847324,-0.1400000005960464,2.8420000076293945,-4.829999923706055,0.1570000052452087,-9.720999717712402,-0.4390000104904174
1621847847334,0.209999993443489,3.63700008392334,-4.9029998779296875,0.1570000052452087,-9.727999687194824,-0.4009999930858612
1621847847344,0.4199999868869781,4.176000118255615,-4.736999988555908,0.1959999948740005,-9.727999687194824,-0.4009999930858612
1621847847354,0.699999988079071,4.48799991607666,-4.894999980926514,0.1959999948740005,-9.767000198364256,-0.4079999923706054
1621847847364,0.7699999809265136,4.675000190734863,-5.145999908447266,0.1570000052452087,-9.767000198364256,-0.4079999923706054
1621847847374,0.4900000095367431,4.938000202178955,-5.0289998054504395,0.1959999948740005,-9.760000228881836,-0.4460000097751617
1621847847384,0.209999993443489,5.0320000648498535,-5.15500020980835,0.2349999994039535,-9.812000274658203,-0.3759999871253967
1621847847394,0.0,4.874000072479248,-4.257999897003174,0.2750000059604644,-9.812000274658203,-0.3759999871253967
1621847847404,-0.1400000005960464,4.874000072479248,-4.257999897003174,0.2750000059604644,-9.80500030517578,-0.414000004529953
1621847847414,-0.1400000005960464,4.334000110626221,-4.425000190734863,0.2349999994039535,-9.772999763488768,-0.3689999878406524
1621847847424,-0.209999993443489,4.394999980926514,-4.769000053405762,0.2750000059604644,-9.772999763488768,-0.3689999878406524
1621847847434,-0.4900000095367431,4.135000228881836,-5.313000202178955,0.2349999994039535,-9.734999656677246,-0.3619999885559082
1621847847444,-0.3499999940395355,3.964999914169311,-5.556000232696533,0.2349999994039535,-9.734999656677246,-0.3619999885559082
1621847847454,-0.4199999868869781,3.563999891281128,-5.697999954223633,0.2349999994039535,-9.689000129699709,-0.3939999938011169
1621847847464,-0.9100000262260436,3.688999891281128,-5.605000019073486,0.1959999948740005,-9.720999717712402,-0.4390000104904174
1621847847474,-0.9450000524520874,3.751999855041504,-5.558000087738037,0.1959999948740005,-9.727999687194824,-0.4009999930858612
1621847847484,-0.9800000190734864,3.815000057220459,-5.511000156402588,0.1959999948740005,-9.727999687194824,-0.4009999930858612
1621847847494,-1.1200000047683716,3.615999937057495,-5.190999984741211,0.1570000052452087,-9.760000228881836,-0.4460000097751617
1621847847504,-1.1200000047683716,3.499000072479248,-4.927000045776367,0.1959999948740005,-9.779999732971191,-0.3300000131130218
1621847847514,-0.9100000262260436,3.7539999485015874,-5.166999816894531,0.1959999948740005,-9.727999687194824,-0.4009999930858612
1621847847524,-1.1200000047683716,3.6489999294281006,-4.9720001220703125,0.1959999948740005,-9.720999717712402,-0.4390000104904174
1621847847534,-1.190000057220459,3.546999931335449,-5.203000068664551,0.1959999948740005,-9.682000160217283,-0.4329999983310699
1621847847544,-1.0499999523162842,3.4539999961853027,-5.077000141143799,0.1570000052452087,-9.689000129699709,-0.3939999938011169
1621847847554,-1.0499999523162842,3.624000072479248,-4.834000110626221,0.1570000052452087,-9.689000129699709,-0.3939999938011169
1621847847564,-0.5600000023841857,4.041999816894531,-5.186999797821045,0.1570000052452087,-9.696000099182127,-0.3549999892711639
1621847847574,-0.5600000023841857,4.2729997634887695,-5.288000106811523,0.1180000007152557,-9.656999588012695,-0.3490000069141387
1621847847584,-0.1400000005960464,3.8469998836517334,-5.291999816894531,0.1180000007152557,-9.696000099182127,-0.3549999892711639
1621847847594,0.3499999940395355,4.241000175476074,-5.506999969482422,0.1180000007152557,-9.689000129699709,-0.3939999938011169
1621847847604,0.4199999868869781,4.515999794006348,-5.459000110626221,0.1570000052452087,-9.734999656677246,-0.3619999885559082
1621847847614,0.8399999737739563,4.666999816894531,-5.502999782562256,0.1570000052452087,-9.696000099182127,-0.3549999892711639
1621847847624,0.4199999868869781,5.0320000648498535,-5.15500020980835,0.1570000052452087,-9.734999656677246,-0.3619999885559082
1621847847634,0.7699999809265136,5.2870001792907715,-5.394000053405762,0.1180000007152557,-9.741999626159668,-0.3240000009536743
1621847847644,0.3499999940395355,5.360000133514404,-5.807000160217285,0.1180000007152557,-9.689000129699709,-0.3939999938011169
1621847847654,0.5600000023841857,5.752999782562256,-6.021999835968018,0.1180000007152557,-9.734999656677246,-0.3619999885559082
1621847847664,0.4900000095367431,6.5929999351501465,-5.946000099182129,0.1570000052452087,-9.779999732971191,-0.3300000131130218
1621847847674,0.6299999952316284,7.1519999504089355,-5.491000175476074,0.1570000052452087,-9.819000244140623,-0.3370000123977661
1621847847684,0.209999993443489,7.532999992370605,-5.63700008392334,0.1180000007152557,-9.772999763488768,-0.3689999878406524
1621847847694,-0.2800000011920929,7.9629998207092285,-6.059000015258789,0.1570000052452087,-9.734999656677246,-0.3619999885559082
1621847847704,-0.7699999809265136,8.07699966430664,-5.896999835968018,0.1959999948740005,-9.734999656677246,-0.3619999885559082
1621847847714,-0.9449999928474426,8.196499824523926,-5.769499778747559,0.2349999994039535,-9.772999763488768,-0.3689999878406524
1621847847724,-1.1200000047683716,8.315999984741211,-5.642000198364258,0.1959999948740005,-9.734999656677246,-0.3619999885559082
1621847847734,-1.1200000047683716,8.465999603271484,-5.685999870300293,0.2349999994039535,-9.727999687194824,-0.4009999930858612
1621847847744,-0.9100000262260436,8.03600025177002,-5.263999938964844,0.2750000059604644,-9.696000099182127,-0.3549999892711639
1621847847754,-0.7699999809265136,7.951000213623046,-4.7820000648498535,0.2349999994039535,-9.696000099182127,-0.3549999892711639
1621847847764,-0.209999993443489,7.315000057220459,-4.396999835968018,0.2349999994039535,-9.696000099182127,-0.3549999892711639
1621847847774,0.0700000002980232,6.52400016784668,-4.749000072479248,0.2750000059604644,-9.604999542236328,-0.4189999997615814
1621847847784,0.4199999868869781,6.158999919891357,-5.0980000495910645,0.2750000059604644,-9.619000434875488,-0.3420000076293945
1621847847794,1.0499999523162842,5.636000156402588,-5.758999824523926,0.2349999994039535,-9.656999588012695,-0.3490000069141387
1621847847804,1.399999976158142,5.1570000648498535,-6.269999980926514,0.2349999994039535,-9.619000434875488,-0.3420000076293945
1621847847814,1.5399999618530271,4.690999984741211,-6.849999904632568,0.1959999948740005,-9.656999588012695,-0.3490000069141387
1621847847824,1.75,4.625999927520752,-7.2870001792907715,0.1959999948740005,-9.696000099182127,-0.3549999892711639
1621847847834,1.8899999856948853,4.439000129699707,-7.035999774932861,0.1570000052452087,-9.734999656677246,-0.3619999885559082
1621847847844,1.3300000429153442,4.5320000648498535,-7.1620001792907715,0.1570000052452087,-9.734999656677246,-0.3619999885559082
1621847847854,1.2599999904632568,4.808000087738037,-7.11299991607666,0.1570000052452087,-9.70300006866455,-0.31700000166893
1621847847864,1.190000057220459,5.327000141143799,-7.235000133514405,0.1180000007152557,-9.734999656677246,-0.3619999885559082
1621847847874,1.190000057220459,5.940000057220459,-7.48199987411499,0.1570000052452087,-9.734999656677246,-0.3619999885559082
1621847847884,1.190000057220459,6.863999843597412,-7.888000011444091,0.1180000007152557,-9.734999656677246,-0.3619999885559082
1621847847894,1.1200000047683716,7.484000205993653,-7.77899980545044,0.1959999948740005,-9.772999763488768,-0.3689999878406524
1621847847904,1.2599999904632568,8.081000328063965,-7.531000137329101,0.1959999948740005,-9.812000274658203,-0.3759999871253967
1621847847914,0.9800000190734864,8.01200008392334,-7.543000221252441,0.1959999948740005,-9.86400032043457,-0.3050000071525573
1621847847924,0.4199999868869781,8.157999992370605,-7.1620001792907715,0.2349999994039535,-9.85099983215332,-0.3829999864101409
1621847847934,-0.1400000005960464,8.234999656677246,-6.793000221252441,0.2349999994039535,-9.836999893188477,-0.4600000083446502
1621847847944,-0.6299999952316284,8.03600025177002,-6.4730000495910645,0.3140000104904174,-9.843999862670898,-0.4210000038146972
1621847847954,-0.8050000071525573,7.993500232696533,-6.231499671936035,0.3140000104904174,-9.829999923706056,-0.4990000128746032
1621847847964,-0.9800000190734864,7.951000213623046,-5.989999771118164,0.3140000104904174,-9.836999893188477,-0.4600000083446502
1621847847974,-1.0499999523162842,7.631000041961671,-6.189000129699707,0.2750000059604644,-9.843999862670898,-0.4210000038146972
1621847847984,-1.8200000524520872,7.335000038146973,-6.526000022888184,0.2750000059604644,-9.79800033569336,-0.453000009059906
1621847847994,-1.9600000381469729,7.131999969482422,-6.98799991607666,0.2750000059604644,-9.79800033569336,-0.453000009059906
1621847848003,-2.450000047683716,7.204999923706055,-7.401000022888184,0.2750000059604644,-9.746000289916992,-0.5239999890327453
1621847848013,-2.7300000190734863,7.420000076293945,-7.007999897003174,0.3140000104904174,-9.71399974822998,-0.4779999852180481
1621847848023,-2.5899999141693115,7.249000072479248,-7.250999927520752,0.2750000059604644,-9.70699977874756,-0.5170000195503234
1621847848034,-2.380000114440918,7.224999904632568,-7.11299991607666,0.3140000104904174,-9.70699977874756,-0.5170000195503234
1621847848043,-2.5199999809265137,7.139999866485596,-6.63100004196167,0.3140000104904174,-9.701000213623049,-0.5550000071525573
1621847848053,-2.5199999809265137,7.059000015258789,-6.573999881744385,0.3140000104904174,-9.630000114440918,-0.5030000209808348
1621847848063,-1.8899999856948853,6.840000152587891,-6.541999816894531,0.3140000104904174,-9.630000114440918,-0.5030000209808348
1621847848073,-1.6100000143051147,6.7829999923706055,-6.623000144958496,0.3140000104904174,-9.668999671936035,-0.5099999904632568
1621847848083,-1.0499999523162842,6.72599983215332,-6.703999996185303,0.3529999852180481,-9.654999732971191,-0.5870000123977661
1621847848093,-0.4199999868869781,6.564000129699707,-6.590000152587891,0.3529999852180481,-9.654999732971191,-0.5870000123977661
1621847848103,-0.209999993443489,6.263999938964844,-6.500999927520752,0.3529999852180481,-9.654999732971191,-0.5870000123977661
1621847848113,0.1400000005960464,5.964000225067139,-6.4120001792907715,0.3529999852180481,-9.694000244140623,-0.5939999818801879
1621847848123,0.4199999868869781,6.113999843597412,-6.455999851226807,0.3529999852180481,-9.654999732971191,-0.5870000123977661
1621847848133,0.8399999737739563,6.057000160217285,-6.5370001792907715,0.3140000104904174,-9.661999702453612,-0.5490000247955322
1621847848143,1.2599999904632568,6.057000160217285,-6.5370001792907715,0.3140000104904174,-9.654999732971191,-0.5870000123977661
1621847848153,1.75,5.984000205993652,-6.124000072479248,0.3529999852180481,-9.623000144958496,-0.5419999957084655
1621847848163,2.309999942779541,5.855000019073486,-5.790999889373779,0.3529999852180481,-9.623000144958496,-0.5419999957084655
1621847848173,2.450000047683716,5.932000160217285,-5.421999931335449,0.3919999897480011,-9.668999671936035,-0.5099999904632568
1621847848183,2.5199999809265137,5.7820000648498535,-5.377999782562256,0.4309999942779541,-9.661999702453612,-0.5490000247955322
1621847848193,2.5899999141693115,5.701000213623047,-5.321000099182129,0.4309999942779541,-9.668999671936035,-0.5099999904632568
1621847848203,2.5899999141693115,5.803999900817871,-5.302499771118164,0.4309999942779541,-9.760000228881836,-0.4460000097751617
1621847848213,2.5899999141693115,5.9070000648498535,-5.283999919891357,0.4309999942779541,-9.767000198364256,-0.4079999923706054
1621847848223,2.450000047683716,5.290999889373779,-4.611000061035156,0.4309999942779541,-9.79800033569336,-0.453000009059906
1621847848233,2.0999999046325684,4.783999919891357,-4.558000087738037,0.4309999942779541,-9.767000198364256,-0.4079999923706054
1621847848243,1.8899999856948853,4.6020002365112305,-4.732999801635742,0.4309999942779541,-9.727999687194824,-0.4009999930858612
1621847848253,1.5399999618530271,4.763999938964844,-4.8460001945495605,0.4709999859333038,-9.727999687194824,-0.4009999930858612
1621847848263,1.399999976158142,4.671000003814697,-4.7210001945495605,0.4309999942779541,-9.767000198364256,-0.4079999923706054
1621847848273,1.0499999523162842,4.249000072479248,-3.9419999122619633,0.4309999942779541,-9.767000198364256,-0.4079999923706054
1621847848283,1.3300000429153442,4.086999893188477,-3.8280000686645503,0.4309999942779541,-9.734999656677246,-0.3619999885559082
1621847848293,1.2599999904632568,3.9049999713897705,-2.7939999103546143,0.3919999897480011,-9.651000022888184,-0.3869999945163726
1621847848303,1.4700000286102295,3.7669999599456783,-1.6100000143051147,0.3919999897480011,-9.696000099182127,-0.3549999892711639
1621847848313,1.8899999856948853,3.3940000534057617,-1.1069999933242798,0.3529999852180481,-9.663999557495115,-0.3100000023841857
1621847848323,2.380000114440918,3.065000057220459,-1.662999987602234,0.3529999852180481,-9.62600040435791,-0.3030000030994415
1621847848333,2.6600000858306885,3.0209999084472656,-1.812999963760376,0.3529999852180481,-9.62600040435791,-0.3030000030994415
1621847848343,3.2200000286102295,2.7809998989105225,-2.068000078201294,0.3140000104904174,-9.656999588012695,-0.3490000069141387
1621847848353,3.430000066757202,1.9789999723434448,-2.3519999980926514,0.3140000104904174,-9.656999588012695,-0.3490000069141387
1621847848363,3.7100000381469727,1.7269999980926514,-2.5390000343322754,0.3140000104904174,-9.70300006866455,-0.31700000166893
1621847848373,3.5,1.3580000400543213,-2.461999893188477,0.1959999948740005,-9.70300006866455,-0.31700000166893
1621847848383,3.5,1.1269999742507937,-2.359999895095825,0.1959999948740005,-9.748000144958496,-0.2849999964237213
1621847848393,3.6400001049041744,1.2079999446868896,-2.4170000553131104,0.1570000052452087,-9.755000114440918,-0.2460000067949295
1621847848403,3.430000066757202,1.3860000371932983,-3.0250000953674316,0.1570000052452087,-9.755000114440918,-0.2460000067949295
1621847848413,3.6400001049041744,1.4470000267028809,-3.369999885559082,0.1180000007152557,-9.762000083923342,-0.2080000042915344
1621847848423,3.569999933242798,1.8159999847412107,-3.447000026702881,0.1570000052452087,-9.762000083923342,-0.2080000042915344
1621847848433,3.430000066757202,2.115999937057495,-3.5360000133514404,0.1180000007152557,-9.717000007629396,-0.2399999946355819
1621847848443,3.570000171661377,2.444499969482422,-3.5850000381469727,0.1570000052452087,-9.722999572753906,-0.2010000050067901
1621847848453,3.7100000381469727,2.7730000019073486,-3.634000062942505,0.1570000052452087,-9.729999542236328,-0.1620000004768371
1621847848463,3.6400001049041744,2.736999988555908,-3.427000045776367,0.1570000052452087,-9.737000465393066,-0.123999997973442
1621847848473,3.430000066757202,3.0199999809265137,-4.230000019073486,0.1570000052452087,-9.76900005340576,-0.1689999997615814
1621847848483,3.5,3.365000009536743,-4.169000148773193,0.1959999948740005,-9.76900005340576,-0.1689999997615814
1621847848493,3.2200000286102295,2.8499999046325684,-3.265000104904175,0.2349999994039535,-9.76900005340576,-0.1689999997615814
1621847848503,2.869999885559082,2.7929999828338623,-3.3459999561309814,0.1959999948740005,-9.814000129699709,-0.1369999945163726
1621847848513,2.5199999809265137,2.493000030517578,-3.256999969482422,0.1959999948740005,-9.814000129699709,-0.1369999945163726
1621847848523,2.5199999809265137,2.3550000190734863,-3.2809998989105225,0.1959999948740005,-9.807000160217283,-0.1759999990463256
1621847848533,2.5899999141693115,2.2739999294281006,-3.2239999771118164,0.1959999948740005,-9.807000160217283,-0.1759999990463256
1621847848543,2.0999999046325684,1.9989999532699585,-3.2730000019073486,0.1959999948740005,-9.76900005340576,-0.1689999997615814
1621847848553,1.8899999856948853,1.8359999656677248,-3.1589999198913574,0.1959999948740005,-9.807000160217283,-0.1759999990463256
1621847848563,1.4700000286102295,1.3170000314712524,-3.0369999408721924,0.1959999948740005,-9.762000083923342,-0.2080000042915344
1621847848573,1.0499999523162842,1.3860000371932983,-3.0250000953674316,0.1570000052452087,-9.76900005340576,-0.1689999997615814
1621847848583,0.6299999952316284,1.3170000314712524,-3.0369999408721924,0.1570000052452087,-9.814000129699709,-0.1369999945163726
1621847848593,0.0700000002980232,1.1799999475479126,-3.062000036239624,0.1570000052452087,-9.762000083923342,-0.2080000042915344
1621847848603,0.0700000002980232,1.5490000247955322,-3.138999938964844,0.1959999948740005,-9.762000083923342,-0.2080000042915344
1621847848613,-0.209999993443489,1.618000030517578,-3.127000093460083,0.1959999948740005,-9.800999641418455,-0.2150000035762786
1621847848623,-0.2800000011920929,1.5609999895095823,-3.2079999446868896,0.1959999948740005,-9.807000160217283,-0.1759999990463256
1621847848633,-0.4199999868869781,1.3170000314712524,-3.0369999408721924,0.1570000052452087,-9.76900005340576,-0.1689999997615814
1621847848643,-0.4900000095367431,1.1109999418258667,-3.0739998817443848,0.1570000052452087,-9.807000160217283,-0.1759999990463256
1621847848653,-0.4199999868869781,0.996999979019165,-3.236000061035156,0.1180000007152557,-9.762000083923342,-0.2080000042915344
1621847848663,-0.2800000011920929,0.8389999866485595,-3.5480000972747803,0.0780000016093254,-9.762000083923342,-0.2080000042915344
1621847848673,-0.4200000166893005,1.000999927520752,-3.661499977111816,0.0780000016093254,-9.722999572753906,-0.2010000050067901
1621847848683,-0.5600000023841857,1.162999987602234,-3.775000095367432,0.0780000016093254,-9.729999542236328,-0.1620000004768371
1621847848693,-0.4199999868869781,1.0499999523162842,-3.937999963760376,0.0780000016093254,-9.722999572753906,-0.2010000050067901
1621847848703,-0.209999993443489,1.0499999523162842,-3.937999963760376,0.0780000016093254,-9.722999572753906,-0.2010000050067901
1621847848713,-0.4900000095367431,1.3700000047683716,-3.739000082015991,0.0390000008046627,-9.729999542236328,-0.1620000004768371
1621847848723,-0.7699999809265136,1.5570000410079956,-3.990000009536743,0.0390000008046627,-9.729999542236328,-0.1620000004768371
1621847848733,-0.6299999952316284,1.7269999980926514,-3.746999979019165,0.0780000016093254,-9.76900005340576,-0.1689999997615814
1621847848743,-0.4199999868869781,1.9259999990463257,-4.066999912261963,0.0780000016093254,-9.729999542236328,-0.1620000004768371
1621847848753,-0.4199999868869781,1.937999963760376,-4.136000156402588,0.0780000016093254,-9.781999588012695,-0.0920000001788139
1621847848763,-0.4199999868869781,1.8079999685287476,-3.803999900817871,0.1180000007152557,-9.729999542236328,-0.1620000004768371
1621847848773,-0.4199999868869781,1.8200000524520872,-3.872999906539917,0.1570000052452087,-9.737000465393066,-0.123999997973442
1621847848783,-0.6299999952316284,1.6699999570846558,-3.8280000686645503,0.1180000007152557,-9.76900005340576,-0.1689999997615814
1621847848793,-0.6299999952316284,1.4110000133514404,-4.370999813079834,0.1570000052452087,-9.762000083923342,-0.2080000042915344
1621847848803,-0.8399999737739563,1.6289999485015867,-4.4039998054504395,0.1180000007152557,-9.729999542236328,-0.1620000004768371
1621847848813,-0.7699999809265136,1.2039999961853027,-4.4079999923706055,0.1180000007152557,-9.76900005340576,-0.1689999997615814
1621847848823,-0.7699999809265136,1.13100004196167,-3.9939999580383305,0.1180000007152557,-9.722999572753906,-0.2010000050067901
1621847848833,-0.8399999737739563,1.1710000038146973,-3.4189999103546143,0.1180000007152557,-9.807000160217283,-0.1759999990463256
1621847848843,-1.190000057220459,1.0859999656677246,-2.936000108718872,0.1180000007152557,-9.800999641418455,-0.2150000035762786
1621847848853,-1.0499999523162842,1.3259999752044678,-2.680999994277954,0.0780000016093254,-9.762000083923342,-0.2080000042915344
1621847848863,-0.9800000190734864,1.11899995803833,-2.7170000076293945,0.0780000016093254,-9.762000083923342,-0.2080000042915344
1621847848873,-1.0499999523162842,0.9240000247955322,-2.822000026702881,0.0390000008046627,-9.717000007629396,-0.2399999946355819
1621847848883,-0.7699999809265136,0.847000002861023,-3.190999984741211,0.0390000008046627,-9.6850004196167,-0.1940000057220459
1621847848893,-0.9100000262260436,0.656000018119812,-3.723000049591065,0.0780000016093254,-9.69200038909912,-0.1550000011920929
1621847848903,-0.840000033378601,0.5080000162124633,-3.8910000324249263,0.0780000016093254,-9.722999572753906,-0.2010000050067901
1621847848913,-0.7699999809265136,0.3600000143051147,-4.059000015258789,0.0390000008046627,-9.6850004196167,-0.1940000057220459
1621847848923,-0.9100000262260436,0.3720000088214874,-4.127999782562256,0.0,-9.722999572753906,-0.2010000050067901
1621847848933,-0.9100000262260436,0.2910000085830688,-4.071000099182129,0.0,-9.678000450134276,-0.2329999953508377
1621847848943,-1.0499999523162842,0.5230000019073486,-4.172999858856201,0.0,-9.69200038909912,-0.1550000011920929
1621847848953,-0.699999988079071,0.356000006198883,-4.8420000076293945,-0.0390000008046627,-9.737000465393066,-0.123999997973442
