timestamp,gyro_x,gyro_y,gyro_z,acc_x,acc_y,acc_z
1621850397249,0.0,0.0,0.0,0.0,0.0,0.0
1621850397258,-8.470000267028809,11.104999542236328,-9.770000457763674,0.0390000008046627,-9.54599952697754,0.8259999752044677
1621850397268,-7.630000114440918,12.557000160217283,-9.940999984741213,0.0,-9.694000244140623,0.7599999904632568
1621850397278,-6.579999923706055,15.244999885559082,-10.675000190734863,0.0,-9.803000450134276,0.7009999752044677
1621850397288,-5.389999866485596,18.805999755859375,-11.11299991607666,0.0,-9.911999702453612,0.6420000195503234
1621850397298,-4.409999847412109,22.163000106811523,-10.805999755859377,0.0390000008046627,-10.072999954223633,0.6539999842643737
1621850397308,-3.7799999713897705,25.53300094604492,-9.357999801635742,0.0780000016093254,-10.144000053405762,0.6010000109672546
1621850397318,-3.0799999237060547,28.233999252319336,-7.744999885559082,0.1959999948740005,-10.189000129699709,0.6330000162124633
1621850397328,-2.5199999809265137,31.104999542236328,-7.0970001220703125,0.2750000059604644,-10.112000465393066,0.6470000147819519
1621850397338,-1.9600000381469729,33.595001220703125,-7.510000228881835,0.4309999942779541,-10.119000434875488,0.6850000023841857
1621850397348,-1.3300000429153442,36.303001403808594,-7.956999778747559,0.5879999995231628,-10.05500030517578,0.7760000228881835
1621850397358,0.0,38.6870002746582,-9.385000228881836,0.7450000047683715,-9.939000129699709,0.7969999909400939
1621850397368,0.8399999737739563,40.10599899291992,-10.982000350952148,0.9020000100135804,-9.977999687194824,0.7900000214576721
1621850397378,1.0499999523162842,41.00199890136719,-12.032999992370604,1.0980000495910645,-10.100000381469728,0.8080000281333923
1621850397388,0.8399999737739563,41.47700119018555,-12.30500030517578,1.2549999952316284,-10.11400032043457,0.8849999904632568
1621850397398,-0.0700000002980232,41.395999908447266,-12.248000144958496,1.4119999408721924,-10.029999732971191,0.8600000143051147
1621850397408,-1.3300000429153442,40.88899993896485,-12.19499969482422,1.491000056266785,-10.074999809265137,0.8920000195503234
1621850397418,-2.450000047683716,39.34400177001953,-10.6899995803833,1.569000005722046,-10.204999923706056,0.9490000009536744
1621850397428,-3.7799999713897705,37.17499923706055,-8.869000434875488,1.569000005722046,-10.307000160217283,0.8510000109672546
1621850397438,-4.690000057220459,35.3380012512207,-8.126999855041504,1.6080000400543213,-10.352999687194824,0.8830000162124633
1621850397448,-5.110000133514404,33.720001220703125,-7.416999816894531,1.569000005722046,-10.314000129699709,0.8899999856948853
1621850397458,-5.809999942779541,31.562999725341797,-5.664999961853027,1.5299999713897705,-10.281999588012695,0.9350000023841856
1621850397468,-6.300000190734863,30.218999862670895,-4.69350004196167,1.4119999408721924,-10.197999954223633,0.9100000262260436
1621850397478,-6.789999961853027,28.875,-3.7219998836517334,1.3339999914169312,-10.159000396728516,0.9169999957084656
1621850397488,-8.119999885559082,26.968999862670895,-1.784000039100647,1.215999960899353,-10.069000244140623,0.8539999723434448
1621850397498,-9.029999732971191,25.940000534057617,-1.1840000152587893,1.0980000495910645,-9.991000175476074,0.8669999837875366
1621850397508,-10.43000030517578,24.941999435424805,-1.5729999542236328,0.981000006198883,-9.913999557495115,0.8809999823570251
1621850397518,-11.270000457763672,24.69499969482422,-2.184999942779541,0.9020000100135804,-9.88199996948242,0.9259999990463256
1621850397528,-12.18000030517578,24.621000289916992,-2.9800000190734863,0.8240000009536743,-9.888999938964846,0.9649999737739564
1621850397538,-13.020000457763672,24.832000732421875,-4.577000141143799,0.7850000262260437,-9.928000450134276,0.9580000042915344
1621850397548,-14.0,25.674999237060547,-6.135000228881836,0.7450000047683715,-9.913999557495115,0.8809999823570251
1621850397558,-15.81999969482422,26.67300033569336,-6.953999996185303,0.7059999704360961,-9.925000190734863,0.7189999818801879
1621850397568,-18.200000762939453,27.63400077819824,-7.565999984741211,0.6669999957084655,-9.944000244140623,0.597000002861023
1621850397578,-20.510000228881836,28.562000274658203,-8.39799976348877,0.7059999704360961,-9.885000228881836,0.4880000054836273
1621850397588,-22.190000534057617,29.660999298095703,-8.986000061035156,0.6669999957084655,-9.86400032043457,0.3720000088214874
1621850397598,-23.729999542236328,30.780000686645508,-9.28600025177002,0.6669999957084655,-9.88199996948242,0.248999997973442
1621850397608,-24.36000061035156,31.81399917602539,-9.104000091552734,0.6669999957084655,-9.862000465393066,0.1330000013113021
1621850397618,-24.149999618530273,33.13600158691406,-10.149999618530272,0.6669999957084655,-9.847999572753906,0.0560000017285346
1621850397628,-22.959999084472656,34.608001708984375,-11.241000175476074,0.6669999957084655,-9.904999732971191,-0.0740000009536743
1621850397638,-21.979999542236328,36.180999755859375,-10.892999649047852,0.6669999957084655,-10.00100040435791,-0.209999993443489
1621850397648,-21.13999938964844,38.172000885009766,-10.897000312805176,0.6669999957084655,-10.038999557495115,-0.2169999927282333
1621850397658,-20.719999313354492,40.20800018310547,-10.75100040435791,0.6669999957084655,-10.085000038146973,-0.1850000023841857
1621850397668,-19.8799991607666,42.15800094604492,-10.123000144958496,0.6280000209808348,-10.090999603271484,-0.1459999978542327
1621850397678,-18.200000762939453,44.03200149536133,-8.654999732971191,0.5490000247955322,-10.020999908447266,-0.0939999967813491
1621850397688,-16.450000762939453,46.28300094604492,-6.9079999923706055,0.4709999859333038,-9.944000244140623,-0.0799999982118606
1621850397698,-14.350000381469728,48.597999572753906,-4.7230000495910645,0.4709999859333038,-9.897999763488768,-0.1120000034570694
1621850397708,-13.020000457763672,50.654998779296875,-3.0810000896453857,0.4709999859333038,-9.954999923706056,-0.2419999986886978
1621850397718,-12.25,52.34199905395508,-1.3619999885559082,0.5099999904632568,-9.954999923706056,-0.2419999986886978
1621850397728,-11.550000190734863,53.44499969482422,0.0410000011324882,0.5490000247955322,-9.878000259399414,-0.2280000001192092
1621850397738,-11.479999542236328,53.77349853515625,0.5964999794960022,0.5879999995231628,-9.793999671936035,-0.2529999911785125
1621850397748,-11.409999847412108,54.10200119018555,1.1519999504089355,0.6280000209808348,-9.67099952697754,-0.2709999978542327
1621850397758,-11.199999809265137,53.82600021362305,2.312000036239624,0.7059999704360961,-9.54800033569336,-0.2899999916553497
1621850397768,-11.130000114440918,53.071998596191406,2.9609999656677246,0.7450000047683715,-9.366999626159668,-0.4169999957084655
1621850397778,-10.850000381469728,51.632999420166016,3.062000036239624,0.7450000047683715,-9.288999557495115,-0.402999997138977
1621850397788,-11.199999809265137,50.00199890136719,2.6329998970031734,0.7450000047683715,-9.197999954223633,-0.4670000076293945
1621850397798,-11.479999542236328,47.679000854492195,2.506999969482422,0.7450000047683715,-9.121000289916992,-0.453000009059906
1621850397808,-11.6899995803833,44.71500015258789,1.9850000143051147,0.7450000047683715,-9.043999671936035,-0.4399999976158142
1621850397818,-12.039999961853027,41.75,1.462000012397766,0.7059999704360961,-8.95300006866455,-0.5030000209808348
1621850397828,-12.31999969482422,38.527000427246094,0.3959999978542327,0.6280000209808348,-8.913999557495117,-0.4959999918937683
1621850397838,-12.390000343322754,35.058998107910156,-0.5,0.5099999904632568,-8.901000022888184,-0.5740000009536743
1621850397848,-12.25,31.718000411987305,-1.3020000457763672,0.3919999897480011,-8.925999641418457,-0.6579999923706054
1621850397858,-11.760000228881836,28.551000595092773,-2.2869999408721924,0.2349999994039535,-9.074000358581545,-0.7239999771118164
1621850397868,-10.779999732971191,26.340999603271484,-3.4590001106262207,0.1570000052452087,-9.21399974822998,-0.828000009059906
1621850397878,-9.239999771118164,24.731000900268555,-4.809000015258789,0.0,-9.291999816894531,-0.8420000076293945
1621850397888,-7.559999942779541,23.618999481201172,-6.567999839782715,-0.1180000007152557,-9.369000434875488,-0.8550000190734863
1621850397898,-5.039999961853027,23.128999710083008,-8.218999862670898,-0.1959999948740005,-9.362000465393066,-0.8939999938011169
1621850397908,-2.869999885559082,23.70800018310547,-9.892999649047852,-0.3140000104904174,-9.43299961090088,-0.9459999799728392
1621850397918,-0.699999988079071,24.041000366210938,-10.972000122070312,-0.3140000104904174,-9.470999717712402,-0.953000009059906
1621850397928,0.9800000190734864,24.16200065612793,-11.66100025177002,-0.3140000104904174,-9.510000228881836,-0.9599999785423278
1621850397938,1.6100000143051147,24.72599983215332,-11.633000373840332,-0.3140000104904174,-9.510000228881836,-0.9599999785423278
1621850397948,1.75,25.386999130249023,-10.947999954223633,-0.2750000059604644,-9.496000289916992,-1.0369999408721924
1621850397958,0.2800000011920929,26.003000259399418,-10.413000106811523,-0.2750000059604644,-9.510000228881836,-0.9599999785423278
1621850397968,-0.9800000190734864,27.11400032043457,-9.861000061035156,-0.1959999948740005,-9.43299961090088,-0.9459999799728392
1621850397978,-2.1700000762939453,27.378000259399418,-9.744000434875488,-0.1180000007152557,-9.31700038909912,-0.9259999990463256
1621850397988,-3.7100000381469727,27.07799911499023,-9.654999732971191,0.0,-9.154999732971191,-0.9369999766349792
1621850397998,-4.96999979019165,26.680999755859375,-9.013999938964846,0.0390000008046627,-8.961999893188477,-0.902999997138977
1621850398008,-6.019999980926514,25.66699981689453,-8.907999992370605,0.0780000016093254,-8.845999717712402,-0.8830000162124633
1621850398018,-5.599999904632568,25.01799964904785,-8.454000473022461,0.0780000016093254,-8.723999977111816,-0.9010000228881836
1621850398028,-4.199999809265137,24.56399917602539,-7.894000053405762,0.0780000016093254,-8.633000373840332,-0.9649999737739564
1621850398038,-1.6799999475479126,24.280000686645508,-7.0920000076293945,0.1180000007152557,-8.586999893188477,-0.9959999918937684
1621850398048,-0.2099999785423278,23.74700164794922,-6.687999725341797,0.1570000052452087,-8.62600040435791,-1.003000020980835
1621850398058,1.2599999904632568,23.214000701904297,-6.283999919891357,0.1959999948740005,-8.74899959564209,-0.9850000143051147
1621850398068,4.480000019073486,21.70199966430664,-4.560999870300293,0.2349999994039535,-8.826000213623047,-0.9990000128746032
1621850398078,8.399999618530273,20.1200008392334,-2.8489999771118164,0.3529999852180481,-9.00100040435791,-0.9100000262260436
1621850398088,12.949999809265137,18.016000747680664,-1.7990000247955322,0.3919999897480011,-8.982999801635742,-0.787000000476837
1621850398098,18.059999465942383,15.385000228881836,0.2249999940395355,0.5099999904632568,-8.944000244140625,-0.7799999713897705
1621850398108,24.149999618530273,11.60099983215332,1.121999979019165,0.8629999756813049,-8.946000099182129,-0.5419999957084655
1621850398118,30.100000381469727,6.071000099182129,1.8519999980926511,1.215999960899353,-9.012000083923342,-0.3939999938011169
1621850398128,35.97999954223633,-2.687999963760376,3.1510000228881836,1.5299999713897705,-9.092000007629396,-0.1689999997615814
1621850398138,41.15999984741211,-14.47599983215332,4.697999954223633,1.6480000019073486,-9.255000114440918,0.0810000002384185
1621850398148,45.220001220703125,-26.51499938964844,4.848999977111816,1.6480000019073486,-9.53499984741211,0.3100000023841857
1621850398158,47.11000061035156,-37.89799880981445,2.486999988555908,1.5299999713897705,-10.04599952697754,0.4990000128746032
1621850398168,45.849998474121094,-48.27899932861328,0.0879999995231628,1.3730000257492063,-10.440999984741213,0.7080000042915344
1621850398178,42.4900016784668,-57.48400115966797,-2.5299999713897705,1.1770000457763672,-10.70699977874756,0.8600000143051147
1621850398188,37.79999923706055,-64.92900085449219,-6.260000228881836,1.0199999809265137,-10.824999809265137,1.0789999961853027
1621850398198,32.689998626708984,-71.39299774169922,-9.105999946594238,0.8629999756813049,-10.821000099182127,1.2790000438690186
1621850398208,27.299999237060547,-78.125,-10.4350004196167,0.6669999957084655,-10.743000030517578,1.2920000553131104
1621850398218,21.979999542236328,-82.82499694824219,-11.19200038909912,0.4309999942779541,-10.68000030517578,1.3830000162124634
1621850398228,17.219999313354492,-86.14199829101562,-12.133000373840332,0.2349999994039535,-10.583999633789064,1.5190000534057615
1621850398238,13.720000267028809,-87.43199920654298,-13.284000396728516,-0.1180000007152557,-10.39799976348877,1.5920000076293943
1621850398248,10.850000381469728,-86.53600311279298,-14.335000038146973,-0.3919999897480011,-10.321000099182127,1.6059999465942385
1621850398258,8.819999694824219,-84.71900177001953,-15.364999771118164,-0.5490000247955322,-10.237000465393066,1.5809999704360962
1621850398268,7.420000076293945,-82.58599853515625,-15.770999908447266,-0.6669999957084655,-10.222999572753906,1.503000020980835
1621850398278,6.019999980926514,-79.59400177001953,-15.810999870300291,-0.6669999957084655,-10.17099952697754,1.4329999685287476
1621850398288,5.320000171661377,-77.18099975585938,-15.38599967956543,-0.6280000209808348,-10.149999618530272,1.3170000314712524
1621850398298,5.599999904632568,-75.07599639892578,-15.227999687194824,-0.6280000209808348,-10.13700008392334,1.2400000095367432
1621850398308,7.0,-72.26599884033203,-15.444000244140623,-0.5879999995231628,-10.006999969482422,1.1829999685287476
1621850398318,8.960000038146973,-69.51300048828125,-15.739999771118164,-0.5490000247955322,-9.916000366210936,1.11899995803833
1621850398328,12.109999656677246,-67.03900146484375,-16.868000030517578,-0.4309999942779541,-9.710000038146973,1.0759999752044678
1621850398338,15.539999961853027,-66.08300018310547,-17.054000854492188,-0.1959999948740005,-9.572999954223633,0.981000006198883
1621850398348,17.2549991607666,-66.76800537109375,-16.99700164794922,0.0390000008046627,-9.482000350952148,0.9169999957084656
1621850398358,18.969999313354492,-67.4530029296875,-16.940000534057617,0.3140000104904174,-9.444000244140623,0.9240000247955322
1621850398368,22.959999084472656,-69.13999938964844,-16.243000030517578,0.5099999904632568,-9.397999763488768,0.8920000195503234
1621850398378,26.11000061035156,-71.9260025024414,-16.165000915527344,0.7059999704360961,-9.5600004196167,0.902999997138977
1621850398388,27.510000228881836,-75.60299682617188,-15.463000297546388,0.6280000209808348,-9.960000038146973,0.9129999876022338
1621850398398,24.920000076293945,-77.96299743652344,-14.173999786376951,0.3529999852180481,-10.328000068664553,0.9670000076293944
1621850398408,19.809999465942383,-77.8010025024414,-14.286999702453612,-0.0780000016093254,-10.67099952697754,1.1059999465942385
1621850398418,13.859999656677246,-74.02200317382812,-14.758000373840332,-0.5879999995231628,-10.942999839782717,1.2970000505447388
1621850398428,6.71999979019165,-66.86900329589844,-15.416000366210938,-1.0590000152587893,-11.001999855041504,1.406000018119812
1621850398438,0.4199999868869781,-57.10499954223633,-15.968999862670898,-1.3730000257492063,-10.984000205993652,1.5290000438690186
1621850398448,-4.690000057220459,-46.92599868774414,-15.239999771118164,-1.569000005722046,-10.822999954223633,1.5169999599456787
1621850398458,-9.029999732971191,-37.270999908447266,-12.755999565124512,-1.6480000019073486,-10.623000144958496,1.5130000114440918
1621850398468,-12.25,-28.843999862670895,-9.35099983215332,-1.569000005722046,-10.371000289916992,1.437999963760376
1621850398478,-14.840000152587892,-21.156000137329105,-5.791999816894531,-1.4509999752044678,-10.119000434875488,1.3630000352859497
1621850398488,-16.729999542236328,-14.1850004196167,-2.999000072479248,-1.4119999408721924,-10.0,1.1440000534057615
1621850398498,-16.940000534057617,-8.418000221252441,-0.6309999823570251,-1.215999960899353,-9.9350004196167,0.996999979019165
1621850398508,-15.609999656677246,-2.4649999141693115,0.2759999930858612,-1.0980000495910645,-9.80500030517578,0.9399999976158142
1621850398518,-14.0,2.312000036239624,1.4029999971389773,-0.7850000262260437,-9.571000099182127,0.7419999837875366
1621850398528,-11.479999542236328,5.9079999923706055,1.965999960899353,-0.6669999957084655,-9.4350004196167,0.6470000147819519
1621850398538,-8.960000038146973,8.954000473022461,2.431999921798706,-0.5879999995231628,-9.428000450134276,0.6079999804496765
1621850398548,-6.71999979019165,10.883999824523926,2.7720000743865967,-0.5879999995231628,-9.505000114440918,0.5939999818801879
1621850398558,-4.96999979019165,13.52400016784668,3.5220000743865967,-0.6280000209808348,-9.61400032043457,0.5350000262260437
1621850398568,-3.990000009536743,16.114999771118164,3.3389999866485596,-0.6280000209808348,-10.031999588012695,0.4219999909400939
1621850398578,-2.6600000858306885,17.947999954223633,4.230999946594238,-0.6669999957084655,-10.411999702453612,0.3149999976158142
1621850398588,0.209999993443489,19.93899917602539,4.2270002365112305,-0.7450000047683715,-10.508999824523926,0.4169999957084655
1621850398598,4.130000114440918,22.16900062561035,2.061000108718872,-0.7450000047683715,-10.375,0.5600000023841857
1621850398608,6.159999847412109,23.91200065612793,0.2360000014305114,-0.5490000247955322,-10.286999702453612,0.7350000143051147
1621850398618,6.369999885559082,24.864999771118164,-0.7329999804496765,-0.3529999852180481,-10.121000289916992,0.9240000247955322
1621850398628,5.425000190734863,24.767499923706055,-0.7860000133514404,-0.2349999994039535,-10.074999809265137,0.8920000195503234
1621850398638,4.480000019073486,24.670000076293945,-0.8389999866485595,-0.1180000007152557,-10.074999809265137,0.8920000195503234
1621850398648,0.4900000095367431,24.618000030517575,-1.3459999561309814,-0.1180000007152557,-9.984999656677246,0.8289999961853027
1621850398658,-4.199999809265137,25.145000457763672,-2.319000005722046,-0.1570000052452087,-9.854999542236328,0.7720000147819519
1621850398668,-8.539999961853027,26.441999435424805,-3.2269999980926514,-0.1959999948740005,-9.718999862670898,0.6759999990463256
1621850398678,-11.760000228881836,27.982999801635746,-4.306000232696533,-0.1570000052452087,-9.512000083923342,0.6330000162124633
1621850398688,-13.4399995803833,30.01799964904785,-5.36899995803833,-0.1180000007152557,-9.291999816894531,0.5130000114440918
1621850398698,-13.859999656677246,32.28900146484375,-5.75,-0.1180000007152557,-9.291999816894531,0.5130000114440918
1621850398708,-13.510000228881836,34.084999084472656,-5.860000133514404,-0.0780000016093254,-9.116999626159668,0.4239999949932098
1621850398718,-12.670000076293944,35.47200012207031,-5.260000228881836,-0.0390000008046627,-9.064000129699709,0.3529999852180481
1621850398728,-11.550000190734863,36.43299865722656,-4.664000034332275,0.1180000007152557,-9.128000259399414,0.2630000114440918
1621850398738,-10.289999961853027,36.63999938964844,-3.4189999103546143,0.1959999948740005,-9.197999954223633,0.209999993443489
1621850398748,-8.539999961853027,36.255001068115234,-2.8480000495910645,0.3140000104904174,-9.229999542236328,0.1650000065565109
1621850398758,-6.019999980926514,35.96699905395508,-2.8269999027252197,0.3529999852180481,-9.300999641418455,0.1129999980330467
1621850398768,-3.359999895095825,35.21699905395508,-2.6040000915527344,0.4709999859333038,-9.385000228881836,0.1379999965429306
1621850398778,-0.5600000023841857,34.540000915527344,-2.7950000762939453,0.5490000247955322,-9.42300033569336,0.1309999972581863
1621850398788,2.6600000858306885,34.986000061035156,-3.7109999656677246,0.4709999859333038,-9.397999763488768,0.2150000035762786
1621850398798,5.53000020980835,36.0890007019043,-4.724999904632568,0.3919999897480011,-9.411999702453612,0.2919999957084655
1621850398808,8.260000228881836,38.042999267578125,-5.730999946594238,0.3140000104904174,-9.380000114440918,0.3379999995231628
1621850398818,9.9399995803833,39.279998779296875,-6.295000076293945,0.2349999994039535,-9.387000083923342,0.3759999871253967
1621850398828,10.710000038146973,40.006000518798835,-6.380000114440918,0.2349999994039535,-9.432000160217283,0.4079999923706054
1621850398838,10.359999656677246,41.040000915527344,-6.197999954223633,0.2349999994039535,-9.51599979400635,0.4329999983310699
1621850398848,9.835000038146973,41.78400039672851,-6.386499881744385,0.1959999948740005,-9.652999877929688,0.5289999842643737
1621850398858,9.3100004196167,42.52799987792969,-6.574999809265137,0.1180000007152557,-9.722999572753906,0.4760000109672546
1621850398868,7.489999771118165,44.77799987792969,-7.243999958038329,-0.0390000008046627,-9.814000129699709,0.5400000214576721
1621850398878,5.880000114440918,49.5989990234375,-8.385000228881836,-0.3140000104904174,-9.859999656677246,0.5720000267028807
1621850398888,4.96999979019165,56.382999420166016,-10.173999786376951,-0.5490000247955322,-9.821000099182127,0.5789999961853027
1621850398898,4.409999847412109,63.993999481201165,-11.81700038909912,-0.7450000047683715,-9.75699996948242,0.6690000295639038
1621850398908,4.480000019073486,71.51200103759766,-12.12600040435791,-0.7450000047683715,-9.628000259399414,0.6129999756813049
1621850398918,5.389999866485596,78.09300231933594,-11.961000442504885,-0.7059999704360961,-9.51900005340576,0.6719999909400939
1621850398928,6.71999979019165,82.9800033569336,-11.454999923706056,-0.5879999995231628,-9.51900005340576,0.6719999909400939
1621850398937,8.680000305175781,86.7750015258789,-10.003999710083008,-0.4709999859333038,-9.440999984741213,0.6850000023841857
1621850398947,10.850000381469728,90.20600128173828,-8.901000022888184,-0.3140000104904174,-9.371000289916992,0.7379999756813049
1621850398957,12.949999809265137,93.26399993896484,-8.503999710083008,-0.1959999948740005,-9.371000289916992,0.7379999756813049
1621850398968,14.699999809265137,94.7969970703125,-7.5229997634887695,-0.0780000016093254,-9.447999954223633,0.7239999771118164
1621850398977,15.1899995803833,92.927001953125,-5.790999889373779,0.1570000052452087,-9.531999588012695,0.7490000128746032
1621850398987,14.489999771118164,87.78600311279298,-2.433000087738037,0.6669999957084655,-9.64099979400635,0.6899999976158142
1621850398997,12.670000076293944,79.88800048828125,1.6469999551773071,1.1770000457763672,-9.725000381469728,0.7149999737739563
1621850399007,10.920000076293944,70.60600280761719,3.49399995803833,1.6480000019073486,-9.95699977874756,0.6740000247955322
1621850399017,9.59000015258789,60.49700164794922,2.7769999504089355,2.000999927520752,-10.065999984741213,0.615000009536743
1621850399027,8.399999618530273,52.01399993896485,1.7079999446868896,2.197000026702881,-10.065999984741213,0.615000009536743
1621850399037,7.7699995040893555,48.64800262451172,1.0434999465942385,2.118000030517578,-10.0600004196167,0.5759999752044677
1621850399047,7.139999866485596,45.28200149536133,0.3790000081062316,1.8830000162124632,-9.949999809265137,0.6349999904632568
1621850399057,6.230000019073486,39.80799865722656,-1.22599995136261,1.6480000019073486,-9.854999542236328,0.7720000147819519
1621850399067,6.159999847412109,35.70800018310547,-0.9539999961853028,1.2940000295639038,-9.746000289916992,0.8309999704360961
1621850399077,6.789999961853027,33.34400177001953,-0.4469999969005584,0.9409999847412108,-9.623000144958496,0.8130000233650208
1621850399087,7.699999809265136,33.14899826049805,-0.5519999861717224,0.5490000247955322,-9.50100040435791,0.7940000295639038
1621850399097,8.680000305175781,34.750999450683594,-0.7670000195503234,0.1180000007152557,-9.437000274658203,0.8849999904632568
1621850399107,10.010000228881836,40.582000732421875,-1.587000012397766,-0.3919999897480011,-9.411999702453612,0.968999981880188
1621850399117,11.6899995803833,49.45000076293945,-3.50600004196167,-1.491000056266785,-9.39400005340576,1.0920000076293943
1621850399127,13.649999618530272,60.26800155639648,-6.00600004196167,-1.843999981880188,-9.406999588012695,1.1690000295639038
1621850399137,15.539999961853027,71.97100067138672,-8.277999877929688,-2.000999927520752,-9.413999557495115,1.2079999446868896
1621850399147,17.149999618530273,82.0469970703125,-8.98900032043457,-1.9220000505447388,-9.336999893188477,1.2220000028610227
1621850399157,18.6200008392334,90.5469970703125,-9.623000144958496,-1.7649999856948853,-9.336999893188477,1.2220000028610227
1621850399167,20.15999984741211,95.94000244140624,-9.170000076293944,-1.3730000257492063,-9.343999862670898,1.2599999904632568
1621850399177,20.93000030517578,99.18399810791016,-9.02400016784668,-0.9020000100135804,-9.472999572753906,1.3170000314712524
1621850399187,20.510000228881836,98.46199798583984,-8.156000137329102,-0.3140000104904174,-9.550000190734863,1.3029999732971191
1621850399197,18.549999237060547,94.16799926757812,-6.781000137329102,0.2349999994039535,-9.821000099182127,1.25600004196167
1621850399207,17.360000610351562,91.85449981689452,-6.762499809265137,0.5490000247955322,-10.034000396728516,1.3380000591278076
1621850399217,16.170000076293945,89.54100036621094,-6.74399995803833,0.8240000009536743,-10.125,1.4010000228881836
1621850399227,13.300000190734863,84.5530014038086,-8.689000129699707,1.0590000152587893,-10.215999603271484,1.4650000333786013
1621850399237,11.409999847412108,78.61299896240233,-9.666000366210936,1.1770000457763672,-10.222999572753906,1.503000020980835
1621850399247,8.819999694824219,72.26300048828125,-9.93299961090088,1.1380000114440918,-10.184000015258787,1.5099999904632568
1621850399257,6.650000095367432,66.00599670410156,-10.324999809265137,1.0590000152587893,-10.152999877929688,1.555999994277954
1621850399267,5.110000133514404,60.15800094604492,-10.218999862670898,0.981000006198883,-10.062000274658203,1.4919999837875366
1621850399277,4.130000114440918,55.17100143432618,-9.748000144958496,0.7850000262260437,-9.946000099182127,1.5119999647140503
1621850399287,3.2899999618530273,51.13199996948242,-9.81999969482422,0.5490000247955322,-9.899999618530272,1.4809999465942385
1621850399297,2.380000114440918,48.79600143432618,-9.876999855041506,0.2750000059604644,-9.925000190734863,1.3969999551773071
1621850399307,1.0499999523162842,48.79199981689453,-10.659000396728516,-0.0390000008046627,-10.003000259399414,1.3830000162124634
1621850399317,-1.3300000429153442,50.86000061035156,-11.503000259399414,-0.3140000104904174,-10.04800033569336,1.4149999618530271
1621850399327,-3.0799999237060547,53.54899978637695,-12.237000465393066,-0.5490000247955322,-10.04800033569336,1.4149999618530271
1621850399337,-4.409999847412109,56.797000885009766,-12.517999649047852,-0.7059999704360961,-9.970999717712402,1.4279999732971191
1621850399347,-5.809999942779541,59.64699935913086,-12.156999588012695,-0.7850000262260437,-9.925000190734863,1.3969999551773071
1621850399357,-6.579999923706055,62.22600173950195,-12.270999908447266,-0.7450000047683715,-9.809000015258787,1.4170000553131104
1621850399367,-7.489999771118165,64.07499694824219,-11.87399959564209,-0.7059999704360961,-9.763999938964846,1.3849999904632568
1621850399377,-7.489999771118165,64.64900207519531,-11.701499938964844,-0.6669999957084655,-9.64099979400635,1.3669999837875366
1621850399387,-7.489999771118165,65.2229995727539,-11.529000282287598,-0.4709999859333038,-9.524999618530272,1.3869999647140503
1621850399397,-7.139999866485596,65.10900115966797,-11.690999984741213,-0.2349999994039535,-9.447999954223633,1.4010000228881836
1621850399407,-6.860000133514404,63.91299819946289,-11.760000228881836,-0.0780000016093254,-9.36400032043457,1.3760000467300415
1621850399417,-6.159999847412109,61.88999938964844,-11.975000381469728,0.1180000007152557,-9.286999702453612,1.3899999856948853
1621850399427,-5.670000076293945,58.5359992980957,-12.708000183105469,0.3140000104904174,-9.279999732971191,1.35099995136261
1621850399437,-5.039999961853027,54.595001220703125,-13.33199977874756,0.4309999942779541,-9.324999809265137,1.3830000162124634
1621850399447,-4.130000114440918,50.01599884033203,-13.571000099182127,0.5879999995231628,-9.395999908447264,1.3309999704360962
1621850399457,-3.2200000286102295,44.58700180053711,-13.817999839782717,0.7059999704360961,-9.395999908447264,1.3309999704360962
1621850399467,-2.940000057220459,38.564998626708984,-13.529000282287598,0.7850000262260437,-9.460000038146973,1.2400000095367432
1621850399477,-3.009999990463257,32.27199935913086,-12.505999565124512,0.9020000100135804,-9.58199977874756,1.2580000162124634
1621850399487,-3.5,25.31399917602539,-11.743000030517578,0.981000006198883,-9.628000259399414,1.2899999618530271
1621850399497,-3.430000066757202,18.238000869750977,-10.715999603271484,0.981000006198883,-9.58899974822998,1.2970000505447388
1621850399507,-3.7799999713897705,11.645000457763672,-9.604000091552734,0.8629999756813049,-9.628000259399414,1.2899999618530271
1621850399517,-3.990000009536743,6.506999969482422,-9.088000297546388,0.7059999704360961,-9.67300033569336,1.3220000267028809
1621850399527,-4.059999942779541,2.2899999618530273,-9.76099967956543,0.5879999995231628,-9.635000228881836,1.3279999494552612
1621850399537,-3.9549999237060542,0.6759999990463256,-10.080999374389648,0.3919999897480011,-9.67300033569336,1.3220000267028809
1621850399547,-3.849999904632568,-0.9380000233650208,-10.401000022888184,0.3140000104904174,-9.744000434875488,1.2690000534057615
1621850399557,-3.569999933242798,-4.120999813079834,-10.890999794006348,0.1959999948740005,-9.774999618530272,1.2239999771118164
1621850399567,-3.7100000381469727,-6.433000087738037,-11.085000038146973,0.0390000008046627,-9.93000030517578,1.1970000267028809
1621850399577,-3.569999933242798,-7.905000209808349,-11.203000068664553,-0.2349999994039535,-10.013999938964844,1.2220000028610227
1621850399587,-3.7799999713897705,-8.119999885559082,-11.595999717712402,-0.5490000247955322,-10.053000450134276,1.2150000333786013
1621850399597,-4.480000019073486,-5.739999771118164,-12.597999572753906,-0.7059999704360961,-10.083999633789062,1.1690000295639038
1621850399607,-4.829999923706055,-1.437000036239624,-13.616000175476074,-0.9020000100135804,-10.116000175476074,1.1239999532699585
1621850399617,-5.670000076293945,3.1040000915527344,-14.378999710083008,-0.981000006198883,-10.064000129699709,1.0529999732971191
1621850399627,-7.699999809265136,8.140000343322754,-15.12600040435791,-0.9409999847412108,-10.01200008392334,0.9829999804496764
1621850399637,-9.170000076293944,13.071000099182127,-15.678000450134276,-0.8240000009536743,-10.02299976348877,0.8220000267028807
1621850399647,-10.5,17.60099983215332,-15.163999557495115,-0.6280000209808348,-9.96399974822998,0.7129999995231628
1621850399657,-11.0600004196167,20.92200088500977,-14.649999618530272,-0.3919999897480011,-9.911999702453612,0.6420000195503234
1621850399667,-11.479999542236328,23.13999938964844,-14.329999923706056,-0.0780000016093254,-9.897999763488768,0.5649999976158142
1621850399677,-11.479999542236328,23.391000747680664,-12.9350004196167,0.1959999948740005,-9.800999641418455,0.4629999995231628
1621850399687,-10.850000381469728,22.01300048828125,-11.968999862670898,0.4309999942779541,-9.748000144958496,0.3919999897480011
1621850399697,-10.289999961853027,20.92850112915039,-11.663000106811523,0.6280000209808348,-9.663999557495115,0.367000013589859
1621850399707,-9.729999542236328,19.843999862670895,-11.357000350952148,0.6669999957084655,-9.696000099182127,0.3219999969005584
1621850399717,-8.119999885559082,16.055999755859375,-11.243000030517578,0.6669999957084655,-9.741000175476074,0.3540000021457672
1621850399727,-6.789999961853027,13.253999710083008,-10.67099952697754,0.5099999904632568,-9.90999984741211,0.4040000140666961
1621850399737,-7.070000171661377,11.093000411987305,-10.909000396728516,0.3919999897480011,-9.954999923706056,0.4350000023841857
1621850399747,-7.980000019073486,9.595999717712402,-12.097000122070312,0.2349999994039535,-9.994000434875488,0.4289999902248382
1621850399757,-9.380000114440918,8.895000457763672,-12.149999618530272,0.1570000052452087,-9.987000465393066,0.3899999856948852
1621850399767,-11.270000457763672,8.189000129699707,-11.777000427246094,0.0780000016093254,-9.83199977874756,0.4169999957084655
1621850399777,-12.670000076293944,7.738999843597413,-11.642999649047852,0.0,-9.786999702453612,0.3849999904632568
1621850399787,-13.649999618530272,7.184000015258789,-11.314000129699709,-0.1180000007152557,-9.772999763488768,0.3079999983310699
1621850399797,-14.06999969482422,7.41099977493286,-10.989999771118164,-0.1959999948740005,-9.689000129699709,0.2829999923706054
1621850399807,-12.8100004196167,8.197999954223633,-11.420000076293944,-0.1959999948740005,-9.527999877929688,0.2720000147819519
1621850399817,-10.640000343322754,9.12600040435791,-12.25100040435791,-0.1570000052452087,-9.48900032043457,0.2790000140666961
1621850399827,-8.539999961853027,10.635000228881836,-12.340999603271484,-0.1180000007152557,-9.48900032043457,0.2790000140666961
1621850399837,-5.880000114440918,12.248000144958496,-12.625,-0.0780000016093254,-9.43000030517578,0.1689999997615814
1621850399847,-3.2200000286102295,12.824000358581545,-12.666000366210938,-0.0390000008046627,-9.43000030517578,0.1689999997615814
1621850399857,-1.1200000047683716,13.095999717712402,-12.190999984741213,0.0390000008046627,-9.444000244140623,0.2469999939203262
1621850399867,-0.2450000047683715,13.02299976348877,-12.381500244140623,0.1180000007152557,-9.451000213623049,0.2849999964237213
1621850399877,0.6299999952316284,12.949999809265137,-12.571999549865724,0.1570000052452087,-9.373000144958496,0.2989999949932098
1621850399887,2.1700000762939453,12.5,-12.437999725341797,0.1180000007152557,-9.373000144958496,0.2989999949932098
1621850399897,3.430000066757202,11.968999862670898,-12.248000144958496,0.1180000007152557,-9.387000083923342,0.3759999871253967
1621850399907,4.760000228881836,11.30799961090088,-12.93299961090088,0.1180000007152557,-9.387000083923342,0.3759999871253967
1621850399917,5.670000076293945,11.197999954223633,-13.520999908447266,0.1959999948740005,-9.425999641418455,0.3689999878406524
1621850399927,6.440000057220459,12.032999992370604,-14.22700023651123,0.1959999948740005,-9.477999687194824,0.4399999976158142
1621850399937,7.139999866485596,12.72700023651123,-14.531000137329102,0.2750000059604644,-9.522999763488768,0.4720000028610229
1621850399947,7.769999980926514,12.928999900817873,-14.069000244140623,0.3140000104904174,-9.607000350952148,0.4970000088214874
1621850399957,7.769999980926514,13.046999931335447,-13.12399959564209,0.3919999897480011,-9.65999984741211,0.5669999718666076
1621850399967,7.280000209808349,12.776000022888184,-12.390000343322754,0.3919999897480011,-9.65999984741211,0.5669999718666076
1621850399977,6.71999979019165,11.656999588012695,-10.880999565124512,0.4709999859333038,-9.666000366210936,0.606000006198883
1621850399987,6.440000057220459,10.192999839782717,-9.43299961090088,0.4709999859333038,-9.711999893188477,0.6380000114440918
1621850399997,5.880000114440918,8.359999656677246,-7.907999992370605,0.5490000247955322,-9.732000350952148,0.7530000209808348
1621850400007,5.739999771118164,6.291999816894531,-7.065000057220459,0.5490000247955322,-9.694000244140623,0.7599999904632568
1621850400017,6.090000152587891,4.39900016784668,-6.4029998779296875,0.5099999904632568,-9.687000274658203,0.722000002861023
1621850400027,5.739999771118164,2.796999931335449,-6.188000202178955,0.3919999897480011,-9.777999877929688,0.7850000262260437
1621850400037,5.389999866485596,1.9290000200271609,-6.909999847412109,0.2750000059604644,-9.8100004196167,0.740000009536743
1621850400047,5.284999847412109,1.9514999389648435,-7.439000129699707,0.1959999948740005,-9.847999572753906,0.7329999804496765
1621850400057,5.179999828338623,1.9739999771118164,-7.967999935150147,0.1570000052452087,-9.854999542236328,0.7720000147819519
1621850400067,5.110000133514404,2.4800000190734863,-9.229999542236328,0.1180000007152557,-9.89400005340576,0.7649999856948853
1621850400077,4.550000190734863,3.1700000762939453,-9.107999801635742,0.1180000007152557,-9.854999542236328,0.7720000147819519
1621850400087,4.130000114440918,3.2829999923706055,-7.736999988555909,0.1180000007152557,-9.822999954223633,0.8169999718666076
1621850400097,3.430000066757202,2.9790000915527344,-7.222000122070312,0.0780000016093254,-9.746000289916992,0.8309999704360961
1621850400107,3.2200000286102295,3.2839999198913574,-6.5289998054504395,0.0780000016093254,-9.675000190734863,0.8830000162124633
1621850400117,3.359999895095825,3.4539999961853027,-6.285999774932861,0.0,-9.637000083923342,0.8899999856948853
1621850400127,3.849999904632568,3.811000108718872,-6.294000148773193,0.0390000008046627,-9.682000160217283,0.921999990940094
1621850400137,4.269999980926514,3.9159998893737793,-6.488999843597412,0.0390000008046627,-9.727999687194824,0.953000009059906
1621850400147,4.480000019073486,4.334000110626221,-6.841000080108643,0.0390000008046627,-9.812000274658203,0.977999985218048
1621850400157,4.340000152587891,4.349999904632568,-7.335999965667725,0.1180000007152557,-9.895999908447264,1.003000020980835
1621850400167,3.0799999237060547,4.223999977111816,-7.42899990081787,0.1180000007152557,-9.940999984741213,1.0349999666213987
1621850400177,1.4700000286102295,4.281000137329102,-7.348000049591064,0.1570000052452087,-10.057000160217283,1.0149999856948853
1621850400187,0.0,4.361999988555908,-7.405000209808349,0.1180000007152557,-10.019000053405762,1.0219999551773071
1621850400197,-1.6799999475479126,4.065999984741211,-6.5329999923706055,0.0780000016093254,-9.979999542236328,1.0279999971389773
1621850400207,-3.2899999618530273,3.996999979019165,-6.545000076293945,0.0780000016093254,-9.940999984741213,1.0349999666213987
1621850400217,-3.849999904632568,4.366000175476074,-6.622000217437744,0.0780000016093254,-9.850000381469728,0.9720000028610228
1621850400227,-4.409999847412109,4.618000030517578,-6.435999870300293,0.0780000016093254,-9.772999763488768,0.9850000143051147
1621850400237,-4.550000190734863,5.0269999504089355,-5.936999797821045,0.1180000007152557,-9.682000160217283,0.921999990940094
1621850400247,-4.130000114440918,5.626999855041504,-6.116000175476074,0.0780000016093254,-9.682000160217283,0.921999990940094
1621850400257,-3.744999885559082,5.9110002517700195,-6.314499855041504,0.0390000008046627,-9.71399974822998,0.8759999871253967
1621850400267,-3.359999895095825,6.195000171661377,-6.513000011444092,0.0780000016093254,-9.753000259399414,0.8690000176429749
1621850400277,-2.940000057220459,6.73799991607666,-6.7729997634887695,0.0780000016093254,-9.829999923706056,0.856000006198883
1621850400287,-3.009999990463257,7.039000034332275,-6.861999988555908,0.0780000016093254,-9.829999923706056,0.856000006198883
1621850400297,-3.6400001049041744,7.703999996185303,-6.603000164031982,0.1180000007152557,-9.836999893188477,0.8939999938011169
1621850400307,-3.849999904632568,7.931000232696533,-6.2779998779296875,0.1180000007152557,-9.760000228881836,0.9079999923706054
1621850400317,-4.269999980926514,8.13700008392334,-6.242000102996826,0.1180000007152557,-9.71399974822998,0.8759999871253967
1621850400327,-4.550000190734863,8.505999565124512,-6.318999767303467,0.1180000007152557,-9.630000114440918,0.8510000109672546
1621850400337,-4.480000019073486,8.746000289916992,-6.063000202178955,0.0780000016093254,-9.553000450134276,0.865000009536743
1621850400347,-3.990000009536743,9.196000099182127,-6.197000026702881,0.0390000008046627,-9.50100040435791,0.7940000295639038
1621850400357,-3.2200000286102295,9.553000450134276,-6.204999923706055,0.0390000008046627,-9.50699996948242,0.8330000042915344
1621850400367,-2.0299999713897705,10.359999656677246,-6.3480000495910645,0.0780000016093254,-9.50699996948242,0.8330000042915344
1621850400377,-0.6299999952316284,11.222999572753906,-6.4079999923706055,0.1180000007152557,-9.50100040435791,0.7940000295639038
1621850400387,0.7699999809265136,11.291999816894531,-6.395999908447266,0.1570000052452087,-9.585000038146973,0.8190000057220459
1621850400397,1.6100000143051147,11.487000465393066,-6.290999889373779,0.1959999948740005,-9.647999763488768,0.7279999852180481
1621850400407,2.309999942779541,11.564000129699709,-5.921999931335449,0.2750000059604644,-9.654999732971191,0.7670000195503234
1621850400417,2.5899999141693115,11.17099952697754,-5.706999778747559,0.3529999852180481,-9.699999809265137,0.7990000247955322
1621850400427,2.7300000190734863,10.258000373840332,-5.369999885559082,0.3529999852180481,-9.699999809265137,0.7990000247955322
1621850400437,2.5199999809265137,8.961000442504883,-5.670000076293945,0.4309999942779541,-9.791000366210936,0.8629999756813049
1621850400447,2.309999942779541,7.728000164031982,-5.5320000648498535,0.4309999942779541,-9.753000259399414,0.8690000176429749
1621850400457,1.8200000524520872,6.763000011444092,-5.702000141143799,0.4309999942779541,-9.71399974822998,0.8759999871253967
1621850400467,1.75,5.164999961853027,-5.913000106811523,0.3919999897480011,-9.675000190734863,0.8830000162124633
1621850400477,2.0999999046325684,3.7950000762939458,-5.798999786376953,0.3529999852180481,-9.71399974822998,0.8759999871253967
1621850400487,2.0999999046325684,2.4519999027252197,-6.249000072479248,0.3140000104904174,-9.720999717712402,0.915000021457672
1621850400497,2.0299999713897705,1.9169999361038208,-6.236999988555908,0.2349999994039535,-9.76599979400635,0.9470000267028807
1621850400507,1.9600000381469729,1.381999969482422,-6.224999904632568,0.1570000052452087,-9.80500030517578,0.9399999976158142
1621850400517,1.5399999618530271,0.8429999947547911,-6.390999794006348,0.0780000016093254,-9.875,0.8880000114440918
1621850400527,1.3300000429153442,1.0779999494552612,-6.918000221252441,0.0390000008046627,-9.850000381469728,0.9720000028610228
1621850400537,0.7699999809265136,0.8629999756813049,-6.103000164031982,0.0,-9.777999877929688,0.7850000262260437
1621850400547,0.0700000002980232,1.3860000371932983,-5.441999912261963,0.0,-9.79800033569336,0.9010000228881836
1621850400557,-0.5600000023841857,1.9859999418258667,-5.619999885559082,-0.0390000008046627,-9.79800033569336,0.9010000228881836
1621850400567,-1.190000057220459,2.816999912261963,-5.900000095367432,-0.0390000008046627,-9.79800033569336,0.9010000228881836
1621850400577,-1.399999976158142,3.430000066757202,-6.1479997634887695,-0.0390000008046627,-9.791000366210936,0.8629999756813049
1621850400587,-1.4700000286102295,4.410999774932861,-6.4720001220703125,0.0,-9.791000366210936,0.8629999756813049
1621850400597,-1.3300000429153442,4.763999938964844,-6.054999828338623,0.0,-9.753000259399414,0.8690000176429749
1621850400607,-1.2599999904632568,5.185999870300293,-5.625,0.0390000008046627,-9.71399974822998,0.8759999871253967
1621850400617,-1.2599999904632568,5.920000076293945,-5.353000164031982,0.0,-9.71399974822998,0.8759999871253967
1621850400627,-1.190000057220459,6.216000080108643,-5.017000198364258,-0.0390000008046627,-9.71399974822998,0.8759999871253967
1621850400637,-0.9100000262260436,6.248000144958496,-4.797999858856201,-0.0390000008046627,-9.675000190734863,0.8830000162124633
1621850400646,-0.8399999737739563,6.5929999351501465,-4.736999988555908,-0.0390000008046627,-9.675000190734863,0.8830000162124633
1621850400656,-0.4900000095367431,7.335000038146973,-5.316999912261963,-0.0390000008046627,-9.64400005340576,0.9279999732971193
1621850400666,-0.6299999952316284,7.686999797821045,-6.107999801635742,0.0,-9.675000190734863,0.8830000162124633
1621850400676,-0.3499999940395355,7.8979997634887695,-6.497000217437744,0.0390000008046627,-9.668999671936035,0.8439999818801879
1621850400686,-0.0700000002980232,7.922999858856201,-6.635000228881836,0.0780000016093254,-9.623000144958496,0.8130000233650208
1621850400696,0.4199999868869781,7.472000122070312,-6.500999927520752,0.1180000007152557,-9.654999732971191,0.7670000195503234
1621850400706,0.699999988079071,6.840000152587891,-6.541999816894531,0.1180000007152557,-9.694000244140623,0.7599999904632568
1621850400716,1.1200000047683716,6.093999862670898,-6.74399995803833,0.1180000007152557,-9.694000244140623,0.7599999904632568
1621850400726,0.9800000190734864,5.302999973297119,-7.0970001220703125,0.0780000016093254,-9.732000350952148,0.7530000209808348
1621850400736,1.0499999523162842,4.820000171661377,-7.182000160217285,0.0780000016093254,-9.694000244140623,0.7599999904632568
1621850400746,0.875,4.659999847412109,-7.281499862670899,0.0780000016093254,-9.73900032043457,0.7919999957084655
1621850400756,0.699999988079071,4.5,-7.381000041961671,0.0780000016093254,-9.746000289916992,0.8309999704360961
1621850400766,0.3499999940395355,4.317999839782715,-7.554999828338623,0.0390000008046627,-9.746000289916992,0.8309999704360961
1621850400776,0.3499999940395355,4.317999839782715,-7.554999828338623,0.0390000008046627,-9.746000289916992,0.8309999704360961
1621850400786,0.6299999952316284,4.166999816894531,-7.510000228881835,0.0390000008046627,-9.777999877929688,0.7850000262260437
1621850400796,0.699999988079071,4.041999816894531,-7.604000091552734,0.0,-9.73900032043457,0.7919999957084655
1621850400806,0.699999988079071,4.326000213623047,-7.197999954223633,0.0,-9.777999877929688,0.7850000262260437
1621850400816,0.9100000262260436,4.464000225067139,-7.173999786376953,0.0,-9.777999877929688,0.7850000262260437
1621850400826,0.4199999868869781,4.256999969482422,-7.210000038146973,0.0390000008046627,-9.822999954223633,0.8169999718666076
1621850400836,0.209999993443489,4.000999927520752,-6.9710001945495605,0.0390000008046627,-9.822999954223633,0.8169999718666076
1621850400846,-0.3499999940395355,4.301000118255615,-7.059999942779541,0.0780000016093254,-9.8100004196167,0.740000009536743
1621850400856,-1.0499999523162842,4.577000141143799,-7.01200008392334,0.0780000016093254,-9.78499984741211,0.8240000009536743
1621850400866,-1.5399999618530271,4.776000022888184,-7.331999778747559,0.0390000008046627,-9.8100004196167,0.740000009536743
1621850400876,-1.9600000381469729,4.269000053405762,-7.27899980545044,0.0,-9.815999984741213,0.7789999842643737
1621850400886,-2.309999942779541,3.9609999656677246,-7.546999931335449,0.0,-9.8100004196167,0.740000009536743
1621850400896,-2.450000047683716,3.927999973297119,-7.765999794006347,0.0,-9.777999877929688,0.7850000262260437
1621850400906,-2.240000009536743,4.239999771118164,-7.923999786376954,0.0390000008046627,-9.732000350952148,0.7530000209808348
1621850400916,-2.240000009536743,4.710999965667725,-7.769999980926514,-0.0390000008046627,-9.725000381469728,0.7149999737739563
1621850400926,-2.240000009536743,5.059000015258789,-8.135000228881836,0.0,-9.725000381469728,0.7149999737739563
1621850400936,-2.1700000762939453,5.127999782562256,-8.123000144958496,0.0390000008046627,-9.68000030517578,0.6830000281333923
1621850400946,-2.0299999713897705,5.465000152587891,-8.418999671936035,0.0390000008046627,-9.64099979400635,0.6899999976158142
1621850400956,-1.6100000143051147,5.8460001945495605,-8.5649995803833,0.0780000016093254,-9.64099979400635,0.6899999976158142
1621850400966,-1.4700000286102295,5.708000183105469,-8.58899974822998,0.0780000016093254,-9.647999763488768,0.7279999852180481
1621850400976,-1.2599999904632568,5.822000026702881,-8.427000045776367,0.1180000007152557,-9.725000381469728,0.7149999737739563
1621850400986,-1.2599999904632568,5.638999938964844,-8.60099983215332,0.1180000007152557,-9.763999938964846,0.7080000042915344
1621850400996,-1.225000023841858,5.5295000076293945,-8.585000038146973,0.1180000007152557,-9.803000450134276,0.7009999752044677
1621850401006,-1.190000057220459,5.420000076293945,-8.569000244140625,0.1180000007152557,-9.847999572753906,0.7329999804496765
1621850401016,-1.399999976158142,5.541999816894531,-8.050000190734863,0.0780000016093254,-9.847999572753906,0.7329999804496765
1621850401026,-2.0299999713897705,5.493000030517578,-7.77400016784668,0.0780000016093254,-9.854999542236328,0.7720000147819519
1621850401036,-2.869999885559082,5.6519999504089355,-7.461999893188477,0.0780000016093254,-9.899999618530272,0.8040000200271606
1621850401046,-3.7799999713897705,6.090000152587891,-7.526999950408936,0.0780000016093254,-9.862000465393066,0.8100000023841857
1621850401056,-4.059999942779541,6.511000156402588,-7.0970001220703125,0.0390000008046627,-9.8100004196167,0.740000009536743
1621850401066,-4.409999847412109,6.36899995803833,-6.696000099182129,0.0390000008046627,-9.763999938964846,0.7080000042915344
1621850401076,-4.96999979019165,6.248000144958496,-6.00600004196167,0.0780000016093254,-9.744000434875488,0.5920000076293945
1621850401086,-4.900000095367432,6.632999897003174,-6.578000068664551,0.0780000016093254,-9.711999893188477,0.6380000114440918
1621850401096,-4.269999980926514,6.7829999923706055,-6.623000144958496,0.0780000016093254,-9.64099979400635,0.6899999976158142
1621850401106,-3.9200000762939458,6.810999870300293,-7.185999870300293,0.0780000016093254,-9.68000030517578,0.6830000281333923
1621850401116,-3.7100000381469727,6.186999797821045,-6.869999885559082,0.1180000007152557,-9.68000030517578,0.6830000281333923
1621850401126,-3.2899999618530273,5.8420000076293945,-6.931000232696533,0.1180000007152557,-9.718999862670898,0.6759999990463256
1621850401136,-3.009999990463257,5.335000038146973,-6.877999782562256,0.0780000016093254,-9.718999862670898,0.6759999990463256
1621850401146,-3.0799999237060547,5.380000114440918,-6.728000164031982,0.0390000008046627,-9.67300033569336,0.6439999938011169
1621850401156,-3.2899999618530273,5.172999858856201,-6.763999938964844,0.0390000008046627,-9.68000030517578,0.6830000281333923
1621850401166,-3.5,5.140999794006348,-6.982999801635742,0.0390000008046627,-9.64099979400635,0.6899999976158142
1621850401176,-3.1500000953674316,5.076000213623047,-7.421000003814697,0.0390000008046627,-9.67300033569336,0.6439999938011169
1621850401186,-2.7300000190734863,5.079999923706055,-7.847000122070312,0.0780000016093254,-9.68000030517578,0.6830000281333923
1621850401196,-2.240000009536743,5.27400016784668,-7.742000102996825,0.0780000016093254,-9.64099979400635,0.6899999976158142
1621850401206,-1.6799999475479126,4.803999900817871,-7.895999908447266,0.0780000016093254,-9.64099979400635,0.6899999976158142
1621850401216,-1.5399999618530271,4.451000213623047,-8.312999725341797,0.0780000016093254,-9.68000030517578,0.6830000281333923
1621850401226,-1.399999976158142,4.313000202178955,-8.338000297546387,0.0780000016093254,-9.718999862670898,0.6759999990463256
1621850401236,-1.0499999523162842,4.146999835968018,-9.006999969482422,0.1570000052452087,-9.725000381469728,0.7149999737739563
1621850401246,-0.944999933242798,3.974499940872192,-9.037000656127928,0.1180000007152557,-9.725000381469728,0.7149999737739563
1621850401256,-0.8399999737739563,3.802000045776367,-9.06700038909912,0.1180000007152557,-9.763999938964846,0.7080000042915344
1621850401266,-0.8399999737739563,3.6440000534057617,-9.380000114440918,0.1180000007152557,-9.718999862670898,0.6759999990463256
1621850401276,-1.1200000047683716,3.49399995803833,-9.335000038146973,0.1570000052452087,-9.718999862670898,0.6759999990463256
1621850401286,-1.5399999618530271,3.068000078201294,-9.33899974822998,0.1570000052452087,-9.725000381469728,0.7149999737739563
1621850401296,-1.4700000286102295,3.3320000171661377,-9.222000122070312,0.1180000007152557,-9.718999862670898,0.6759999990463256
1621850401306,-1.3300000429153442,3.319999933242798,-9.152999877929688,0.1959999948740005,-9.75100040435791,0.6309999823570251
1621850401316,-1.399999976158142,3.0320000648498535,-9.13199996948242,0.1959999948740005,-9.75100040435791,0.6309999823570251
1621850401326,-1.4700000286102295,3.3970000743865967,-8.784000396728516,0.2349999994039535,-9.803000450134276,0.7009999752044677
1621850401336,-1.2599999904632568,3.125,-8.050000190734863,0.2750000059604644,-9.79599952697754,0.6629999876022338
1621850401346,-1.6100000143051147,2.869999885559082,-7.809999942779541,0.2349999994039535,-9.79599952697754,0.6629999876022338
1621850401356,-2.240000009536743,2.071000099182129,-7.310999870300293,0.1959999948740005,-9.788999557495115,0.6240000128746032
1621850401366,-2.5899999141693115,2.3829998970031734,-7.469999790191651,0.1570000052452087,-9.75699996948242,0.6690000295639038
1621850401376,-2.7300000190734863,1.909000039100647,-7.197999954223633,0.1570000052452087,-9.711999893188477,0.6380000114440918
1621850401386,-2.799999952316284,1.7949999570846558,-7.360000133514405,0.1570000052452087,-9.67300033569336,0.6439999938011169
1621850401396,-2.6600000858306885,2.119999885559082,-7.586999893188477,0.1570000052452087,-9.67300033569336,0.6439999938011169
1621850401406,-2.309999942779541,2.059000015258789,-7.243000030517577,0.1180000007152557,-9.67300033569336,0.6439999938011169
1621850401416,-1.4700000286102295,1.7949999570846558,-7.360000133514405,0.0780000016093254,-9.67300033569336,0.6439999938011169
1621850401426,-0.699999988079071,1.746999979019165,-7.084000110626221,0.0390000008046627,-9.67300033569336,0.6439999938011169
1621850401436,-0.3499999940395355,2.253999948501587,-7.13700008392334,0.0390000008046627,-9.718999862670898,0.6759999990463256
1621850401446,0.209999993443489,2.553999900817871,-7.22599983215332,0.0390000008046627,-9.725000381469728,0.7149999737739563
1621850401456,0.4900000095367431,2.7850000858306885,-7.328000068664551,0.0,-9.770999908447264,0.746999979019165
1621850401466,0.3499999940395355,3.1540000438690186,-7.405000209808349,0.0,-9.763999938964846,0.7080000042915344
1621850401476,0.2800000011920929,3.7780001163482666,-7.72100019454956,0.0780000016093254,-9.840999603271484,0.6940000057220459
1621850401486,0.0700000002980232,3.8410000801086426,-7.674499988555909,0.0780000016093254,-9.75699996948242,0.6690000295639038
1621850401496,-0.1400000005960464,3.9040000438690186,-7.627999782562256,0.0390000008046627,-9.75699996948242,0.6690000295639038
1621850401506,-0.3499999940395355,4.239999771118164,-7.923999786376954,0.0390000008046627,-9.718999862670898,0.6759999990463256
1621850401516,-0.6299999952316284,4.90500020980835,-7.664999961853027,0.0780000016093254,-9.718999862670898,0.6759999990463256
1621850401526,-0.6299999952316284,5.8379998207092285,-7.7129998207092285,0.0780000016093254,-9.711999893188477,0.6380000114440918
1621850401536,-0.4900000095367431,6.572000026702881,-7.441999912261963,0.0780000016093254,-9.711999893188477,0.6380000114440918
1621850401546,-0.1400000005960464,7.043000221252441,-7.288000106811523,0.1180000007152557,-9.67300033569336,0.6439999938011169
1621850401556,-0.0700000002980232,7.47599983215332,-6.927000045776367,0.1570000052452087,-9.666000366210936,0.606000006198883
1621850401566,0.5600000023841857,7.751999855041504,-6.877999782562256,0.1959999948740005,-9.711999893188477,0.6380000114440918
1621850401576,0.5600000023841857,7.622000217437744,-6.546000003814697,0.1959999948740005,-9.718999862670898,0.6759999990463256
1621850401586,0.8399999737739563,7.277999877929688,-6.60699987411499,0.1959999948740005,-9.75100040435791,0.6309999823570251
1621850401596,0.9800000190734864,6.883999824523926,-6.392000198364258,0.1570000052452087,-9.711999893188477,0.6380000114440918
1621850401606,0.9100000262260436,6.110000133514404,-6.031000137329102,0.0780000016093254,-9.840999603271484,0.6940000057220459
1621850401616,0.209999993443489,5.809999942779541,-5.940999984741211,0.1180000007152557,-9.840999603271484,0.6940000057220459
1621850401626,-0.3499999940395355,6.195000171661377,-6.513000011444092,0.0390000008046627,-9.803000450134276,0.7009999752044677
1621850401636,-0.4199999868869781,7.229000091552734,-7.539000034332275,0.0390000008046627,-9.880000114440918,0.6880000233650208
1621850401646,-0.6299999952316284,7.748000144958496,-7.66099977493286,0.0780000016093254,-9.840999603271484,0.6940000057220459
1621850401656,-0.699999988079071,8.315999984741211,-8.057999610900879,0.0780000016093254,-9.79599952697754,0.6629999876022338
1621850401666,-0.8399999737739563,8.312000274658203,-7.632999897003175,0.0780000016093254,-9.79599952697754,0.6629999876022338
1621850401676,-1.399999976158142,8.732999801635742,-7.203000068664551,0.1180000007152557,-9.718999862670898,0.6759999990463256
1621850401686,-1.399999976158142,8.54699993133545,-6.951000213623047,0.1180000007152557,-9.725000381469728,0.7149999737739563
1621850401696,-0.9800000190734864,8.32800006866455,-6.919000148773193,0.1570000052452087,-9.68000030517578,0.6830000281333923
1621850401706,-0.6299999952316284,8.704999923706055,-6.638999938964844,0.1570000052452087,-9.67300033569336,0.6439999938011169
1621850401716,-0.4900000095367431,8.522500038146973,-6.813499927520752,0.1570000052452087,-9.635000228881836,0.6510000228881835
1621850401726,-0.3499999940395355,8.34000015258789,-6.98799991607666,0.1959999948740005,-9.718999862670898,0.6759999990463256
1621850401736,-0.1400000005960464,7.906000137329101,-7.348999977111816,0.1570000052452087,-9.78499984741211,0.8240000009536743
1621850401746,-0.0700000002980232,7.986999988555909,-7.406000137329101,0.1959999948740005,-9.770999908447264,0.746999979019165
1621850401756,-0.3499999940395355,8.13700008392334,-7.449999809265136,0.1959999948740005,-9.803000450134276,0.7009999752044677
1621850401766,-0.9100000262260436,7.853000164031982,-7.855999946594238,0.2349999994039535,-9.763999938964846,0.7080000042915344
1621850401776,-0.699999988079071,7.703000068664551,-7.810999870300293,0.2349999994039535,-9.75699996948242,0.6690000295639038
1621850401786,-0.7699999809265136,7.493000030517577,-7.421999931335449,0.2750000059604644,-9.75100040435791,0.6309999823570251
1621850401796,-0.3499999940395355,7.1479997634887695,-7.48199987411499,0.2750000059604644,-9.68000030517578,0.6830000281333923
1621850401806,-0.2800000011920929,6.122000217437744,-7.308000087738037,0.2750000059604644,-9.67300033569336,0.6439999938011169
1621850401816,-0.1400000005960464,5.676000118255615,-7.599999904632568,0.2750000059604644,-9.75699996948242,0.6690000295639038
1621850401826,0.0700000002980232,4.788000106811523,-7.401000022888184,0.1959999948740005,-9.803000450134276,0.7009999752044677
1621850401836,-0.5600000023841857,4.901000022888184,-7.238999843597413,0.1570000052452087,-9.8100004196167,0.740000009536743
1621850401846,-1.1200000047683716,5.0879998207092285,-7.489999771118165,0.1570000052452087,-9.815999984741213,0.7789999842643737
1621850401856,-1.399999976158142,5.4079999923706055,-7.291999816894531,0.1959999948740005,-9.777999877929688,0.7850000262260437
1621850401866,-1.9600000381469729,5.586999893188477,-6.691999912261963,0.1570000052452087,-9.815999984741213,0.7789999842643737
1621850401876,-2.380000114440918,5.513999938964844,-6.2779998779296875,0.1180000007152557,-9.777999877929688,0.7850000262260437
1621850401886,-2.380000114440918,5.890999794006348,-5.998000144958496,0.1570000052452087,-9.746000289916992,0.8309999704360961
1621850401896,-2.380000114440918,5.867000102996826,-5.860000133514404,0.1959999948740005,-9.687000274658203,0.722000002861023
1621850401906,-1.8899999856948853,5.89900016784668,-5.640999794006348,0.1959999948740005,-9.687000274658203,0.722000002861023
1621850401916,-1.3300000429153442,5.749000072479248,-5.5970001220703125,0.1959999948740005,-9.647999763488768,0.7279999852180481
1621850401926,-0.4900000095367431,5.416999816894531,-5.72599983215332,0.2349999994039535,-9.571000099182127,0.7419999837875366
1621850401936,-0.0350000113248825,5.108500003814697,-5.99399995803833,0.1959999948740005,-9.602999687194824,0.6970000267028807
1621850401946,0.4199999868869781,4.800000190734863,-6.26200008392334,0.1570000052452087,-9.68000030517578,0.6830000281333923
1621850401956,0.9800000190734864,4.249000072479248,-6.359000205993652,0.1570000052452087,-9.725000381469728,0.7149999737739563
1621850401966,1.1200000047683716,4.086999893188477,-6.244999885559082,0.1570000052452087,-9.75699996948242,0.6690000295639038
1621850401976,0.9800000190734864,3.799000024795532,-6.224999904632568,0.1570000052452087,-9.75699996948242,0.6690000295639038
1621850401986,0.9800000190734864,3.811000108718872,-6.294000148773193,0.1959999948740005,-9.75699996948242,0.6690000295639038
1621850401996,0.3499999940395355,3.9489998817443848,-6.269999980926514,0.1959999948740005,-9.75699996948242,0.6690000295639038
1621850402006,0.5600000023841857,3.555000066757202,-6.054999828338623,0.1959999948740005,-9.718999862670898,0.6759999990463256
1621850402016,0.4199999868869781,3.243000030517578,-5.895999908447266,0.1959999948740005,-9.777999877929688,0.7850000262260437
1621850402026,0.4900000095367431,2.938999891281128,-6.590000152587891,0.2750000059604644,-9.718999862670898,0.6759999990463256
1621850402036,0.3499999940395355,2.9059998989105225,-6.809000015258789,0.2349999994039535,-9.718999862670898,0.6759999990463256
1621850402046,0.699999988079071,2.1600000858306885,-7.011000156402588,0.2750000059604644,-9.725000381469728,0.7149999737739563
1621850402056,0.8399999737739563,1.2400000095367432,-7.0320000648498535,0.2750000059604644,-9.68000030517578,0.6830000281333923
1621850402066,1.190000057220459,0.3400000035762786,-6.763999938964844,0.2750000059604644,-9.718999862670898,0.6759999990463256
1621850402076,1.5399999618530271,-0.2849999964237213,-6.447000026702881,0.2750000059604644,-9.68000030517578,0.6830000281333923
1621850402086,1.4700000286102295,-0.8119999766349792,-6.683000087738037,0.2349999994039535,-9.725000381469728,0.7149999737739563
1621850402096,1.8200000524520872,-0.9940000176429749,-6.85699987411499,0.1959999948740005,-9.725000381469728,0.7149999737739563
1621850402106,1.75,-1.2419999837875366,-7.468999862670899,0.1959999948740005,-9.718999862670898,0.6759999990463256
1621850402116,1.4700000286102295,-1.7369999885559082,-7.485000133514405,0.1959999948740005,-9.718999862670898,0.6759999990463256
1621850402126,1.190000057220459,-1.6840000152587893,-8.187000274658203,0.1570000052452087,-9.725000381469728,0.7149999737739563
1621850402136,1.75,-2.1540000438690186,-8.340999603271484,0.2349999994039535,-9.718999862670898,0.6759999990463256
1621850402146,1.924999952316284,-2.38100004196167,-8.060999870300293,0.1959999948740005,-9.68000030517578,0.6830000281333923
1621850402156,2.0999999046325684,-2.6080000400543213,-7.781000137329101,0.2349999994039535,-9.602999687194824,0.6970000267028807
1621850402166,2.380000114440918,-3.7030000686645503,-7.618999958038329,0.2349999994039535,-9.564000129699709,0.703000009059906
1621850402176,2.5899999141693115,-4.340000152587891,-7.232999801635742,0.2349999994039535,-9.654999732971191,0.7670000195503234
1621850402186,3.1500000953674316,-4.343999862670898,-8.015999794006348,0.1959999948740005,-9.694000244140623,0.7599999904632568
1621850402196,3.2899999618530273,-4.814000129699707,-8.170000076293945,0.1959999948740005,-9.732000350952148,0.7530000209808348
1621850402206,3.2200000286102295,-4.616000175476074,-8.491000175476074,0.2349999994039535,-9.770999908447264,0.746999979019165
1621850402216,3.0799999237060547,-5.263999938964844,-8.03600025177002,0.2750000059604644,-9.822999954223633,0.8169999718666076
1621850402226,2.799999952316284,-5.625,-7.6020002365112305,0.2349999994039535,-9.815999984741213,0.7789999842643737
1621850402236,2.309999942779541,-6.099999904632568,-7.330999851226807,0.1959999948740005,-9.746000289916992,0.8309999704360961
1621850402246,2.380000114440918,-6.104000091552734,-6.90500020980835,0.1570000052452087,-9.753000259399414,0.8690000176429749
1621850402256,2.240000009536743,-6.0269999504089355,-6.535999774932861,0.1570000052452087,-9.675000190734863,0.8830000162124633
1621850402266,2.309999942779541,-5.750999927520752,-6.486999988555908,0.1180000007152557,-9.675000190734863,0.8830000162124633
1621850402276,2.869999885559082,-5.4629998207092285,-6.507999897003174,0.0780000016093254,-9.649999618530272,0.9670000076293944
1621850402286,3.359999895095825,-4.826000213623047,-6.89300012588501,0.1180000007152557,-9.675000190734863,0.8830000162124633
1621850402296,3.569999933242798,-4.627999782562256,-7.2129998207092285,0.1180000007152557,-9.682000160217283,0.921999990940094
1621850402306,3.7100000381469727,-4.639999866485596,-7.144000053405762,0.1180000007152557,-9.682000160217283,0.921999990940094
1621850402316,3.5,-4.563000202178955,-6.775000095367432,0.1180000007152557,-9.727999687194824,0.953000009059906
1621850402325,3.1500000953674316,-4.598999977111816,-6.567999839782715,0.1180000007152557,-9.791000366210936,0.8629999756813049
1621850402335,2.380000114440918,-4.50600004196167,-6.693999767303467,0.1180000007152557,-9.791000366210936,0.8629999756813049
1621850402345,2.0299999713897705,-4.552499771118164,-6.630999565124512,0.1180000007152557,-9.80500030517578,0.9399999976158142
1621850402355,1.6799999475479126,-4.598999977111816,-6.567999839782715,0.1180000007152557,-9.812000274658203,0.977999985218048
1621850402365,1.0499999523162842,-4.368000030517578,-6.670000076293945,0.0780000016093254,-9.850000381469728,0.9720000028610228
1621850402375,0.6299999952316284,-4.129000186920166,-6.414000034332275,0.0780000016093254,-9.850000381469728,0.9720000028610228
1621850402385,0.209999993443489,-3.4030001163482666,-6.5,0.0,-9.850000381469728,0.9720000028610228
1621850402395,-0.2800000011920929,-2.5230000019073486,-7.054999828338623,0.0390000008046627,-9.812000274658203,0.977999985218048
1621850402405,-0.209999993443489,-2.3289999961853027,-6.949999809265137,0.0390000008046627,-9.843999862670898,0.9330000281333924
1621850402415,-0.6299999952316284,-1.2220000028610227,-7.181000232696533,0.0390000008046627,-9.843999862670898,0.9330000281333924
1621850402425,-1.2599999904632568,-0.3939999938011169,-7.034999847412109,0.0390000008046627,-9.850000381469728,0.9720000028610228
1621850402435,-1.5399999618530271,0.4000000059604644,-7.107999801635742,0.0390000008046627,-9.857000350952148,1.0099999904632568
1621850402445,-2.240000009536743,1.3899999856948853,-7.076000213623047,0.0390000008046627,-9.843999862670898,0.9330000281333924
1621850402455,-2.5199999809265137,2.2739999294281006,-6.848999977111816,0.0390000008046627,-9.812000274658203,0.977999985218048
1621850402465,-2.7300000190734863,3.11299991607666,-6.771999835968018,0.0390000008046627,-9.812000274658203,0.977999985218048
1621850402475,-2.5199999809265137,3.5390000343322754,-6.76800012588501,0.1570000052452087,-9.772999763488768,0.9850000143051147
1621850402485,-2.5199999809265137,4.284999847412109,-6.565999984741211,0.1570000052452087,-9.760000228881836,0.9079999923706054
1621850402495,-2.309999942779541,4.008999824523926,-6.613999843597412,0.1570000052452087,-9.70699977874756,0.8379999995231628
1621850402505,-2.309999942779541,3.615999937057495,-6.39900016784668,0.1959999948740005,-9.746000289916992,0.8309999704360961
1621850402515,-1.8200000524520872,3.003999948501587,-6.1519999504089355,0.2349999994039535,-9.699999809265137,0.7990000247955322
1621850402525,-1.6100000143051147,2.5209999084472656,-6.236999988555908,0.2750000059604644,-9.661999702453612,0.8059999942779541
1621850402535,-1.329999923706055,2.302000045776367,-6.204500198364258,0.2750000059604644,-9.699999809265137,0.7990000247955322
1621850402545,-1.0499999523162842,2.0829999446868896,-6.171999931335449,0.1959999948740005,-9.654999732971191,0.7670000195503234
1621850402555,-0.7699999809265136,1.2760000228881836,-6.03000020980835,0.1959999948740005,-9.699999809265137,0.7990000247955322
1621850402565,-0.7699999809265136,0.7609999775886535,-6.334000110626221,0.2349999994039535,-9.73900032043457,0.7919999957084655
1621850402575,-0.9100000262260436,0.335999995470047,-6.3379998207092285,0.1959999948740005,-9.746000289916992,0.8309999704360961
1621850402585,-0.7699999809265136,-0.0089999996125698,-6.39900016784668,0.1959999948740005,-9.746000289916992,0.8309999704360961
1621850402595,-1.2599999904632568,-0.2280000001192092,-6.366000175476074,0.1570000052452087,-9.760000228881836,0.9079999923706054
1621850402605,-1.2599999904632568,-0.0900000035762786,-6.3420000076293945,0.1180000007152557,-9.772999763488768,0.9850000143051147
1621850402615,-1.2599999904632568,-0.3659999966621398,-6.390999794006348,0.1570000052452087,-9.76599979400635,0.9470000267028807
1621850402625,-1.2599999904632568,-0.4350000023841857,-6.4029998779296875,0.1180000007152557,-9.71399974822998,0.8759999871253967
1621850402635,-0.9800000190734864,-0.2280000001192092,-6.366000175476074,0.1180000007152557,-9.746000289916992,0.8309999704360961
1621850402645,-0.9100000262260436,-0.5199999809265136,-5.920000076293945,0.1570000052452087,-9.70699977874756,0.8379999995231628
1621850402655,-0.9800000190734864,-0.3009999990463256,-5.953000068664551,0.1180000007152557,-9.70699977874756,0.8379999995231628
1621850402665,-0.6299999952316284,-0.0010000000474974,-6.041999816894531,0.1180000007152557,-9.699999809265137,0.7990000247955322
1621850402675,-0.4199999868869781,0.2989999949932098,-6.13100004196167,0.1180000007152557,-9.661999702453612,0.8059999942779541
1621850402685,0.0,0.0759999975562095,-5.672999858856201,0.1570000052452087,-9.699999809265137,0.7990000247955322
1621850402695,0.699999988079071,-0.2809999883174896,-5.664999961853027,0.1180000007152557,-9.654999732971191,0.7670000195503234
1621850402705,0.2800000011920929,-0.8479999899864196,-5.267000198364258,0.1570000052452087,-9.668999671936035,0.8439999818801879
1621850402715,-0.0700000002980232,-0.6740000247955322,-5.449999809265137,0.1570000052452087,-9.70699977874756,0.8379999995231628
1621850402725,-0.2449999898672103,-0.6169999837875366,-5.972999572753906,0.1570000052452087,-9.70699977874756,0.8379999995231628
1621850402735,-0.4199999868869781,-0.5600000023841857,-6.495999813079834,0.1180000007152557,-9.753000259399414,0.8690000176429749
1621850402745,0.0,-0.7110000252723693,-7.6599998474121085,0.1180000007152557,-9.71399974822998,0.8759999871253967
1621850402755,0.1400000005960464,-0.9539999961853028,-7.488999843597413,0.1570000052452087,-9.71399974822998,0.8759999871253967
1621850402765,0.2800000011920929,-1.315000057220459,-7.056000232696533,0.1959999948740005,-9.720999717712402,0.915000021457672
1621850402775,0.1400000005960464,-1.9960000514984133,-6.820000171661377,0.1959999948740005,-9.675000190734863,0.8830000162124633
1621850402785,0.5600000023841857,-3.2039999961853027,-6.820000171661377,0.1959999948740005,-9.675000190734863,0.8830000162124633
1621850402795,0.3499999940395355,-3.444000005722046,-7.074999809265137,0.1959999948740005,-9.720999717712402,0.915000021457672
1621850402805,0.6299999952316284,-3.8529999256134033,-7.573999881744384,0.1570000052452087,-9.760000228881836,0.9079999923706054
1621850402815,0.4900000095367431,-4.144999980926514,-8.336000442504883,0.1570000052452087,-9.760000228881836,0.9079999923706054
1621850402825,0.0,-4.498000144958496,-8.753999710083008,0.1570000052452087,-9.760000228881836,0.9079999923706054
1621850402835,0.209999993443489,-4.835000038146973,-9.666000366210936,0.1570000052452087,-9.760000228881836,0.9079999923706054
1621850402845,0.0,-5.026000022888184,-10.197999954223633,0.1570000052452087,-9.76599979400635,0.9470000267028807
1621850402855,-0.3499999940395355,-4.988999843597412,-10.404000282287598,0.2750000059604644,-9.70699977874756,0.8379999995231628
1621850402865,-0.4199999868869781,-5.322000026702881,-10.534000396728516,0.2349999994039535,-9.70699977874756,0.8379999995231628
1621850402875,-0.3499999940395355,-5.791999816894531,-10.687999725341797,0.1959999948740005,-9.71399974822998,0.8759999871253967
1621850402885,-0.4900000095367431,-5.953999996185303,-10.574999809265137,0.1959999948740005,-9.727999687194824,0.953000009059906
1621850402895,-0.4900000095367431,-6.257999897003174,-10.0600004196167,0.1959999948740005,-9.727999687194824,0.953000009059906
1621850402905,-0.7000000476837158,-6.426499843597412,-9.912000656127928,0.2349999994039535,-9.727999687194824,0.953000009059906
1621850402915,-0.9100000262260436,-6.59499979019165,-9.763999938964846,0.1959999948740005,-9.76599979400635,0.9470000267028807
1621850402925,-1.1200000047683716,-6.13700008392334,-9.541000366210936,0.1959999948740005,-9.812000274658203,0.977999985218048
1621850402935,-1.399999976158142,-6.550000190734863,-9.61299991607666,0.2349999994039535,-9.80500030517578,0.9399999976158142
1621850402945,-1.6799999475479126,-6.59499979019165,-9.763999938964846,0.2750000059604644,-9.80500030517578,0.9399999976158142
1621850402955,-1.9600000381469729,-6.71999979019165,-9.857000350952148,0.2750000059604644,-9.812000274658203,0.977999985218048
1621850402965,-2.450000047683716,-6.97599983215332,-9.616999626159668,0.2349999994039535,-9.836999893188477,0.8939999938011169
1621850402975,-3.009999990463257,-7.1539998054504395,-9.008999824523924,0.2750000059604644,-9.875,0.8880000114440918
1621850402985,-3.990000009536743,-7.44600009918213,-8.562999725341797,0.2349999994039535,-9.88199996948242,0.9259999990463256
1621850402995,-4.619999885559082,-7.145999908447266,-8.652000427246094,0.1570000052452087,-9.928000450134276,0.9580000042915344
1621850403005,-5.670000076293945,-7.113999843597412,-8.432999610900879,0.1570000052452087,-9.88199996948242,0.9259999990463256
1621850403015,-6.860000133514404,-6.64300012588501,-8.279000282287598,0.1570000052452087,-9.88199996948242,0.9259999990463256
1621850403025,-7.0,-6.192999839782715,-8.413000106811523,0.1570000052452087,-9.79800033569336,0.9010000228881836
1621850403035,-7.420000076293945,-5.5970001220703125,-8.166000366210938,0.1570000052452087,-9.829999923706056,0.856000006198883
1621850403045,-8.119999885559082,-4.752999782562256,-7.306000232696533,0.1570000052452087,-9.829999923706056,0.856000006198883
1621850403055,-8.539999961853027,-4.190000057220459,-7.277999877929688,0.1570000052452087,-9.977999687194824,0.7900000214576721
1621850403065,-10.5,-3.5820000171661377,-7.099999904632568,0.1959999948740005,-10.062000274658203,0.8149999976158142
1621850403075,-13.159999847412108,-3.7109999656677246,-6.767000198364258,0.2349999994039535,-10.131999969482422,0.7630000114440918
1621850403085,-15.68000030517578,-3.9179999828338623,-6.803999900817871,0.2349999994039535,-10.131999969482422,0.7630000114440918
1621850403095,-17.5,-4.486000061035156,-6.406000137329102,0.2750000059604644,-10.125,0.7239999771118164
1621850403105,-18.13000106811523,-4.791999816894531,-6.886500358581543,0.2750000059604644,-10.010000228881836,0.7440000176429749
1621850403115,-18.760000228881836,-5.0980000495910645,-7.367000102996825,0.2750000059604644,-9.906999588012695,0.8420000076293945
1621850403125,-19.040000915527344,-6.071000099182129,-7.894000053405762,0.2750000059604644,-9.770999908447264,0.746999979019165
1621850403135,-18.899999618530273,-6.355000019073486,-8.300000190734863,0.1959999948740005,-9.687000274658203,0.722000002861023
1621850403145,-18.34000015258789,-7.122000217437744,-8.789999961853027,0.2750000059604644,-9.58899974822998,0.6190000176429749
1621850403155,-17.5,-7.75,-9.255999565124512,0.2349999994039535,-9.621000289916992,0.5740000009536743
1621850403165,-16.59000015258789,-7.8400001525878915,-9.557000160217283,0.2750000059604644,-9.6850004196167,0.4830000102519989
1621850403175,-15.609999656677246,-8.3100004196167,-9.711000442504885,0.3140000104904174,-9.6850004196167,0.4830000102519989
1621850403185,-15.68000030517578,-8.727999687194824,-9.357999801635742,0.2750000059604644,-9.678000450134276,0.4440000057220459
1621850403195,-15.75,-9.14099979400635,-9.430999755859377,0.2750000059604644,-9.678000450134276,0.4440000057220459
1621850403205,-15.1899995803833,-9.494000434875488,-9.847999572753906,0.2750000059604644,-9.638999938964846,0.4510000050067901
1621850403215,-14.630000114440918,-9.802000045776367,-10.116000175476074,0.2750000059604644,-9.593999862670898,0.4189999997615814
1621850403225,-14.0,-9.546999931335447,-10.354999542236328,0.2349999994039535,-9.734999656677246,0.3149999976158142
1621850403235,-14.979999542236328,-8.991000175476074,-10.684000015258787,0.3140000104904174,-9.9350004196167,0.3199999928474426
1621850403245,-17.149999618530273,-9.133000373840332,-10.281999588012695,0.3529999852180481,-10.057000160217283,0.3379999995231628
1621850403255,-19.25,-9.571000099182127,-10.217000007629396,0.4709999859333038,-10.102999687194824,0.3700000047683715
1621850403265,-21.06999969482422,-10.232000350952148,-9.694000244140623,0.4309999942779541,-10.109999656677246,0.4079999923706054
1621850403275,-22.1200008392334,-10.597000122070312,-10.04300022125244,0.4309999942779541,-9.987000465393066,0.3899999856948852
1621850403285,-22.329999923706055,-10.961999893188477,-10.390999794006348,0.3919999897480011,-9.9350004196167,0.3199999928474426
1621850403295,-21.420000076293945,-10.72700023651123,-10.918999671936035,0.3529999852180481,-9.895999908447264,0.3260000050067901
1621850403305,-20.685001373291016,-10.244500160217283,-10.833499908447266,0.2349999994039535,-9.64400005340576,0.2509999871253967
1621850403315,-19.950000762939453,-9.762000083923342,-10.748000144958496,0.2750000059604644,-9.623000144958496,0.135000005364418
1621850403325,-18.6200008392334,-8.638999938964844,-10.265999794006348,0.3140000104904174,-9.609999656677246,0.0579999983310699
1621850403335,-17.149999618530273,-7.499000072479248,-9.06999969482422,0.3529999852180481,-9.564000129699709,0.0260000005364418
1621850403345,-16.520000457763672,-7.182000160217285,-7.236999988555909,0.3529999852180481,-9.635000228881836,-0.0260000005364418
1621850403355,-16.170000076293945,-7.44600009918213,-6.145999908447266,0.3140000104904174,-9.51900005340576,-0.0049999998882412
1621850403365,-15.609999656677246,-8.369999885559082,-5.741000175476074,0.3140000104904174,-9.428000450134276,-0.0689999982714653
1621850403375,-14.279999732971191,-9.03499984741211,-6.0,0.2349999994039535,-9.343999862670898,-0.0939999967813491
1621850403385,-12.8100004196167,-8.946000099182129,-6.9079999923706055,0.1959999948740005,-9.272999763488768,-0.0419999994337558
1621850403395,-10.850000381469728,-8.265000343322754,-8.35200023651123,0.1570000052452087,-9.272999763488768,-0.0419999994337558
1621850403405,-8.399999618530273,-7.414000034332275,-9.553000450134276,0.1959999948740005,-9.312000274658203,-0.0489999987185001
1621850403415,-5.670000076293945,-6.521999835968018,-10.177000045776367,0.2349999994039535,-9.30500030517578,-0.0869999974966049
1621850403425,-3.7100000381469727,-5.841000080108643,-10.411999702453612,0.2750000059604644,-9.35099983215332,-0.0560000017285346
1621850403435,-2.0999999046325684,-6.245999813079834,-10.128000259399414,0.3529999852180481,-9.38199996948242,-0.101000003516674
1621850403445,-0.6299999952316284,-6.4120001792907715,-9.58899974822998,0.3919999897480011,-9.45300006866455,-0.152999997138977
1621850403455,0.9100000262260436,-7.122000217437744,-8.789999961853027,0.3919999897480011,-9.42099952697754,-0.1080000028014183
1621850403465,2.309999942779541,-8.15999984741211,-7.3379998207092285,0.4309999942779541,-9.472999572753906,-0.0370000004768371
1621850403475,3.359999895095825,-9.17300033569336,-6.02400016784668,0.5099999904632568,-9.512000083923342,-0.0439999997615814
1621850403485,4.269999980926514,-10.045000076293944,-5.111999988555908,0.4309999942779541,-9.564000129699709,0.0260000005364418
1621850403495,4.96999979019165,-10.892000198364258,-4.336999893188477,0.3919999897480011,-9.647999763488768,0.0509999990463256
1621850403505,5.25,-11.45199966430664,-3.5829999446868896,0.3529999852180481,-9.770999908447264,0.0700000002980232
1621850403515,5.460000038146973,-12.295000076293944,-3.2339999675750732,0.2349999994039535,-9.803000450134276,0.0240000002086162
1621850403525,5.18000030517578,-12.503999710083008,-3.057499885559082,0.1570000052452087,-9.822999954223633,0.1400000005960464
1621850403535,4.900000095367432,-12.713000297546388,-2.88100004196167,0.1570000052452087,-9.869000434875488,0.1720000058412551
1621850403545,4.619999885559082,-12.866999626159668,-2.4110000133514404,0.1570000052452087,-9.906999588012695,0.1650000065565109
1621850403555,4.130000114440918,-13.017000198364258,-2.365999937057495,0.1180000007152557,-9.946000099182127,0.1580000072717666
1621850403565,3.2899999618530273,-13.824000358581545,-2.2239999771118164,0.1180000007152557,-9.946000099182127,0.1580000072717666
1621850403575,2.240000009536743,-14.619000434875488,-2.1510000228881836,0.1570000052452087,-9.939000129699709,0.1199999973177909
1621850403585,1.0499999523162842,-15.51099967956543,-2.734999895095825,0.1570000052452087,-9.906999588012695,0.1650000065565109
1621850403595,-0.0700000002980232,-16.04599952697754,-3.3269999027252197,0.1180000007152557,-9.906999588012695,0.1650000065565109
1621850403605,-0.7699999809265136,-16.18000030517578,-3.776999950408935,0.0780000016093254,-9.901000022888184,0.1260000020265579
1621850403615,-1.8200000524520872,-16.57699966430664,-4.34499979019165,0.0390000008046627,-9.862000465393066,0.1330000013113021
1621850403625,-2.799999952316284,-16.541000366210938,-4.551000118255615,0.0,-9.815999984741213,0.101000003516674
1621850403635,-3.0799999237060547,-16.216999053955078,-4.7789998054504395,0.0,-9.78499984741211,0.1469999998807907
1621850403645,-3.2899999618530273,-15.972999572753906,-4.948999881744385,0.0,-9.73900032043457,0.1150000020861625
1621850403655,-3.009999990463257,-16.010000228881836,-4.742000102996826,0.0,-9.687000274658203,0.0450000017881393
1621850403665,-3.0799999237060547,-15.552000045776367,-4.519000053405762,0.0,-9.602999687194824,0.0199999995529651
1621850403675,-2.799999952316284,-15.187000274658203,-4.170000076293945,-0.0390000008046627,-9.564000129699709,0.0260000005364418
1621850403685,-2.7300000190734863,-14.67099952697754,-3.865999937057495,-0.0390000008046627,-9.564000129699709,0.0260000005364418
1621850403695,-2.940000057220459,-14.234000205993652,-3.9309999942779545,0.0,-9.642000198364256,0.0130000002682209
1621850403705,-3.430000066757202,-13.682000160217283,-3.8340001106262207,0.0390000008046627,-9.642000198364256,0.0130000002682209
1621850403715,-4.480000019073486,-13.187000274658203,-3.8180000782012935,0.0780000016093254,-9.635000228881836,-0.0260000005364418
1621850403725,-5.599999904632568,-13.045000076293944,-4.218999862670898,0.1570000052452087,-9.550999641418455,-0.0509999990463256
1621850403735,-6.440000057220459,-13.685999870300291,-4.617000102996826,0.1570000052452087,-9.467000007629396,-0.0759999975562095
1621850403745,-7.070000171661377,-14.17300033569336,-4.276000022888184,0.2349999994039535,-9.343999862670898,-0.0939999967813491
1621850403755,-7.175000190734863,-14.446500778198242,-4.537499904632568,0.3140000104904174,-9.260000228881836,-0.1190000027418136
1621850403765,-7.280000209808349,-14.720000267028809,-4.798999786376953,0.3529999852180481,-9.168999671936035,-0.1829999983310699
1621850403775,-7.139999866485596,-15.336999893188477,-5.334000110626221,0.4709999859333038,-9.123000144958496,-0.2150000035762786
1621850403785,-6.579999923706055,-16.00200080871582,-5.593999862670898,0.4709999859333038,-9.04599952697754,-0.2010000050067901
1621850403795,-5.53000020980835,-16.849000930786133,-6.0269999504089355,0.5099999904632568,-9.008000373840332,-0.1940000057220459
1621850403805,-4.550000190734863,-18.10199928283691,-6.177000045776367,0.5099999904632568,-9.00100040435791,-0.2329999953508377
1621850403815,-3.5,-19.423999786376953,-6.339000225067139,0.4709999859333038,-9.032999992370604,-0.277999997138977
1621850403825,-2.6600000858306885,-20.39800071716309,-6.866000175476074,0.4709999859333038,-9.147999763488768,-0.2989999949932098
1621850403835,-1.8200000524520872,-20.632999420166016,-7.547999858856201,0.4709999859333038,-9.29599952697754,-0.3650000095367431
1621850403845,-1.0499999523162842,-21.191999435424805,-8.001999855041504,0.4709999859333038,-9.373000144958496,-0.3779999911785125
1621850403855,0.4199999868869781,-21.958999633789062,-8.491999626159668,0.4709999859333038,-9.458000183105469,-0.3529999852180481
1621850403865,2.309999942779541,-22.822999954223633,-8.430999755859375,0.4709999859333038,-9.651000022888184,-0.3869999945163726
1621850403875,4.199999809265137,-23.690000534057617,-7.943999767303467,0.4309999942779541,-9.779999732971191,-0.3300000131130218
1621850403885,6.159999847412109,-23.913000106811523,-7.486000061035157,0.3919999897480011,-9.94200038909912,-0.3190000057220459
1621850403895,8.119999885559082,-23.85700035095215,-7.405000209808349,0.3529999852180481,-10.050999641418455,-0.3779999911785125
1621850403905,9.729999542236328,-23.479000091552734,-7.125,0.3140000104904174,-10.218999862670898,-0.328000009059906
1621850403915,10.989999771118164,-22.61199951171875,-7.611999988555909,0.2750000059604644,-10.418999671936035,-0.3230000138282775
1621850403925,12.109999656677246,-21.743999481201172,-8.098999977111816,0.3140000104904174,-10.541000366210936,-0.3050000071525573
1621850403935,12.109999656677246,-20.798999786376953,-8.217000007629395,0.3140000104904174,-10.562000274658203,-0.1889999955892562
1621850403945,12.25,-19.70400047302246,-8.378999710083008,0.3529999852180481,-10.550000190734863,-0.0280000008642673
1621850403955,12.039999961853027,-18.57699966430664,-8.321999549865723,0.3529999852180481,-10.479999542236328,0.0240000002086162
1621850403965,11.6899995803833,-17.72100067138672,-7.532000064849853,0.3140000104904174,-10.416000366210936,0.1150000020861625
1621850403975,11.270000457763672,-17.16550064086914,-7.256000041961671,0.3140000104904174,-10.390999794006348,0.1990000009536743
1621850403985,10.850000381469728,-16.610000610351562,-6.980000019073486,0.3529999852180481,-10.390999794006348,0.1990000009536743
1621850403995,9.9399995803833,-15.303999900817873,-6.323999881744385,0.3529999852180481,-10.437000274658203,0.231000006198883
1621850404005,8.819999694824219,-14.241999626159668,-5.497000217437744,0.3919999897480011,-10.366000175476074,0.2829999923706054
1621850404015,8.1899995803833,-13.409999847412108,-4.567999839782715,0.4309999942779541,-10.256999969482422,0.3420000076293945
1621850404025,7.420000076293945,-12.067999839782717,-4.118000030517578,0.5099999904632568,-10.194000244140623,0.4329999983310699
1621850404034,6.510000228881836,-11.47599983215332,-3.444999933242798,0.5099999904632568,-10.024999618530272,0.3829999864101409
1621850404044,5.53000020980835,-11.123000144958496,-3.0280001163482666,0.5490000247955322,-9.90999984741211,0.4040000140666961
1621850404054,4.480000019073486,-10.753999710083008,-3.1050000190734863,0.5879999995231628,-9.812000274658203,0.3009999990463256
1621850404064,3.0799999237060547,-10.482999801635742,-2.630000114440918,0.5490000247955322,-9.760000228881836,0.231000006198883
1621850404074,1.9600000381469729,-10.49899959564209,-2.135999917984009,0.5490000247955322,-9.70699977874756,0.1599999964237213
1621850404084,0.9800000190734864,-10.871999740600586,-1.6330000162124634,0.5879999995231628,-9.654999732971191,0.0900000035762786
1621850404094,0.3499999940395355,-11.126999855041504,-1.3930000066757202,0.5879999995231628,-9.571000099182127,0.0649999976158142
1621850404104,-0.0700000002980232,-11.277000427246094,-1.3489999771118164,0.5879999995231628,-9.51900005340576,-0.0049999998882412
1621850404114,0.0,-11.921999931335447,-1.3200000524520874,0.5490000247955322,-9.51900005340576,-0.0049999998882412
1621850404124,-0.4199999868869781,-11.845000267028809,-2.1600000858306885,0.5490000247955322,-9.543999671936035,-0.0900000035762786
1621850404134,-0.209999993443489,-11.975000381469728,-3.0360000133514404,0.4709999859333038,-9.58199977874756,-0.096000000834465
1621850404144,-0.3499999940395355,-11.890000343322754,-3.5179998874664307,0.4309999942779541,-9.652999877929688,-0.1490000039339065
1621850404154,-0.6299999952316284,-11.119000434875488,-4.6620001792907715,0.3919999897480011,-9.69200038909912,-0.1550000011920929
1621850404164,-0.9800000190734864,-10.097999572753906,-5.61899995803833,0.3529999852180481,-9.776000022888184,-0.1299999952316284
1621850404174,-1.2599999904632568,-9.298999786376951,-6.118000030517578,0.3140000104904174,-9.776000022888184,-0.1299999952316284
1621850404184,-0.9800000190734864,-8.37399959564209,-6.5229997634887695,0.3529999852180481,-9.762000083923342,-0.2080000042915344
1621850404194,-0.5600000023841857,-7.300000190734864,-6.973999977111816,0.3529999852180481,-9.781999588012695,-0.0920000001788139
1621850404204,0.0700000002980232,-6.23799991607666,-7.355000019073486,0.3529999852180481,-9.82800006866455,-0.0599999986588954
1621850404214,0.4900000095367431,-5.390500068664551,-7.525500297546388,0.3529999852180481,-9.873000144958496,-0.0280000008642673
1621850404224,0.9100000262260436,-4.543000221252441,-7.69600009918213,0.4309999942779541,-9.835000038146973,-0.0209999997168779
1621850404234,1.6799999475479126,-3.0260000228881836,-7.427999973297118,0.4709999859333038,-9.925999641418455,0.0419999994337558
1621850404244,2.240000009536743,-1.9429999589920044,-7.521999835968018,0.4709999859333038,-9.932000160217283,0.0810000002384185
1621850404254,2.1700000762939453,-0.3779999911785125,-7.530000209808349,0.5099999904632568,-9.977999687194824,0.1129999980330467
1621850404264,2.0999999046325684,0.5870000123977661,-7.360000133514405,0.5879999995231628,-10.015999794006348,0.1059999987483024
1621850404274,1.399999976158142,1.52400004863739,-6.625999927520752,0.6280000209808348,-10.015999794006348,0.1059999987483024
1621850404284,-0.0700000002980232,2.431999921798706,-5.328999996185303,0.6280000209808348,-10.015999794006348,0.1059999987483024
1621850404294,-1.4700000286102295,3.0369999408721924,-4.723999977111816,0.6280000209808348,-9.946000099182127,0.1580000072717666
1621850404304,-2.450000047683716,3.2149999141693115,-4.124000072479248,0.6669999957084655,-9.906999588012695,0.1650000065565109
1621850404314,-3.569999933242798,3.2920000553131104,-3.755000114440918,0.7059999704360961,-9.854999542236328,0.0949999988079071
1621850404324,-4.130000114440918,3.1459999084472656,-4.13700008392334,0.7450000047683715,-9.869000434875488,0.1720000058412551
1621850404334,-4.619999885559082,2.7079999446868896,-4.072000026702881,0.7450000047683715,-9.8100004196167,0.0630000010132789
1621850404344,-5.670000076293945,2.2699999809265137,-4.006999969482422,0.7450000047683715,-9.737000465393066,-0.123999997973442
1621850404354,-6.369999885559082,1.1710000038146973,-4.626999855041504,0.8240000009536743,-9.652999877929688,-0.1490000039339065
1621850404364,-6.579999923706055,-0.135000005364418,-5.283999919891357,0.7850000262260437,-9.576000213623049,-0.135000005364418
1621850404374,-7.280000209808349,-1.5420000553131104,-6.171000003814697,0.8240000009536743,-9.762000083923342,-0.2080000042915344
1621850404384,-6.510000228881836,-2.5880000591278076,-7.493000030517577,0.7850000262260437,-9.755000114440918,-0.2460000067949295
1621850404394,-5.25,-3.7969999313354497,-9.90999984741211,0.7850000262260437,-9.762000083923342,-0.2080000042915344
1621850404404,-4.269999980926514,-5.261000156402588,-10.878999710083008,0.8240000009536743,-9.800999641418455,-0.2150000035762786
1621850404414,-3.849999904632568,-6.591000080108643,-11.39799976348877,0.7850000262260437,-9.800999641418455,-0.2150000035762786
1621850404424,-3.7799999713897705,-7.333000183105469,-12.026000022888184,0.6669999957084655,-9.885000228881836,-0.1889999955892562
1621850404434,-3.6400001049041744,-7.77899980545044,-12.317999839782717,0.6280000209808348,-9.89099979400635,-0.1509999930858612
1621850404444,-3.5350000858306885,-7.611000061035157,-12.465999603271484,0.5879999995231628,-9.897999763488768,-0.1120000034570694
1621850404454,-3.430000066757202,-7.442999839782715,-12.61400032043457,0.5099999904632568,-9.866000175476074,-0.06700000166893
1621850404464,-3.009999990463257,-7.013000011444092,-13.03600025177002,0.4709999859333038,-9.8100004196167,0.0630000010132789
1621850404474,-2.240000009536743,-6.056000232696533,-13.222000122070312,0.3919999897480011,-9.835000038146973,-0.0209999997168779
1621850404484,-1.1200000047683716,-4.920000076293945,-12.809000015258787,0.3919999897480011,-9.770999908447264,0.0700000002980232
1621850404494,-0.209999993443489,-3.8299999237060542,-12.54599952697754,0.3919999897480011,-9.732000350952148,0.0759999975562095
1621850404504,0.8399999737739563,-2.625,-12.119999885559082,0.3919999897480011,-9.661999702453612,0.1289999932050705
1621850404514,2.1700000762939453,-1.3279999494552612,-11.81999969482422,0.3919999897480011,-9.623000144958496,0.135000005364418
1621850404524,3.849999904632568,0.0109999999403953,-10.944000244140623,0.3919999897480011,-9.585000038146973,0.1420000046491622
1621850404534,5.039999961853027,1.3609999418258667,-10.137999534606934,0.3529999852180481,-9.553000450134276,0.1879999935626983
1621850404544,6.300000190734863,2.6059999465942383,-9.13599967956543,0.3140000104904174,-9.5600004196167,0.2259999960660934
1621850404554,7.070000171661377,3.7049999237060542,-8.515999794006348,0.3529999852180481,-9.572999954223633,0.3039999902248382
1621850404564,7.280000209808349,4.706999778747559,-7.343999862670899,0.3529999852180481,-9.612000465393066,0.2969999909400939
1621850404574,7.489999771118165,4.982999801635742,-6.086999893188477,0.3919999897480011,-9.619000434875488,0.3350000083446502
1621850404584,7.769999980926514,5.23799991607666,-5.118000030517578,0.3919999897480011,-9.586999893188477,0.3810000121593475
1621850404594,7.769999980926514,5.554999828338623,-4.49399995803833,0.3919999897480011,-9.55500030517578,0.4259999990463256
1621850404604,7.8400001525878915,5.583000183105469,-3.848999977111816,0.3919999897480011,-9.477999687194824,0.4399999976158142
1621850404614,7.420000076293945,5.48199987411499,-2.871999979019165,0.3919999897480011,-9.491000175476074,0.5170000195503234
1621850404624,7.559999942779541,4.65500020980835,-1.8090000152587893,0.3529999852180481,-9.413999557495115,0.531000018119812
1621850404634,7.420000076293945,4.525000095367432,-1.4769999980926514,0.3529999852180481,-9.37600040435791,0.5379999876022338
1621850404644,4.199999809265137,2.760999917984009,0.0599999986588954,0.3919999897480011,-9.67099952697754,0.4059999883174896
1621850404654,4.619999885559082,0.4129999876022338,-1.1349999904632568,0.5099999904632568,-10.269000053405762,0.1809999942779541
1621850404664,5.774999618530273,-0.296500027179718,-2.752999782562256,0.5490000247955322,-10.571000099182127,0.0879999995231628
1621850404674,6.929999828338623,-1.00600004196167,-4.370999813079834,0.5099999904632568,-10.42300033569336,0.1539999991655349
1621850404684,9.100000381469728,-2.7100000381469727,-6.803999900817871,0.5490000247955322,-10.08899974822998,0.2919999957084655
1621850404694,9.869999885559082,-5.539999961853027,-8.085000038146973,0.7059999704360961,-9.786999702453612,0.3849999904632568
1621850404704,9.3100004196167,-9.77400016784668,-8.262999534606934,0.8629999756813049,-9.60099983215332,0.4580000042915344
1621850404714,7.8400001525878915,-16.18000030517578,-7.401999950408936,1.1380000114440918,-9.522999763488768,0.4720000028610229
1621850404724,6.860000133514404,-25.07699966430664,-6.127999782562256,1.5299999713897705,-9.51599979400635,0.4329999983310699
1621850404734,5.599999904632568,-37.93899917602539,-4.13100004196167,1.9609999656677248,-9.510000228881836,0.3939999938011169
1621850404744,3.7799999713897705,-51.632999420166016,-3.062000036239624,2.313999891281128,-9.39400005340576,0.4149999916553497
1621850404754,2.6600000858306885,-64.75900268554688,-3.5999999046325684,2.510999917984009,-9.336999893188477,0.5440000295639038
1621850404764,1.6799999475479126,-75.4280014038086,-5.979000091552734,2.4709999561309814,-9.14400005340576,0.578000009059906
1621850404774,1.5399999618530271,-83.38400268554688,-9.229999542236328,2.313999891281128,-9.0600004196167,0.5529999732971191
1621850404784,1.75,-88.99299621582033,-12.493000030517578,2.0789999961853027,-9.027999877929688,0.5989999771118164
1621850404794,2.1700000762939453,-92.53299713134764,-14.184000015258787,1.843999981880188,-9.151000022888184,0.6169999837875366
1621850404804,3.1500000953674316,-95.5500030517578,-14.005000114440918,1.6080000400543213,-9.20300006866455,0.6880000233650208
1621850404814,4.269999980926514,-97.66999816894533,-12.460000038146973,1.3339999914169312,-9.293999671936035,0.7509999871253967
1621850404824,4.409999847412109,-99.73400115966795,-9.625,1.1380000114440918,-9.42300033569336,0.8080000281333923
1621850404834,4.690000057220459,-100.77999877929688,-7.32100009918213,0.981000006198883,-9.5600004196167,0.902999997138977
1621850404844,5.460000038146973,-100.85199737548828,-4.491000175476074,0.6280000209808348,-9.734999656677246,0.9919999837875366
1621850404854,5.53000020980835,-97.57599639892578,-4.126999855041504,0.2750000059604644,-9.824999809265137,1.055999994277954
1621850404864,6.019999980926514,-91.47699737548828,-5.255000114440918,-0.0390000008046627,-9.902999877929688,1.0420000553131104
1621850404874,6.19499969482422,-88.07499694824219,-6.005499839782715,-0.3529999852180481,-9.916000366210936,1.11899995803833
1621850404884,6.369999885559082,-84.6729965209961,-6.75600004196167,-0.5490000247955322,-9.916000366210936,1.11899995803833
1621850404894,6.929999828338623,-77.3949966430664,-7.32100009918213,-0.6280000209808348,-9.883999824523924,1.1649999618530271
1621850404904,6.440000057220459,-71.48999786376953,-6.13700008392334,-0.5879999995231628,-9.883999824523924,1.1649999618530271
1621850404914,5.599999904632568,-66.4260025024414,-5.031000137329102,-0.6280000209808348,-9.968999862670898,1.190000057220459
1621850404924,5.179999828338623,-61.64899826049805,-3.9040000438690186,-0.6280000209808348,-9.93000030517578,1.1970000267028809
1621850404934,4.760000228881836,-56.608001708984375,-3.8689999580383305,-0.7059999704360961,-9.897999763488768,1.2419999837875366
1621850404944,4.480000019073486,-50.89899826049805,-3.999000072479248,-0.7850000262260437,-9.897999763488768,1.2419999837875366
1621850404954,3.990000009536743,-44.88899993896485,-4.218999862670898,-0.8629999756813049,-9.904999732971191,1.281000018119812
1621850404964,3.5,-39.28099822998047,-4.580999851226807,-0.9020000100135804,-9.866000175476074,1.287999987602234
1621850404974,3.009999990463257,-33.632999420166016,-4.367000102996826,-0.9020000100135804,-9.821000099182127,1.25600004196167
1621850404984,2.6600000858306885,-28.961000442504883,-4.254000186920166,-0.9020000100135804,-9.744000434875488,1.2690000534057615
1621850404994,2.5899999141693115,-24.94300079345703,-4.468999862670898,-0.8240000009536743,-9.729999542236328,1.1920000314712524
1621850405004,2.450000047683716,-21.55699920654297,-4.724999904632568,-0.7450000047683715,-9.737000465393066,1.2309999465942385
1621850405014,1.8200000524520872,-18.054000854492188,-5.244999885559082,-0.7059999704360961,-9.793999671936035,1.10099995136261
1621850405024,1.3300000429153442,-14.788999557495115,-6.019999980926514,-0.7450000047683715,-9.845999717712402,1.1720000505447388
1621850405034,0.2800000011920929,-11.942999839782717,-6.441999912261963,-0.7059999704360961,-9.89099979400635,1.2029999494552612
1621850405044,-0.1400000005960464,-10.517499923706056,-6.261499881744385,-0.7450000047683715,-9.968999862670898,1.190000057220459
1621850405054,-0.5600000023841857,-9.092000007629396,-6.080999851226807,-0.7850000262260437,-10.006999969482422,1.1829999685287476
1621850405064,-1.2599999904632568,-6.104000091552734,-5.696000099182129,-0.7850000262260437,-9.994000434875488,1.1059999465942385
1621850405074,-1.75,-3.069999933242798,-5.1620001792907715,-0.7850000262260437,-9.947999954223633,1.0740000009536743
1621850405084,-1.8200000524520872,-0.8320000171661377,-4.553999900817871,-0.7059999704360961,-9.857000350952148,1.0099999904632568
1621850405094,-1.399999976158142,1.037999987602234,-3.8689999580383305,-0.7059999704360961,-9.76599979400635,0.9470000267028807
1621850405104,-1.0499999523162842,3.6449999809265137,-3.3380000591278076,-0.7059999704360961,-9.772999763488768,0.9850000143051147
1621850405114,-0.8399999737739563,5.2270002365112305,-2.631999969482422,-0.7059999704360961,-9.772999763488768,0.9850000143051147
1621850405124,-0.6299999952316284,6.738999843597412,-1.9390000104904177,-0.6280000209808348,-9.741000175476074,1.031000018119812
1621850405134,-0.6299999952316284,7.834000110626221,-0.8930000066757202,-0.5879999995231628,-9.727999687194824,0.953000009059906
1621850405144,-0.4900000095367431,8.154000282287598,-0.6949999928474426,-0.5099999904632568,-9.746000289916992,0.8309999704360961
1621850405154,-0.3499999940395355,8.418000221252441,-0.5770000219345092,-0.5490000247955322,-9.753000259399414,0.8690000176429749
1621850405164,0.0,9.432000160217283,-0.6830000281333923,-0.6280000209808348,-9.71399974822998,0.8759999871253967
1621850405174,0.4900000095367431,10.57900047302246,-1.5460000038146973,-0.6280000209808348,-9.71399974822998,0.8759999871253967
1621850405184,1.1200000047683716,11.762999534606934,-2.6170001029968266,-0.5879999995231628,-9.64400005340576,0.9279999732971193
1621850405194,1.399999976158142,12.81700038909912,-3.3550000190734863,-0.5099999904632568,-9.668999671936035,0.8439999818801879
1621850405204,1.329999923706055,13.16800022125244,-3.9330000877380367,-0.4309999942779541,-9.746000289916992,0.8309999704360961
1621850405214,1.2599999904632568,13.519000053405762,-4.511000156402588,-0.3919999897480011,-9.829999923706056,0.856000006198883
1621850405224,1.0499999523162842,14.220000267028809,-5.666999816894531,-0.2349999994039535,-9.913999557495115,0.8809999823570251
1621850405234,0.2800000011920929,14.324999809265137,-7.070000171661377,-0.1570000052452087,-9.906999588012695,0.8420000076293945
1621850405244,-0.4199999868869781,14.645999908447266,-8.079999923706055,-0.0390000008046627,-9.899999618530272,0.8040000200271606
1621850405254,-0.699999988079071,14.758999824523926,-9.12600040435791,0.0390000008046627,-9.822999954223633,0.8169999718666076
1621850405264,-0.5600000023841857,13.74899959564209,-9.446000099182127,0.1570000052452087,-9.694000244140623,0.7599999904632568
1621850405274,-0.1400000005960464,13.526000022888184,-10.196000099182127,0.2349999994039535,-9.609999656677246,0.7350000143051147
1621850405284,0.9100000262260436,12.350000381469728,-9.97700023651123,0.3529999852180481,-9.526000022888184,0.7099999785423278
1621850405294,2.0299999713897705,11.116999626159668,-9.83899974822998,0.4309999942779541,-9.487000465393066,0.7170000076293945
1621850405304,2.7300000190734863,9.00100040435791,-9.928000450134276,0.5490000247955322,-9.447999954223633,0.7239999771118164
1621850405314,3.5,6.76200008392334,-9.32699966430664,0.6669999957084655,-9.479999542236328,0.6779999732971191
1621850405324,4.409999847412109,4.24399995803833,-8.350000381469727,0.7450000047683715,-9.479999542236328,0.6779999732971191
1621850405334,5.179999828338623,1.7990000247955322,-7.78599977493286,0.8240000009536743,-9.440999984741213,0.6850000023841857
1621850405344,6.019999980926514,0.0109999999403953,-7.318999767303467,0.7450000047683715,-9.479999542236328,0.6779999732971191
1621850405354,6.929999828338623,-0.7429999709129333,-6.670000076293945,0.6669999957084655,-9.440999984741213,0.6850000023841857
1621850405364,7.559999465942383,-0.7814999818801879,-6.250499725341797,0.5099999904632568,-9.440999984741213,0.6850000023841857
1621850405374,8.1899995803833,-0.8199999928474426,-5.830999851226807,0.3529999852180481,-9.694000244140623,0.7599999904632568
1621850405384,8.680000305175781,-0.4550000131130218,-5.48199987411499,0.2750000059604644,-9.654999732971191,0.7670000195503234
1621850405394,8.890000343322754,0.3160000145435333,-5.418000221252441,0.1570000052452087,-9.694000244140623,0.7599999904632568
1621850405404,9.170000076293944,1.1829999685287476,-4.696000099182129,0.1180000007152557,-9.777999877929688,0.7850000262260437
1621850405414,9.239999771118164,2.2660000324249268,-4.789000034332275,0.0780000016093254,-9.791000366210936,0.8629999756813049
1621850405424,8.960000038146973,3.624000072479248,-4.834000110626221,0.0390000008046627,-9.612000465393066,0.9739999771118164
1621850405434,9.449999809265137,5.190000057220459,-4.8420000076293945,-0.0390000008046627,-9.572999954223633,0.981000006198883
1621850405444,9.9399995803833,6.89300012588501,-4.826000213623047,-0.0390000008046627,-9.527999877929688,0.9490000009536744
1621850405454,10.079999923706056,8.819000244140625,-5.269000053405762,-0.0780000016093254,-9.612000465393066,0.9739999771118164
1621850405464,10.779999732971191,10.635000228881836,-6.298999786376953,0.0,-9.819000244140623,1.0169999599456787
1621850405474,10.850000381469728,11.782999992370604,-7.163000106811523,0.0780000016093254,-9.878000259399414,1.1260000467300415
1621850405484,10.149999618530272,13.055999755859377,-7.933000087738037,0.1180000007152557,-9.93000030517578,1.1970000267028809
1621850405494,9.65999984741211,13.595000267028809,-7.767000198364258,0.1180000007152557,-9.859000205993652,1.2489999532699585
1621850405504,8.260000228881836,13.628000259399414,-7.547999858856201,0.1959999948740005,-9.944000244140623,1.27400004863739
1621850405514,7.664999961853027,13.562999725341797,-7.381999969482423,0.2349999994039535,-9.82800006866455,1.2940000295639038
1621850405524,7.070000171661377,13.498000144958496,-7.2160000801086435,0.1959999948740005,-9.803000450134276,1.378000020980835
1621850405534,6.300000190734863,13.08899974822998,-6.50600004196167,0.1180000007152557,-9.770999908447264,1.4240000247955322
1621850405544,6.650000095367432,13.097000122070312,-6.14900016784668,0.0780000016093254,-9.763999938964846,1.3849999904632568
1621850405554,6.090000152587891,12.946999549865724,-6.105000019073486,0.0780000016093254,-9.781999588012695,1.2630000114440918
1621850405564,6.090000152587891,13.717000007629396,-6.039999961853027,0.0780000016093254,-9.737000465393066,1.2309999465942385
1621850405574,5.809999942779541,14.017000198364258,-6.129000186920166,0.1180000007152557,-9.744000434875488,1.2690000534057615
1621850405584,4.900000095367432,14.711000442504885,-6.433000087738037,0.1570000052452087,-9.821000099182127,1.25600004196167
1621850405594,3.1500000953674316,14.784000396728516,-6.8470001220703125,0.1570000052452087,-9.729999542236328,1.1920000314712524
1621850405604,0.2800000011920929,14.92099952697754,-6.822999954223633,0.2349999994039535,-9.729999542236328,1.1920000314712524
1621850405614,-2.0999999046325684,14.508000373840332,-6.895999908447266,0.2750000059604644,-9.937000274658203,1.2350000143051147
1621850405624,-0.8399999737739563,14.078000068664553,-7.682000160217285,0.2750000059604644,-9.737000465393066,1.2309999465942385
1621850405634,0.4900000095367431,12.748000144958496,-8.201000213623047,0.2750000059604644,-9.607000350952148,1.1740000247955322
1621850405644,-1.190000057220459,11.677000045776367,-9.385000228881836,0.3919999897480011,-9.697999954223633,1.2380000352859497
1621850405654,-1.4700000286102295,11.161999702453612,-8.480999946594238,0.3140000104904174,-9.729999542236328,1.1920000314712524
1621850405664,-2.309999942779541,10.253999710083008,-7.361000061035157,0.2349999994039535,-9.814000129699709,1.2170000076293943
1621850405674,-3.2899999618530273,10.083499908447266,-7.604499816894531,0.1959999948740005,-9.887000083923342,1.4029999971389773
1621850405684,-4.269999980926514,9.913000106811523,-7.848000049591064,0.1570000052452087,-9.996000289916992,1.343999981880188
1621850405693,-6.510000228881836,10.45699977874756,-8.107000350952148,0.1570000052452087,-10.072999954223633,1.3309999704360962
1621850405703,-8.539999961853027,10.55799961090088,-6.668000221252441,0.1180000007152557,-9.975000381469728,1.2280000448226929
1621850405713,-10.149999618530272,11.352999687194824,-5.5329999923706055,0.0780000016093254,-9.897999763488768,1.2419999837875366
1621850405723,-10.989999771118164,11.697999954223633,-5.4720001220703125,0.0780000016093254,-9.897999763488768,1.2419999837875366
1621850405733,-10.079999923706056,12.302000045776367,-6.076000213623047,0.0780000016093254,-9.710000038146973,1.0759999752044678
1621850405743,-8.960000038146973,12.987000465393066,-5.5289998054504395,0.0390000008046627,-9.562000274658203,1.1419999599456787
1621850405753,-7.489999771118165,13.63599967956543,-5.982999801635742,0.0390000008046627,-9.562000274658203,1.1419999599456787
1621850405763,-4.690000057220459,14.402000427246094,-6.701000213623047,0.0,-9.586999893188477,1.0579999685287476
1621850405773,-2.5199999809265137,15.626999855041504,-7.196000099182129,-0.0780000016093254,-9.625,1.0509999990463257
1621850405783,-1.75,16.98900032043457,-7.665999889373779,-0.1180000007152557,-9.793999671936035,1.10099995136261
1621850405793,-1.8899999856948853,18.886999130249023,-7.545000076293945,-0.1180000007152557,-9.755000114440918,1.1080000400543213
1621850405803,-2.450000047683716,21.097000122070312,-7.581999778747559,-0.1180000007152557,-9.92300033569336,1.1579999923706057
1621850405813,-2.799999952316284,22.000999450683594,-7.066999912261963,-0.0390000008046627,-10.006999969482422,1.1829999685287476
1621850405823,-2.869999885559082,22.256500244140625,-6.701999664306641,0.1180000007152557,-9.89099979400635,1.2029999494552612
1621850405833,-2.940000057220459,22.511999130249023,-6.336999893188477,0.1180000007152557,-9.940999984741213,1.0349999666213987
1621850405843,-3.6400001049041744,22.31399917602539,-6.017000198364258,0.1959999948740005,-9.878000259399414,1.1260000467300415
1621850405853,-3.7799999713897705,21.78700065612793,-6.251999855041504,0.3529999852180481,-10.071000099182127,1.0920000076293943
1621850405863,-4.480000019073486,21.437999725341797,-7.09499979019165,0.4309999942779541,-9.779999732971191,1.02400004863739
1621850405873,-4.269999980926514,20.358999252319336,-7.427999973297118,0.5099999904632568,-9.5600004196167,0.902999997138977
1621850405883,-3.1500000953674316,19.03300094604492,-8.371999740600586,0.5490000247955322,-9.513999938964846,0.871999979019165
1621850405893,-2.7300000190734863,17.034000396728516,-8.725000381469727,0.6280000209808348,-9.468999862670898,0.8399999737739563
1621850405903,-2.869999885559082,14.815999984741213,-9.045000076293944,0.5879999995231628,-9.468999862670898,0.8399999737739563
1621850405913,-1.8899999856948853,12.444000244140623,-8.894000053405762,0.5879999995231628,-9.461999893188477,0.8009999990463256
1621850405923,-0.699999988079071,10.380000114440918,-8.47599983215332,0.5490000247955322,-9.487000465393066,0.7170000076293945
1621850405933,1.0499999523162842,8.692999839782715,-8.987000465393066,0.4709999859333038,-9.585000038146973,0.8190000057220459
1621850405943,2.309999942779541,7.578000068664551,-9.11299991607666,0.3919999897480011,-9.585000038146973,0.8190000057220459
1621850405953,3.849999904632568,7.282000064849853,-8.241000175476074,0.3529999852180481,-9.50100040435791,0.7940000295639038
1621850405963,3.5,6.607999801635742,-8.857000350952148,0.3529999852180481,-9.590999603271484,0.8579999804496765
1621850405973,2.940000057220459,6.0970001220703125,-9.586999893188477,0.3529999852180481,-9.734999656677246,0.9919999837875366
1621850405983,2.450000047683716,5.318999767303467,-8.800000190734863,0.2750000059604644,-9.88199996948242,0.9259999990463256
1621850405993,2.4149999618530273,5.034999847412109,-8.601499557495117,0.1180000007152557,-9.965999603271484,0.9509999752044676
1621850406003,2.380000114440918,4.750999927520752,-8.402999877929688,0.0390000008046627,-9.895999908447264,1.003000020980835
1621850406013,2.6600000858306885,5.638999938964844,-9.8100004196167,0.0390000008046627,-9.83899974822998,1.1330000162124634
1621850406023,2.7300000190734863,7.14300012588501,-10.682000160217283,0.0,-9.852999687194824,1.2100000381469729
1621850406033,2.5199999809265137,8.77400016784668,-10.251999855041504,0.1959999948740005,-9.852999687194824,1.2100000381469729
1621850406043,1.3300000429153442,10.383999824523926,-8.902000427246094,0.3140000104904174,-9.975000381469728,1.2280000448226929
1621850406053,-0.9800000190734864,11.29599952697754,-8.029999732971191,0.3529999852180481,-9.883999824523924,1.1649999618530271
1621850406063,-2.799999952316284,10.696000099182127,-6.644000053405762,0.2349999994039535,-9.824999809265137,1.055999994277954
1621850406073,-5.179999828338623,9.961999893188477,-5.706999778747559,0.1959999948740005,-9.696000099182127,0.9990000128746032
1621850406083,-7.280000209808349,9.041999816894531,-4.519000053405762,0.1959999948740005,-9.70699977874756,0.8379999995231628
1621850406093,-8.539999961853027,8.66100025177002,-4.372000217437744,0.1959999948740005,-9.630000114440918,0.8510000109672546
1621850406103,-8.329999923706055,8.961000442504883,-5.670000076293945,0.2750000059604644,-9.538999557495115,0.7879999876022338
1621850406113,-7.559999942779541,9.354000091552734,-7.0929999351501465,0.3140000104904174,-9.531999588012695,0.7490000128746032
1621850406123,-5.739999771118164,9.70300006866455,-7.458000183105469,0.3529999852180481,-9.609999656677246,0.7350000143051147
1621850406133,-4.059999942779541,9.593000411987305,-8.045999526977539,0.3140000104904174,-9.654999732971191,0.7670000195503234
1621850406143,-2.5899999141693115,9.105999946594238,-7.705999851226807,0.2349999994039535,-9.70699977874756,0.8379999995231628
1621850406153,-1.190000057220459,9.184000015258787,-7.336999893188477,0.1180000007152557,-9.71399974822998,0.8759999871253967
1621850406163,-1.9600000381469729,9.338000297546388,-6.598999977111816,0.0780000016093254,-9.760000228881836,0.9079999923706054
1621850406173,-3.1500000953674316,10.303000450134276,-6.428999900817871,0.0,-9.76599979400635,0.9470000267028807
1621850406183,-4.340000152587891,10.866000175476074,-6.400000095367432,-0.1570000052452087,-9.857000350952148,1.0099999904632568
1621850406193,-4.269999980926514,11.655000686645508,-6.439000129699707,-0.2750000059604644,-9.824999809265137,1.055999994277954
1621850406203,-4.199999809265137,12.444000244140623,-6.478000164031982,-0.3529999852180481,-9.994000434875488,1.1059999465942385
1621850406213,-3.009999990463257,15.562000274658203,-6.425000190734863,-0.5099999904632568,-10.0,1.1440000534057615
1621850406223,-1.1200000047683716,20.124000549316406,-6.900000095367432,-0.6280000209808348,-10.013999938964844,1.2220000028610227
1621850406233,-0.209999993443489,23.809999465942383,-7.245999813079834,-0.7450000047683715,-10.053000450134276,1.2150000333786013
1621850406243,-1.0499999523162842,28.687999725341797,-5.888000011444092,-0.7450000047683715,-9.90999984741211,1.0809999704360962
1621850406253,-2.5899999141693115,33.939998626708984,-3.825000047683716,-0.6669999957084655,-9.824999809265137,1.055999994277954
1621850406263,-5.53000020980835,39.02899932861328,-4.064000129699707,-0.4709999859333038,-9.772999763488768,0.9850000143051147
1621850406273,-9.170000076293944,42.641998291015625,-3.9960000514984126,-0.3140000104904174,-9.585000038146973,0.8190000057220459
1621850406283,-10.289999961853027,46.012001037597656,-2.549000024795532,-0.1180000007152557,-9.461999893188477,0.8009999990463256
1621850406293,-10.989999771118164,47.95000076293945,-1.8519999980926511,0.1180000007152557,-9.20300006866455,0.6880000233650208
1621850406303,-9.239999771118164,48.457000732421875,-3.11299991607666,0.2349999994039535,-9.079999923706056,0.6690000295639038
1621850406313,-6.579999923706055,48.672000885009766,-3.927999973297119,0.3529999852180481,-8.82800006866455,0.5939999818801879
1621850406323,-2.380000114440918,47.847999572753906,-3.2909998893737793,0.4309999942779541,-8.911999702453613,0.6190000176429749
1621850406333,1.5399999618530271,46.652000427246094,-3.359999895095825,0.7450000047683715,-9.104999542236328,0.5849999785423278
1621850406343,7.139999866485596,44.30799865722656,-3.7730000019073486,0.9020000100135804,-9.428000450134276,0.6079999804496765
1621850406353,10.989999771118164,40.7239990234375,-3.197000026702881,0.981000006198883,-9.711999893188477,0.6380000114440918
1621850406363,11.970000267028809,35.70399856567383,-1.7359999418258667,0.981000006198883,-10.003000259399414,0.7059999704360961
1621850406373,11.130000114440918,30.45299911499023,-0.1749999970197677,0.7850000262260437,-10.11400032043457,0.8849999904632568
1621850406383,9.239999771118164,25.298999786376953,-0.3729999959468841,0.6669999957084655,-10.159000396728516,0.9169999957084656
1621850406393,5.599999904632568,21.426000595092773,-0.984000027179718,0.5099999904632568,-10.128000259399414,0.9629999995231628
1621850406403,1.8200000524520872,18.854999542236328,-1.7220000028610227,0.4309999942779541,-10.102999687194824,1.0470000505447388
1621850406413,-2.0999999046325684,17.302000045776367,-2.990999937057495,0.3140000104904174,-9.979999542236328,1.0279999971389773
1621850406423,-3.1499998569488525,16.454500198364258,-3.424499988555908,0.2349999994039535,-9.857000350952148,1.0099999904632568
1621850406433,-4.199999809265137,15.607000350952148,-3.8580000400543217,0.2750000059604644,-9.734999656677246,0.9919999837875366
1621850406443,-4.760000228881836,14.350000381469728,-4.790999889373779,0.2349999994039535,-9.675000190734863,0.8830000162124633
1621850406453,-4.130000114440918,12.630999565124512,-5.520999908447266,0.1959999948740005,-9.590999603271484,0.8579999804496765
1621850406463,-3.359999895095825,10.489999771118164,-5.4720001220703125,0.0390000008046627,-9.699999809265137,0.7990000247955322
1621850406473,-2.6600000858306885,9.199999809265137,-5.414999961853027,-0.0780000016093254,-9.815999984741213,0.7789999842643737
1621850406483,-2.0999999046325684,8.373000144958496,-5.560999870300293,-0.2349999994039535,-9.899999618530272,0.8040000200271606
1621850406493,-2.6600000858306885,9.142999649047852,-5.495999813079834,-0.3919999897480011,-9.95300006866455,0.8740000128746032
1621850406503,-3.5,10.829999923706056,-6.192999839782715,-0.5490000247955322,-9.88199996948242,0.9259999990463256
1621850406513,-3.9200000762939458,13.173999786376951,-5.78000020980835,-0.6669999957084655,-9.928000450134276,0.9580000042915344
1621850406523,-4.550000190734863,16.426000595092773,-5.2779998779296875,-0.6669999957084655,-10.005000114440918,0.944000005722046
1621850406533,-5.110000133514404,19.95800018310547,-5.1529998779296875,-0.7059999704360961,-10.050000190734863,0.9760000109672546
1621850406543,-6.300000190734863,23.214000701904297,-5.076000213623047,-0.6669999957084655,-10.057000160217283,1.0149999856948853
1621850406553,-7.349999904632568,26.299999237060547,-4.033999919891357,-0.6280000209808348,-10.031999588012695,1.0989999771118164
1621850406563,-8.75,28.684999465942383,-3.0450000762939453,-0.5879999995231628,-10.071000099182127,1.0920000076293943
1621850406573,-9.59000015258789,30.62299919128418,-2.3480000495910645,-0.5099999904632568,-10.116000175476074,1.1239999532699585
1621850406583,-9.869999885559082,32.172000885009766,-1.861999988555908,-0.5490000247955322,-10.154999732971191,1.1169999837875366
1621850406593,-9.170000076293944,33.470001220703125,-1.562000036239624,-0.6669999957084655,-10.270999908447266,1.0970000028610227
1621850406603,-8.680000305175781,34.9900016784668,-1.7200000286102295,-0.6669999957084655,-10.277999877929688,1.1349999904632568
1621850406613,-9.9399995803833,37.09099960327149,-2.3450000286102295,-0.6669999957084655,-10.218999862670898,1.0260000228881836
1621850406623,-12.529999732971191,38.805999755859375,-3.6059999465942383,-0.6280000209808348,-10.281999588012695,0.9350000023841856
1621850406633,-16.030000686645508,40.224998474121094,-3.9960000514984126,-0.6669999957084655,-10.352999687194824,0.8830000162124633
1621850406643,-18.899999618530273,41.547000885009766,-2.625,-0.7059999704360961,-9.8100004196167,0.740000009536743
1621850406653,-24.010000228881836,43.00699996948242,-2.438999891281128,-0.7059999704360961,-10.003000259399414,0.7059999704360961
1621850406663,-23.59000015258789,43.9109992980957,-1.924000024795532,-0.6280000209808348,-9.880000114440918,0.6880000233650208
1621850406673,-23.38000106811523,44.555999755859375,-1.9524999856948853,-0.6280000209808348,-9.75100040435791,0.6309999823570251
1621850406683,-23.170000076293945,45.20100021362305,-1.9809999465942385,-0.5879999995231628,-9.58199977874756,0.5809999704360961
1621850406693,-22.61000061035156,44.38999938964844,-2.621999979019165,-0.5099999904632568,-9.460000038146973,0.5630000233650208
1621850406703,-22.469999313354492,44.698001861572266,-2.3540000915527344,-0.4709999859333038,-9.460000038146973,0.5630000233650208
1621850406713,-20.93000030517578,44.77899932861328,-2.4110000133514404,-0.5099999904632568,-9.425999641418455,0.3689999878406524
1621850406723,-19.600000381469727,44.880001068115234,-3.388000011444092,-0.3529999852180481,-9.510000228881836,0.3939999938011169
