timestamp,gyro_x,gyro_y,gyro_z,acc_x,acc_y,acc_z
1621935692988,0.0,0.0,0.0,0.0,0.0,0.0
1621935692997,0.699999988079071,4.6620001792907715,-7.493999958038329,0.1959999948740005,-9.694000244140623,-1.2710000276565552
1621935693007,0.6299999952316284,4.788000106811523,-7.401000022888184,0.1570000052452087,-9.701000213623049,-1.2330000400543213
1621935693017,0.209999993443489,4.808000087738037,-7.11299991607666,0.1570000052452087,-9.746000289916992,-1.2009999752044678
1621935693027,-0.2800000011920929,4.876999855041504,-7.10099983215332,0.1570000052452087,-9.746000289916992,-1.2009999752044678
1621935693037,-0.3849999904632568,4.974499702453613,-7.048500061035156,0.1570000052452087,-9.753000259399414,-1.1619999408721924
1621935693047,-0.4900000095367431,5.072000026702881,-6.995999813079834,0.1180000007152557,-9.708000183105469,-1.194000005722046
1621935693057,-0.4199999868869781,5.420000076293945,-7.361000061035157,0.1570000052452087,-9.708000183105469,-1.194000005722046
1621935693067,-0.6299999952316284,4.88100004196167,-7.526999950408936,0.1570000052452087,-9.668999671936035,-1.187000036239624
1621935693077,-0.6299999952316284,4.961999893188477,-7.584000110626221,0.1959999948740005,-9.668999671936035,-1.187000036239624
1621935693087,-0.8399999737739563,4.96999979019165,-7.2270002365112305,0.2349999994039535,-9.62399959564209,-1.218999981880188
1621935693097,-0.4900000095367431,4.638000011444092,-7.355999946594238,0.1959999948740005,-9.62399959564209,-1.218999981880188
1621935693107,-0.2800000011920929,4.86899995803833,-7.458000183105469,0.2349999994039535,-9.62399959564209,-1.218999981880188
1621935693117,0.5600000023841857,4.304999828338623,-7.486000061035157,0.1959999948740005,-9.62399959564209,-1.218999981880188
1621935693127,0.7699999809265136,4.078000068664551,-7.809999942779541,0.2349999994039535,-9.62399959564209,-1.218999981880188
1621935693137,0.9100000262260436,3.8710000514984126,-7.847000122070312,0.1959999948740005,-9.62399959564209,-1.218999981880188
1621935693147,0.8399999737739563,3.79800009727478,-7.433000087738037,0.1570000052452087,-9.630000114440918,-1.1799999475479126
1621935693157,0.8399999737739563,3.7420001029968266,-7.513999938964843,0.1570000052452087,-9.592000007629396,-1.1729999780654907
1621935693167,0.9100000262260436,3.8350000381469727,-7.639999866485595,0.1570000052452087,-9.630000114440918,-1.1799999475479126
1621935693177,0.6299999952316284,3.79800009727478,-7.433000087738037,0.1570000052452087,-9.675999641418455,-1.1480000019073486
1621935693187,0.7699999809265136,4.14300012588501,-7.373000144958496,0.0780000016093254,-9.637000083923342,-1.1419999599456787
1621935693197,1.190000057220459,4.5,-7.381000041961671,0.0390000008046627,-9.71399974822998,-1.1549999713897705
1621935693207,0.9800000190734864,5.415999889373779,-8.142999649047852,0.0,-9.675999641418455,-1.1480000019073486
1621935693217,1.2599999904632568,6.0289998054504395,-8.390999794006348,-0.0390000008046627,-9.708000183105469,-1.194000005722046
1621935693227,1.4700000286102295,7.066999912261963,-8.633999824523926,-0.0390000008046627,-9.71399974822998,-1.1549999713897705
1621935693237,1.6100000143051147,8.336000442504883,-8.979000091552734,-0.0780000016093254,-9.71399974822998,-1.1549999713897705
1621935693247,1.6799999475479126,9.84000015258789,-8.642999649047852,-0.1180000007152557,-9.708000183105469,-1.194000005722046
1621935693257,1.6099998950958252,10.798999786376951,-8.437999725341797,-0.1570000052452087,-9.71399974822998,-1.1549999713897705
1621935693267,1.5399999618530271,11.758000373840332,-8.232999801635742,-0.3529999852180481,-9.753000259399414,-1.1619999408721924
1621935693277,0.9100000262260436,14.730999946594238,-7.354000091552734,-0.7450000047683715,-9.87600040435791,-1.1440000534057615
1621935693287,-0.4900000095367431,19.913000106811523,-6.511000156402588,-1.2549999952316284,-10.029999732971191,-1.1710000038146973
1621935693297,-2.940000057220459,28.631999969482425,-4.760000228881836,-1.72599995136261,-10.229999542236328,-1.1670000553131104
1621935693307,-5.739999771118164,41.599998474121094,-2.118000030517578,-2.197000026702881,-10.366999626159668,-1.0709999799728394
1621935693317,-9.520000457763674,57.435001373291016,0.3889999985694885,-2.628000020980835,-10.45699977874756,-1.006999969482422
1621935693327,-12.739999771118164,75.28500366210938,2.755000114440918,-2.9809999465942383,-10.446000099182127,-0.8460000157356262
1621935693337,-15.609999656677246,94.13300323486328,5.510000228881836,-3.177000045776367,-10.381999969482422,-0.7549999952316284
1621935693347,-18.6200008392334,113.93800354003906,9.28600025177002,-3.2950000762939453,-10.326000213623049,-0.6259999871253967
1621935693357,-20.579999923706055,133.93800354003906,14.376999855041504,-3.3340001106262207,-10.25100040435791,-0.3740000128746032
1621935693367,-21.420000076293945,153.8040008544922,17.808000564575195,-3.3340001106262207,-10.154999732971191,-0.2370000034570694
1621935693377,-21.489999771118164,172.6439971923828,20.20599937438965,-3.138000011444092,-10.006999969482422,-0.1710000038146972
1621935693387,-21.0,190.13699340820312,21.371999740600582,-2.7850000858306885,-9.911999702453612,-0.0350000001490116
1621935693397,-19.739999771118164,204.57699584960935,22.92300033569336,-2.313999891281128,-9.73900032043457,0.1150000020861625
1621935693407,-17.780000686645508,215.5749969482422,23.440000534057617,-1.72599995136261,-9.630000114440918,0.1739999949932098
1621935693417,-15.470000267028809,221.8520050048828,24.121000289916992,-1.1380000114440918,-9.538999557495115,0.1099999994039535
1621935693427,-12.949999809265137,225.48500061035156,24.47699928283691,0.0390000008046627,-9.44200038909912,0.0080000003799796
1621935693437,-10.43000030517578,226.45399475097656,23.01300048828125,0.4709999859333038,-9.388999938964846,-0.061999998986721
1621935693447,-7.9099998474121085,224.9900054931641,19.62700080871582,0.9020000100135804,-9.336999893188477,-0.1330000013113021
1621935693457,-6.230000019073486,221.7050018310547,15.281000137329102,1.2940000295639038,-9.354999542236328,-0.2549999952316284
1621935693467,-4.829999923706055,216.17300415039065,11.178000450134276,1.687000036239624,-9.270999908447264,-0.2800000011920929
1621935693477,-3.815000057220459,212.29849243164065,9.570500373840332,2.0789999961853027,-9.135000228881836,-0.3759999871253967
1621935693487,-2.799999952316284,208.4239959716797,7.9629998207092285,2.431999921798706,-9.10099983215332,-0.5690000057220459
1621935693497,0.0,198.03399658203125,5.206999778747559,2.746000051498413,-9.093999862670898,-0.6079999804496765
1621935693507,2.6600000858306885,185.718994140625,4.1020002365112305,2.9030001163482666,-9.175999641418455,-0.8209999799728394
1621935693517,4.760000228881836,172.5279998779297,4.335000038146973,2.941999912261963,-9.277999877929688,-0.9190000295639038
1621935693527,6.71999979019165,159.4709930419922,3.809999942779541,2.941999912261963,-9.3100004196167,-0.9639999866485596
1621935693537,8.1899995803833,146.46200561523435,1.7999999523162842,2.941999912261963,-9.32800006866455,-1.087000012397766
1621935693547,9.029999732971191,134.5970001220703,-0.6470000147819519,2.9809999465942383,-9.276000022888184,-1.1579999923706057
1621935693557,10.149999618530272,122.86599731445312,-2.6449999809265137,2.941999912261963,-9.300999641418455,-1.2419999837875366
1621935693567,11.270000457763672,110.91200256347656,-4.184000015258789,2.941999912261963,-9.293999671936035,-1.2799999713897705
1621935693577,12.460000038146973,99.23300170898438,-4.466000080108643,2.8239998817443848,-9.326000213623049,-1.3259999752044678
1621935693587,14.140000343322754,87.95999908447266,-3.8239998817443848,2.6670000553131104,-9.395999908447264,-1.378000020980835
1621935693597,14.489999771118164,78.54100036621094,-3.2100000381469727,2.510999917984009,-9.51900005340576,-1.3600000143051147
1621935693607,14.630000114440918,70.15899658203125,-2.8399999141693115,2.2750000953674316,-9.602999687194824,-1.3350000381469729
1621935693617,13.579999923706056,63.60200119018555,-3.1429998874664307,2.0789999961853027,-9.68000030517578,-1.3480000495910645
1621935693627,12.25,58.39099884033203,-3.421999931335449,1.9220000505447388,-9.803000450134276,-1.3300000429153442
1621935693637,10.779999732971191,53.88199996948242,-3.6489999294281006,1.8040000200271609,-9.842000007629396,-1.337000012397766
1621935693647,9.029999732971191,49.86399841308594,-3.433000087738037,1.6480000019073486,-9.925999641418455,-1.312000036239624
1621935693657,7.0,46.209999084472656,-2.86899995803833,1.5299999713897705,-9.996000289916992,-1.3639999628067017
1621935693667,4.96999979019165,43.29899978637695,-1.6770000457763672,1.4119999408721924,-10.003000259399414,-1.3259999752044678
1621935693677,3.2200000286102295,40.6879997253418,-0.5730000138282775,1.3339999914169312,-10.010000228881836,-1.2869999408721924
1621935693687,2.2750000953674316,39.749000549316406,-0.4900000095367431,1.2549999952316284,-9.977999687194824,-1.2419999837875366
1621935693697,1.3300000429153442,38.810001373291016,-0.4070000052452087,1.215999960899353,-9.93299961090088,-1.2730000019073486
1621935693707,-0.2800000011920929,37.290000915527344,-0.2479999959468841,1.0980000495910645,-9.89400005340576,-1.2669999599456787
1621935693717,-1.3300000429153442,35.643001556396484,-0.1829999983310699,1.0590000152587893,-9.847999572753906,-1.2979999780654907
1621935693727,-2.5899999141693115,34.020999908447266,-0.2560000121593475,1.0199999809265137,-9.847999572753906,-1.2979999780654907
1621935693737,-3.430000066757202,32.27399826049805,-0.4219999909400939,0.9409999847412108,-9.8100004196167,-1.2920000553131104
1621935693747,-4.409999847412109,30.906999588012695,-0.734000027179718,0.8240000009536743,-9.803000450134276,-1.3300000429153442
1621935693757,-5.53000020980835,29.89699935913086,-1.0540000200271606,0.7850000262260437,-9.803000450134276,-1.3300000429153442
1621935693767,-6.440000057220459,29.844999313354492,-1.5609999895095823,0.7450000047683715,-9.821000099182127,-1.4529999494552612
1621935693777,-7.489999771118165,29.430999755859375,-1.633999943733215,0.7450000047683715,-9.82800006866455,-1.4140000343322754
1621935693787,-8.1899995803833,29.00900077819824,-2.063999891281128,0.6669999957084655,-9.723999977111816,-1.5549999475479126
1621935693797,-8.050000190734863,29.049999237060547,-2.697000026702881,0.7059999704360961,-9.699000358581545,-1.4709999561309814
1621935693807,-7.420000076293945,28.826000213623047,-3.447000026702881,0.7059999704360961,-9.628000259399414,-1.4190000295639038
1621935693817,-6.230000019073486,28.233999252319336,-2.9110000133514404,0.7850000262260437,-9.512000083923342,-1.3980000019073486
1621935693827,-5.25,27.711000442504883,-2.364000082015991,0.7850000262260437,-9.4350004196167,-1.3849999904632568
1621935693837,-4.340000152587891,26.88800048828125,-2.936000108718872,0.7850000262260437,-9.428000450134276,-1.4229999780654907
1621935693847,-3.569999933242798,25.715999603271484,-3.1419999599456787,0.7450000047683715,-9.428000450134276,-1.4229999780654907
1621935693857,-2.6600000858306885,24.76300048828125,-3.38100004196167,0.7059999704360961,-9.45300006866455,-1.5080000162124634
1621935693867,-1.9600000381469729,24.47100067138672,-2.934999942779541,0.7059999704360961,-9.484999656677246,-1.5529999732971191
1621935693877,-1.6100000143051147,23.98500061035156,-2.5940001010894775,0.7059999704360961,-9.491999626159668,-1.5140000581741333
1621935693887,-1.0499999523162842,24.249000549316406,-2.4769999980926514,0.6280000209808348,-9.529999732971191,-1.5210000276565552
1621935693897,-0.8049999475479126,24.56700134277344,-2.6694998741149902,0.5879999995231628,-9.536999702453612,-1.4830000400543213
1621935693907,-0.5600000023841857,24.885000228881836,-2.861999988555908,0.6280000209808348,-9.505000114440918,-1.437000036239624
1621935693917,0.209999993443489,24.999000549316406,-2.700000047683716,0.5879999995231628,-9.473999977111816,-1.3919999599456787
1621935693927,1.2599999904632568,25.107999801635746,-2.111999988555908,0.7450000047683715,-9.505000114440918,-1.437000036239624
1621935693937,2.0299999713897705,25.06800079345703,-1.4800000190734863,0.7059999704360961,-9.479999542236328,-1.3530000448226929
1621935693947,3.2899999618530273,24.98699951171875,-1.4229999780654907,0.8240000009536743,-9.428000450134276,-1.4229999780654907
1621935693957,4.409999847412109,24.191999435424805,-1.350000023841858,0.8240000009536743,-9.473999977111816,-1.3919999599456787
1621935693967,5.320000171661377,23.23500061035156,-1.162999987602234,0.8240000009536743,-9.479999542236328,-1.3530000448226929
1621935693977,6.579999923706055,22.322999954223633,-0.8259999752044677,0.8240000009536743,-9.449000358581545,-1.3079999685287476
1621935693987,7.489999771118165,20.777999877929688,-0.5299999713897705,0.8240000009536743,-9.449000358581545,-1.3079999685287476
1621935693997,7.980000019073486,19.541000366210938,0.0340000018477439,0.8240000009536743,-9.487000465393066,-1.3140000104904177
1621935694007,8.680000305175781,19.05900001525879,1.156999945640564,0.7850000262260437,-9.449000358581545,-1.3079999685287476
1621935694017,9.59000015258789,18.35300064086914,1.5299999713897705,0.7850000262260437,-9.487000465393066,-1.3140000104904177
1621935694027,10.010000228881836,17.50200080871582,1.5219999551773071,0.7850000262260437,-9.487000465393066,-1.3140000104904177
1621935694037,10.710000038146973,16.253000259399414,2.1549999713897705,0.8629999756813049,-9.44200038909912,-1.3459999561309814
1621935694047,11.899999618530272,14.70400047302246,2.877000093460083,0.8629999756813049,-9.449000358581545,-1.3079999685287476
1621935694057,13.090000152587892,12.538000106811523,3.063999891281128,0.9020000100135804,-9.378000259399414,-1.2549999952316284
1621935694067,14.770000457763672,10.30799961090088,2.812999963760376,0.9409999847412108,-9.333000183105469,-1.2869999408721924
1621935694077,16.940000534057617,7.822000026702882,2.8010001182556152,0.9409999847412108,-9.300999641418455,-1.2419999837875366
1621935694087,19.459999084472656,5.36899995803833,3.0079998970031734,0.9409999847412108,-9.237000465393066,-1.1510000228881836
1621935694097,21.979999542236328,3.4790000915527344,2.0350000858306885,0.8629999756813049,-9.15999984741211,-1.1369999647140503
1621935694107,23.204999923706055,2.609499931335449,1.5264999866485596,0.7450000047683715,-9.19200038909912,-1.1829999685287476
1621935694117,24.43000030517578,1.7400000095367432,1.0180000066757202,0.6669999957084655,-9.237000465393066,-1.1510000228881836
1621935694127,26.670000076293945,0.5429999828338623,-0.2599999904632568,0.5879999995231628,-9.321000099182127,-1.1260000467300415
1621935694137,28.420000076293945,-0.6899999976158142,-1.3300000429153442,0.4709999859333038,-9.366999626159668,-1.093999981880188
1621935694147,29.190000534057617,-1.0470000505447388,-2.5299999713897705,0.3529999852180481,-9.496000289916992,-1.0369999408721924
1621935694157,29.75,-0.7379999756813049,-3.4709999561309814,0.2750000059604644,-9.612000465393066,-1.0579999685287476
1621935694167,30.100000381469727,-0.2930000126361846,-4.38700008392334,0.1959999948740005,-9.651000022888184,-1.0640000104904177
1621935694177,29.959999084472656,0.3840000033378601,-5.40500020980835,0.1959999948740005,-9.696000099182127,-1.0329999923706057
1621935694187,29.81999969482422,0.6890000104904174,-5.920000076293945,0.1959999948740005,-9.678000450134276,-0.9100000262260436
1621935694197,29.61000061035156,1.0820000171661377,-6.135000228881836,0.1959999948740005,-9.6850004196167,-0.8709999918937683
1621935694207,30.100000381469727,1.4220000505447388,-6.85699987411499,0.0780000016093254,-9.607999801635742,-0.8579999804496765
1621935694217,30.239999771118164,2.0829999446868896,-7.380000114440918,0.1180000007152557,-9.65999984741211,-0.787000000476837
1621935694227,29.959999084472656,2.7160000801086426,-7.3400001525878915,0.1570000052452087,-9.744000434875488,-0.762000024318695
1621935694237,29.260000228881836,3.197999954223633,-7.255000114440918,0.1570000052452087,-9.852999687194824,-0.8209999799728394
1621935694247,24.219999313354492,3.243000030517578,-8.312999725341797,0.2349999994039535,-9.904999732971191,-0.7509999871253967
1621935694257,18.549999237060547,2.674999952316284,-9.12399959564209,0.3140000104904174,-10.13700008392334,-0.7919999957084655
1621935694267,11.899999618530272,2.075000047683716,-10.154000282287598,0.3919999897480011,-10.477999687194824,-0.8920000195503234
1621935694277,5.25,1.2920000553131104,-11.357999801635742,0.4709999859333038,-10.52299976348877,-0.8600000143051147
1621935694287,-0.4900000095367431,0.2049999982118606,-12.046999931335447,0.4709999859333038,-10.460000038146973,-0.7689999938011169
1621935694297,-4.130000114440918,-1.0440000295639038,-11.414999961853027,0.5099999904632568,-10.203000068664553,-0.6439999938011169
1621935694307,-4.96999979019165,-2.5439999103546143,-10.968000411987305,0.5099999904632568,-10.029999732971191,-0.4939999878406524
1621935694317,-4.585000038146973,-3.606500148773194,-9.982500076293944,0.5490000247955322,-9.836999893188477,-0.4600000083446502
1621935694327,-4.199999809265137,-4.669000148773193,-8.996999740600586,0.5879999995231628,-9.720999717712402,-0.4390000104904174
1621935694337,-2.450000047683716,-7.077000141143799,-7.432000160217285,0.6669999957084655,-9.592000007629396,-0.4959999918937683
1621935694347,0.7699999809265136,-9.3149995803833,-5.623000144958496,0.6280000209808348,-9.53499984741211,-0.367000013589859
1621935694357,4.059999942779541,-11.609999656677246,-3.8949999809265137,0.5490000247955322,-9.503000259399414,-0.3210000097751617
1621935694367,6.71999979019165,-13.272000312805176,-2.127000093460083,0.4309999942779541,-9.517000198364256,-0.2440000027418136
1621935694377,8.539999961853027,-14.253000259399414,-0.5939999818801879,0.3140000104904174,-9.54800033569336,-0.2899999916553497
1621935694387,9.59000015258789,-15.020000457763672,0.123999997973442,0.1959999948740005,-9.63199996948242,-0.2649999856948852
1621935694397,10.220000267028809,-14.779999732971191,0.3790000081062316,0.0780000016093254,-9.717000007629396,-0.2399999946355819
1621935694407,10.640000343322754,-14.204999923706056,0.3389999866485595,-0.0390000008046627,-9.793999671936035,-0.2529999911785125
1621935694417,10.56999969482422,-13.925000190734863,-0.0390000008046627,-0.0780000016093254,-9.800999641418455,-0.2150000035762786
1621935694427,10.079999923706056,-12.875,-0.3510000109672546,-0.1570000052452087,-9.807000160217283,-0.1759999990463256
1621935694437,9.380000114440918,-12.210000038146973,-0.0920000001788139,-0.1959999948740005,-9.83899974822998,-0.221000000834465
1621935694447,8.75,-11.5,0.3179999887943267,-0.2349999994039535,-9.878000259399414,-0.2280000001192092
1621935694457,8.329999923706055,-10.315999984741213,0.4560000002384185,-0.2750000059604644,-9.76900005340576,-0.1689999997615814
1621935694467,7.630000114440918,-8.937000274658203,0.6990000009536743,-0.3140000104904174,-9.76900005340576,-0.1689999997615814
1621935694477,6.650000095367432,-7.440999984741211,0.6779999732971191,-0.3140000104904174,-9.821000099182127,-0.0989999994635581
1621935694487,5.53000020980835,-6.6539998054504395,0.2479999959468841,-0.2750000059604644,-9.814000129699709,-0.1369999945163726
1621935694497,5.110000133514404,-6.384499549865723,-0.2730000019073486,-0.1959999948740005,-9.89099979400635,-0.1509999930858612
1621935694507,4.690000057220459,-6.114999771118164,-0.7940000295639038,-0.2349999994039535,-9.93000030517578,-0.1580000072717666
1621935694516,3.2200000286102295,-5.895999908447266,-2.0350000858306885,-0.2349999994039535,-9.968999862670898,-0.164000004529953
1621935694526,2.1700000762939453,-5.6570000648498535,-2.98799991607666,-0.2349999994039535,-9.937000274658203,-0.1190000027418136
1621935694536,1.2599999904632568,-5.544000148773193,-4.033999919891357,-0.3140000104904174,-9.93000030517578,-0.1580000072717666
1621935694546,1.0499999523162842,-4.867000102996826,-5.052000045776367,-0.3529999852180481,-9.897999763488768,-0.1120000034570694
1621935694556,0.699999988079071,-4.056000232696533,-5.619999885559082,-0.3919999897480011,-9.781999588012695,-0.0920000001788139
1621935694566,-0.209999993443489,-3.0989999771118164,-5.806000232696533,-0.3529999852180481,-9.776000022888184,-0.1299999952316284
1621935694576,-0.4900000095367431,-1.6030000448226929,-5.827000141143799,-0.4709999859333038,-9.781999588012695,-0.0920000001788139
1621935694586,-0.1400000005960464,-0.324999988079071,-5.815000057220459,-0.5490000247955322,-9.744000434875488,-0.0850000008940696
1621935694596,0.7699999809265136,1.0900000333786013,-5.7789998054504395,-0.5879999995231628,-9.697999954223633,-0.1169999986886978
1621935694606,1.1200000047683716,2.74399995803833,-5.486999988555908,-0.6280000209808348,-9.729999542236328,-0.1620000004768371
1621935694616,1.4700000286102295,4.3420000076293945,-5.276000022888184,-0.6280000209808348,-9.69200038909912,-0.1550000011920929
1621935694626,1.9600000381469729,6.090000152587891,-6.318999767303467,-0.6669999957084655,-9.729999542236328,-0.1620000004768371
1621935694636,2.5899999141693115,8.270999908447266,-7.0,-0.7059999704360961,-9.776000022888184,-0.1299999952316284
1621935694646,2.799999952316284,10.437000274658203,-7.186999797821045,-0.6669999957084655,-9.97599983215332,-0.1260000020265579
1621935694656,2.869999885559082,11.74049949645996,-7.5254998207092285,-0.6669999957084655,-10.053000450134276,-0.1389999985694885
1621935694666,2.940000057220459,13.043999671936035,-7.863999843597413,-0.7059999704360961,-10.090999603271484,-0.1459999978542327
1621935694676,3.359999895095825,15.375,-8.590999603271484,-0.7450000047683715,-10.130000114440918,-0.152999997138977
1621935694686,2.940000057220459,18.31100082397461,-8.713000297546387,-0.8240000009536743,-10.097999572753906,-0.1080000028014183
1621935694696,2.7300000190734863,22.155000686645508,-8.746000289916992,-0.9020000100135804,-10.065999984741213,-0.061999998986721
1621935694706,2.380000114440918,26.58300018310547,-9.67099952697754,-0.9020000100135804,-9.951000213623049,-0.0419999994337558
1621935694716,1.5399999618530271,30.979000091552734,-9.607000350952148,-0.9020000100135804,-9.95699977874756,-0.003000000026077
1621935694726,0.8399999737739563,35.58100128173828,-9.505999565124512,-0.9020000100135804,-10.003000259399414,0.0289999991655349
1621935694736,0.1400000005960464,40.970001220703125,-9.835000038146973,-0.9020000100135804,-9.970999717712402,0.0740000009536743
1621935694746,-0.209999993443489,45.68600082397461,-10.779999732971191,-0.9020000100135804,-9.89400005340576,0.0879999995231628
1621935694756,-0.7699999809265136,50.88800048828125,-12.06700038909912,-0.8629999756813049,-9.862000465393066,0.1330000013113021
1621935694766,-1.2599999904632568,55.551998138427734,-12.310999870300291,-0.7850000262260437,-9.862000465393066,0.1330000013113021
1621935694776,-1.8200000524520872,59.97999954223633,-12.027000427246094,-0.7450000047683715,-9.822999954223633,0.1400000005960464
1621935694786,-2.450000047683716,64.69999694824219,-12.1899995803833,-0.7450000047683715,-9.791000366210936,0.1850000023841857
1621935694796,-3.359999895095825,70.08499908447266,-12.093999862670898,-0.7850000262260437,-9.843999862670898,0.2560000121593475
1621935694806,-4.199999809265137,76.2239990234375,-12.645999908447266,-0.8629999756813049,-9.92099952697754,0.2419999986886978
1621935694816,-4.724999904632568,79.18000030517578,-13.08449935913086,-0.9020000100135804,-9.965999603271484,0.2739999890327453
1621935694826,-5.25,82.13600158691406,-13.52299976348877,-0.8240000009536743,-10.005000114440918,0.2669999897480011
1621935694836,-6.650000095367432,87.30999755859375,-14.244999885559082,-0.7850000262260437,-9.998000144958496,0.2290000021457672
1621935694846,-7.980000019073486,91.63700103759764,-14.192999839782717,-0.6280000209808348,-9.998000144958496,0.2290000021457672
1621935694856,-8.819999694824219,95.29399871826172,-13.975000381469728,-0.5490000247955322,-9.95300006866455,0.1969999969005584
1621935694866,-9.239999771118164,98.322998046875,-14.222000122070312,-0.3529999852180481,-9.92099952697754,0.2419999986886978
1621935694876,-9.59000015258789,100.63899993896484,-14.45400047302246,-0.2750000059604644,-9.80500030517578,0.2630000114440918
1621935694886,-9.59000015258789,102.35800170898436,-14.93299961090088,-0.1180000007152557,-9.682000160217283,0.2440000027418136
1621935694896,-8.960000038146973,103.49299621582033,-15.727999687194824,0.0780000016093254,-9.54599952697754,0.1490000039339065
1621935694906,-7.8400001525878915,104.1989974975586,-17.30900001525879,0.1959999948740005,-9.468999862670898,0.163000002503395
1621935694916,-5.949999809265137,103.90699768066406,-18.070999145507812,0.4309999942779541,-9.392000198364256,0.1759999990463256
1621935694926,-4.199999809265137,101.79799652099608,-17.80299949645996,0.9020000100135804,-9.385000228881836,0.1379999965429306
1621935694936,-3.0799999237060547,98.73300170898438,-17.349000930786133,1.1380000114440918,-9.371000289916992,0.0599999986588954
1621935694946,-2.450000047683716,94.81199645996092,-16.47599983215332,1.2940000295639038,-9.402999877929688,0.0149999996647238
1621935694956,-2.0299999713897705,90.07099914550781,-15.392999649047852,1.3730000257492063,-9.479999542236328,0.0010000000474974
1621935694966,-2.134999990463257,88.19349670410156,-15.226499557495115,1.3339999914169312,-9.543999671936035,-0.0900000035762786
1621935694976,-2.240000009536743,86.31600189208984,-15.0600004196167,1.2940000295639038,-9.628000259399414,-0.0649999976158142
1621935694986,-2.7300000190734863,82.87799835205078,-15.310999870300291,1.3339999914169312,-9.666999816894531,-0.0710000023245811
1621935694996,-3.009999990463257,79.56099700927734,-16.250999450683594,1.3339999914169312,-9.666999816894531,-0.0710000023245811
1621935695006,-3.2899999618530273,76.41799926757812,-16.166000366210938,1.3730000257492063,-9.652999877929688,-0.1490000039339065
1621935695016,-3.2899999618530273,72.75299835205078,-14.324000358581545,1.3339999914169312,-9.621000289916992,-0.1030000001192092
1621935695026,-3.2200000286102295,68.5719985961914,-12.786999702453612,1.3730000257492063,-9.61400032043457,-0.1420000046491622
1621935695036,-3.2899999618530273,64.98400115966797,-11.784999847412108,1.3730000257492063,-9.576000213623049,-0.135000005364418
1621935695046,-2.240000009536743,61.0260009765625,-10.706000328063965,1.3339999914169312,-9.61400032043457,-0.1420000046491622
1621935695056,-1.4700000286102295,57.53499984741211,-10.255000114440918,1.2940000295639038,-9.621000289916992,-0.1030000001192092
1621935695066,-0.7699999809265136,54.51800155639648,-10.076000213623049,1.2940000295639038,-9.65999984741211,-0.1099999994039535
1621935695076,-0.209999993443489,51.73600006103515,-10.423999786376951,1.2549999952316284,-9.666999816894531,-0.0710000023245811
1621935695086,-0.4900000095367431,49.51800155639648,-10.744999885559082,1.215999960899353,-9.744000434875488,-0.0850000008940696
1621935695096,-0.4900000095367431,47.3849983215332,-10.33899974822998,1.215999960899353,-9.737000465393066,-0.123999997973442
1621935695106,-0.3499999940395355,44.972999572753906,-9.555999755859377,1.1770000457763672,-9.729999542236328,-0.1620000004768371
1621935695116,-0.3849999904632568,43.89849853515625,-9.105499267578123,1.1770000457763672,-9.69200038909912,-0.1550000011920929
1621935695126,-0.4199999868869781,42.82400131225586,-8.654999732971191,1.1770000457763672,-9.722999572753906,-0.2010000050067901
1621935695136,-0.4199999868869781,41.242000579833984,-8.152000427246094,1.1770000457763672,-9.645999908447264,-0.1870000064373016
1621935695146,-0.209999993443489,39.150001525878906,-8.378999710083008,1.1770000457763672,-9.60099983215332,-0.2189999967813491
1621935695156,0.0,36.89899826049805,-8.918000221252441,1.1380000114440918,-9.60099983215332,-0.2189999967813491
1621935695166,1.190000057220459,34.80699920654297,-9.145000457763674,1.1380000114440918,-9.652999877929688,-0.1490000039339065
1621935695176,2.1700000762939453,33.07899856567383,-9.022999763488768,1.0590000152587893,-9.69200038909912,-0.1550000011920929
1621935695186,2.869999885559082,31.20199966430664,-8.855999946594238,1.0199999809265137,-9.79599952697754,-0.0149999996647238
1621935695196,2.940000057220459,29.69300079345703,-8.767000198364258,0.981000006198883,-9.776000022888184,-0.1299999952316284
1621935695206,2.799999952316284,28.496999740600582,-8.836000442504883,0.981000006198883,-9.852999687194824,-0.1439999938011169
1621935695216,2.7300000190734863,27.81599998474121,-8.600000381469727,0.9409999847412108,-9.89099979400635,-0.1509999930858612
1621935695226,2.450000047683716,27.187000274658203,-9.06700038909912,0.9409999847412108,-9.89099979400635,-0.1509999930858612
1621935695236,1.8899999856948853,26.594999313354492,-9.739999771118164,0.9409999847412108,-9.852999687194824,-0.1439999938011169
1621935695246,1.399999976158142,25.917999267578125,-9.93000030517578,0.981000006198883,-9.807000160217283,-0.1759999990463256
1621935695256,0.3499999940395355,25.354000091552734,-9.958999633789062,0.9409999847412108,-9.776000022888184,-0.1299999952316284
1621935695266,0.0349999964237213,25.072500228881836,-9.972999572753906,0.981000006198883,-9.776000022888184,-0.1299999952316284
1621935695276,-0.2800000011920929,24.791000366210938,-9.987000465393066,1.0199999809265137,-9.781999588012695,-0.0920000001788139
1621935695286,-1.1200000047683716,24.469999313354492,-10.1850004196167,0.981000006198883,-9.711999893188477,-0.0399999991059303
1621935695296,-2.1700000762939453,24.118000030517575,-10.602999687194824,1.0199999809265137,-9.666999816894531,-0.0710000023245811
1621935695306,-2.380000114440918,23.983999252319336,-11.053000450134276,1.0590000152587893,-9.666999816894531,-0.0710000023245811
1621935695316,-2.799999952316284,23.079999923706055,-10.359999656677246,1.0980000495910645,-9.697999954223633,-0.1169999986886978
1621935695326,-2.869999885559082,22.381999969482425,-9.630000114440918,1.0590000152587893,-9.697999954223633,-0.1169999986886978
1621935695336,-3.0799999237060547,21.923999786376953,-8.644000053405762,1.0980000495910645,-9.697999954223633,-0.1169999986886978
1621935695346,-3.2899999618530273,20.618999481201172,-8.093000411987305,1.0980000495910645,-9.704999923706056,-0.0780000016093254
1621935695356,-3.1500000953674316,19.354000091552734,-6.965000152587891,1.0590000152587893,-9.744000434875488,-0.0850000008940696
1621935695366,-3.7100000381469727,18.47800064086914,-5.626999855041504,0.981000006198883,-9.82800006866455,-0.0599999986588954
1621935695376,-3.569999933242798,17.94700050354004,-5.435999870300293,0.9409999847412108,-9.835000038146973,-0.0209999997168779
1621935695386,-3.430000066757202,17.05500030517578,-4.811999797821045,0.9020000100135804,-9.79599952697754,-0.0149999996647238
1621935695396,-3.0799999237060547,16.738000869750977,-4.228000164031982,0.9020000100135804,-9.79599952697754,-0.0149999996647238
1621935695406,-2.6600000858306885,15.859000205993652,-2.4639999866485596,0.9020000100135804,-9.711999893188477,-0.0399999991059303
1621935695416,-2.6600000858306885,14.987000465393066,-0.3429999947547912,0.8240000009536743,-9.666999816894531,-0.0710000023245811
1621935695426,-2.450000047683716,14.29599952697754,0.3524999916553497,0.8240000009536743,-9.550999641418455,-0.0509999990463256
1621935695436,-2.240000009536743,13.604999542236328,1.0479999780654907,0.7850000262260437,-9.44200038909912,0.0080000003799796
1621935695446,-1.399999976158142,12.744999885559082,1.8919999599456787,0.7450000047683715,-9.357000350952148,-0.0170000009238719
1621935695456,-1.2599999904632568,11.89799976348877,2.6670000553131104,0.7059999704360961,-9.343999862670898,-0.0939999967813491
1621935695466,-0.9100000262260436,10.904000282287598,3.059999942779541,0.7059999704360961,-9.38199996948242,-0.101000003516674
1621935695476,-0.4199999868869781,9.845999717712402,3.0160000324249268,0.7059999704360961,-9.45300006866455,-0.152999997138977
1621935695486,0.9100000262260436,8.800000190734863,2.9019999504089355,0.7450000047683715,-9.498000144958496,-0.1209999993443489
1621935695496,2.1700000762939453,7.190000057220459,2.759999990463257,0.7850000262260437,-9.484999656677246,-0.1990000009536743
1621935695506,2.869999885559082,5.203000068664551,3.546999931335449,0.7850000262260437,-9.484999656677246,-0.1990000009536743
1621935695516,3.359999895095825,2.8269999027252197,5.331999778747559,0.7850000262260437,-9.401000022888184,-0.2240000069141387
1621935695526,4.340000152587891,0.2809999883174896,6.873000144958496,0.7450000047683715,-9.369000434875488,-0.1780000030994415
1621935695536,4.96999979019165,-2.2170000076293945,8.138999938964844,0.6669999957084655,-9.329999923706056,-0.1710000038146972
1621935695546,6.789999961853027,-3.900000095367432,8.41100025177002,0.6280000209808348,-9.37600040435791,-0.1400000005960464
1621935695556,8.260000228881836,-4.706999778747559,7.343999862670899,0.5490000247955322,-9.697999954223633,-0.1169999986886978
1621935695566,9.65999984741211,-5.571000099182129,6.197000026702881,0.5490000247955322,-9.781999588012695,-0.0920000001788139
1621935695576,10.989999771118164,-5.478000164031982,4.86299991607666,0.4709999859333038,-9.93000030517578,-0.1580000072717666
1621935695586,12.31999969482422,-5.684999942779541,2.4089999198913574,0.5490000247955322,-10.038999557495115,-0.2169999927282333
1621935695596,12.600000381469728,-5.725500106811523,1.2289999723434448,0.6280000209808348,-10.123000144958496,-0.19200000166893
1621935695606,12.880000114440918,-5.765999794006348,0.0489999987185001,0.6280000209808348,-10.085000038146973,-0.1850000023841857
1621935695616,12.880000114440918,-5.258999824523926,-1.212000012397766,0.6669999957084655,-9.968999862670898,-0.164000004529953
1621935695626,12.600000381469728,-5.5960001945495605,-2.124000072479248,0.6669999957084655,-9.814000129699709,-0.1369999945163726
1621935695636,12.18000030517578,-5.948999881744385,-3.75,0.7059999704360961,-9.737000465393066,-0.123999997973442
1621935695646,11.130000114440918,-6.107999801635742,-5.270999908447266,0.7450000047683715,-9.788999557495115,-0.0529999993741512
1621935695656,10.220000267028809,-5.263999938964844,-6.828000068664551,0.8629999756813049,-9.873000144958496,-0.0280000008642673
1621935695666,10.149999618530272,-4.2870001792907715,-7.934999942779541,0.9409999847412108,-9.873000144958496,-0.0280000008642673
1621935695676,10.640000343322754,-3.2899999618530273,-8.753999710083008,1.0199999809265137,-9.835000038146973,-0.0209999997168779
1621935695686,10.850000381469728,-3.4800000190734863,-9.28499984741211,1.1380000114440918,-9.821000099182127,-0.0989999994635581
1621935695696,11.130000114440918,-3.910000085830689,-8.86400032043457,1.1770000457763672,-9.788999557495115,-0.0529999993741512
1621935695706,11.340000152587892,-4.879000186920166,-8.607999801635742,1.1770000457763672,-9.642000198364256,0.0130000002682209
1621935695716,10.850000381469728,-6.822000026702881,-7.671000003814697,1.2549999952316284,-9.44200038909912,0.0080000003799796
1621935695726,11.199999809265137,-8.362000465393066,-6.5920000076293945,1.3730000257492063,-9.255000114440918,0.0810000002384185
1621935695736,11.899999618530272,-10.086000442504885,-6.895999908447266,1.3730000257492063,-9.05500030517578,0.0759999975562095
1621935695746,13.510000228881836,-11.800999641418455,-6.8429999351501465,1.3730000257492063,-8.977999687194824,0.0900000035762786
1621935695756,15.1899995803833,-13.402999877929688,-5.420000076293945,1.3730000257492063,-8.817000389099121,0.0780000016093254
1621935695766,17.360000610351562,-15.328000068664553,-3.7690000534057617,1.4119999408721924,-8.732999801635742,0.0529999993741512
1621935695776,19.11000061035156,-16.259000778198242,-3.3289999961853027,1.4509999752044678,-8.687000274658203,0.0219999998807907
1621935695786,20.86000061035156,-17.190000534057617,-2.888999938964844,1.491000056266785,-8.64900016784668,0.0280000008642673
1621935695796,25.34000015258789,-19.382999420166016,-2.138000011444092,1.4119999408721924,-8.545999526977539,0.1260000020265579
1621935695806,29.399999618530273,-22.131999969482425,0.1490000039339065,1.3730000257492063,-8.39900016784668,0.19200000166893
1621935695816,34.09000015258789,-24.63800048828125,2.2660000324249268,1.3730000257492063,-8.366999626159668,0.2370000034570694
1621935695826,38.9900016784668,-27.24099922180176,3.7260000705718994,1.3339999914169312,-8.425999641418457,0.3470000028610229
1621935695836,43.68000030517578,-29.47100067138672,4.684000015258789,1.2549999952316284,-8.569000244140625,0.481000006198883
1621935695846,47.66999816894531,-31.91200065612793,6.03000020980835,1.1770000457763672,-8.704999923706055,0.5759999752044677
1621935695856,51.16999816894531,-33.257999420166016,7.21400022506714,1.1770000457763672,-8.951000213623047,0.6129999756813049
1621935695866,54.38999938964844,-34.803001403808594,7.511000156402587,1.1770000457763672,-9.215999603271484,0.7649999856948853
1621935695876,56.349998474121094,-35.96699905395508,7.66099977493286,1.0980000495910645,-9.39099979400635,0.8529999852180481
1621935695886,57.2599983215332,-36.54999923706055,8.553000450134277,1.0199999809265137,-9.619000434875488,1.0130000114440918
1621935695896,57.75,-36.51800155639648,8.772000312805176,0.981000006198883,-9.807000160217283,1.1779999732971191
1621935695906,56.70000076293945,-36.5260009765625,7.206999778747559,0.981000006198883,-9.918999671936035,1.3580000400543213
1621935695916,55.09000015258789,-36.198001861572266,5.34499979019165,0.9409999847412108,-10.062000274658203,1.4919999837875366
1621935695926,52.9900016784668,-34.433998107910156,3.8080000877380367,0.981000006198883,-10.145999908447266,1.5169999599456787
1621935695936,50.189998626708984,-32.61399841308594,2.3519999980926514,0.981000006198883,-10.159000396728516,1.593999981880188
1621935695946,47.7400016784668,-30.392000198364254,1.037999987602234,0.981000006198883,-10.256999969482422,1.6970000267028809
1621935695956,45.0099983215332,-28.68899917602539,-0.1539999991655349,1.0199999809265137,-10.347999572753906,1.7599999904632568
1621935695966,42.209999084472656,-26.43000030517578,-0.4670000076293945,1.0590000152587893,-10.380000114440918,1.7150000333786013
1621935695976,40.63500213623047,-25.38000106811523,-0.1750000119209289,1.0199999809265137,-10.392999649047852,1.7920000553131104
1621935695986,39.060001373291016,-24.329999923706055,0.1169999986886978,1.0199999809265137,-10.399999618530272,1.830999970436096
1621935695996,36.33000183105469,-22.582000732421875,0.2829999923706054,1.0199999809265137,-10.406999588012695,1.86899995803833
1621935696006,33.7400016784668,-20.916000366210938,0.5059999823570251,1.215999960899353,-10.329999923706056,1.8830000162124632
1621935696016,30.8700008392334,-18.856000900268555,0.5139999985694885,1.2549999952316284,-10.246000289916992,1.8580000400543213
1621935696026,28.06999969482422,-17.270000457763672,0.7929999828338623,1.2940000295639038,-10.21399974822998,1.9029999971389773
1621935696036,24.780000686645508,-15.866999626159668,0.8980000019073486,1.2549999952316284,-10.090999603271484,1.8849999904632568
1621935696046,21.489999771118164,-14.472000122070312,0.6470000147819519,1.2549999952316284,-9.961999893188477,1.8279999494552612
1621935696056,18.479999542236328,-13.607999801635742,0.5860000252723693,1.2549999952316284,-9.737000465393066,1.9079999923706057
1621935696066,15.81999969482422,-13.097000122070312,1.3159999847412107,1.1770000457763672,-9.621000289916992,1.9279999732971191
1621935696076,13.859999656677246,-12.144000053405762,2.763000011444092,1.1770000457763672,-9.472999572753906,1.99399995803833
1621935696086,12.670000076293944,-11.487000465393066,2.6659998893737793,1.215999960899353,-9.279999732971191,2.0280001163482666
1621935696096,12.31999969482422,-10.234999656677246,1.6069999933242798,1.215999960899353,-9.248000144958496,2.0739998817443848
1621935696106,12.670000076293944,-8.944999694824219,0.3420000076293945,1.215999960899353,-9.300000190734863,2.1440000534057617
1621935696116,13.4399995803833,-8.329000473022461,-0.3310000002384185,1.215999960899353,-9.345999717712402,2.1760001182556152
1621935696126,14.140000343322754,-7.360000133514405,-0.5870000123977661,1.1770000457763672,-9.383999824523924,2.1689999103546143
1621935696136,15.260000228881836,-6.525000095367432,-1.2929999828338623,1.215999960899353,-9.513999938964846,2.2260000705718994
1621935696145,15.260000228881836,-5.7789998054504395,-2.2980000972747803,1.1770000457763672,-9.836999893188477,2.249000072479248
1621935696155,14.5600004196167,-5.165999889373779,-2.5460000038146973,1.0980000495910645,-10.005000114440918,2.299000024795532
1621935696165,13.300000190734863,-4.541999816894531,-2.861999988555908,0.981000006198883,-10.17300033569336,2.3489999771118164
1621935696175,11.970000267028809,-3.7309999465942383,-4.638000011444092,0.9020000100135804,-10.496000289916992,2.371999979019165
1621935696185,9.239999771118164,-2.3289999961853027,-6.949999809265137,0.7850000262260437,-10.965999603271484,2.328000068664551
1621935696195,6.019999980926514,-0.135000005364418,-8.909000396728516,0.6669999957084655,-11.470000267028809,2.4779999256134033
1621935696205,2.309999942779541,2.3550000190734863,-9.322999954223633,0.5490000247955322,-11.722999572753906,2.552999973297119
1621935696215,-0.5600000023841857,4.790999889373779,-11.45199966430664,0.3919999897480011,-11.890999794006348,2.6029999256134033
1621935696225,-3.009999990463257,6.043999671936035,-13.718999862670898,0.3529999852180481,-12.20699977874756,2.5880000591278076
1621935696235,-5.460000038146973,7.296999931335449,-15.986000061035156,0.2750000059604644,-12.406999588012695,2.5920000076293945
1621935696245,-12.039999961853027,10.020999908447266,-18.135000228881836,0.1570000052452087,-12.234000205993652,2.7420001029968266
1621935696255,-18.1299991607666,12.925000190734863,-17.26799964904785,0.0780000016093254,-11.64799976348877,2.805999994277954
1621935696265,-21.700000762939453,15.329999923706056,-17.198999404907227,0.1570000052452087,-11.138999938964844,2.8559999465942383
1621935696275,-24.56999969482422,16.777000427246094,-19.361000061035156,0.1959999948740005,-10.744999885559082,2.884999990463257
1621935696285,-28.280000686645508,17.908000946044922,-19.729999542236328,0.1959999948740005,-10.482000350952148,2.9709999561309814
1621935696295,-30.450000762939453,18.459999084472656,-16.007999420166016,0.1959999948740005,-10.229999542236328,2.8959999084472656
1621935696305,-30.100000381469727,17.92099952697754,-12.548999786376951,0.0780000016093254,-10.067999839782717,2.884999990463257
1621935696315,-28.489999771118164,16.895000457763672,-12.37399959564209,-0.0780000016093254,-9.763999938964846,2.740000009536743
1621935696325,-26.459999084472656,15.541000366210938,-12.755000114440918,-0.2349999994039535,-9.697999954223633,2.5920000076293945
1621935696335,-25.690000534057617,14.798999786376951,-12.175000190734863,-0.3919999897480011,-9.63199996948242,2.444000005722046
1621935696345,-25.899999618530273,14.609000205993652,-11.498000144958496,-0.5879999995231628,-9.604999542236328,2.2899999618530273
1621935696355,-27.3700008392334,14.909000396728516,-11.586999893188477,-0.7450000047683715,-9.5,2.1489999294281006
1621935696365,-29.469999313354492,15.24899959564209,-12.309000015258787,-0.8629999756813049,-9.312000274658203,1.9830000400543213
1621935696375,-31.850000381469727,16.52199935913086,-13.079999923706056,-0.981000006198883,-9.053000450134276,1.86899995803833
1621935696385,-34.790000915527344,18.03499984741211,-13.595000267028809,-1.0590000152587893,-8.902999877929688,1.6959999799728394
1621935696395,-37.52000045776367,19.628000259399418,-14.166999816894531,-1.0980000495910645,-8.765999794006348,1.60099995136261
1621935696405,-39.34000015258789,21.076000213623047,-13.911999702453612,-1.1380000114440918,-8.720999717712402,1.569000005722046
1621935696415,-40.459999084472656,22.729999542236328,-13.619999885559082,-1.1770000457763672,-8.630000114440918,1.5049999952316284
1621935696425,-40.459999084472656,23.80900001525879,-13.286999702453612,-1.215999960899353,-8.706999778747559,1.4919999837875366
1621935696435,-39.900001525878906,24.843000411987305,-13.104999542236328,-1.1770000457763672,-8.776000022888184,1.2009999752044678
1621935696445,-39.47999954223633,25.763999938964844,-13.085000038146973,-1.215999960899353,-8.890999794006348,1.180999994277954
1621935696455,-38.0099983215332,26.687999725341797,-12.281999588012695,-1.215999960899353,-8.776000022888184,1.2009999752044678
1621935696465,-35.560001373291016,27.67799949645996,-11.041999816894531,-1.215999960899353,-8.697999954223633,1.2150000333786013
1621935696475,-31.36000061035156,27.989999771118164,-9.991000175476074,-1.215999960899353,-8.744000434875488,1.2460000514984133
1621935696485,-27.09000015258789,28.358999252319336,-8.859999656677246,-1.1770000457763672,-8.704999923706055,1.253000020980835
1621935696495,-22.260000228881836,28.70800018310547,-6.808000087738037,-1.215999960899353,-8.704999923706055,1.253000020980835
1621935696505,-19.704999923706055,28.805500030517575,-6.151000022888184,-1.215999960899353,-8.866000175476074,1.2649999856948853
1621935696515,-17.149999618530273,28.902999877929688,-5.49399995803833,-1.1770000457763672,-8.951000213623047,1.2899999618530271
1621935696525,-12.600000381469728,29.39800071716309,-5.478000164031982,-1.1770000457763672,-9.137000083923342,1.2170000076293943
1621935696535,-8.960000038146973,29.81599998474121,-5.830999851226807,-1.0980000495910645,-9.336999893188477,1.2220000028610227
1621935696545,-6.579999923706055,31.18600082397461,-7.1529998779296875,-1.0590000152587893,-9.51599979400635,1.1100000143051147
1621935696555,-5.110000133514404,31.525999069213867,-9.083999633789062,-0.981000006198883,-9.696000099182127,0.9990000128746032
1621935696565,-5.039999961853027,32.17900085449219,-11.171999931335447,-0.9020000100135804,-9.862000465393066,0.8100000023841857
1621935696575,-6.440000057220459,32.33700180053711,-13.276000022888184,-0.8240000009536743,-9.887000083923342,0.7260000109672546
1621935696585,-8.819999694824219,32.361000061035156,-14.623000144958496,-0.8240000009536743,-9.821000099182127,0.5789999961853027
1621935696595,-11.619999885559082,32.02000045776367,-15.109000205993652,-0.7450000047683715,-9.737000465393066,0.5540000200271606
1621935696605,-14.350000381469728,31.638999938964844,-16.172000885009766,-0.6280000209808348,-9.65999984741211,0.5669999718666076
1621935696615,-17.079999923706055,31.15999984741211,-16.683000564575195,-0.5099999904632568,-9.484999656677246,0.4790000021457672
1621935696625,-18.690000534057617,30.57200050354004,-16.572999954223633,-0.4709999859333038,-9.322999954223633,0.4670000076293945
1621935696635,-19.950000762939453,29.785999298095703,-16.14299964904785,-0.4709999859333038,-9.22599983215332,0.3650000095367431
1621935696645,-20.440000534057617,29.18600082397461,-15.965000152587892,-0.4309999942779541,-9.147999763488768,0.3779999911785125
1621935696655,-19.8799991607666,28.698999404907227,-15.62399959564209,-0.4709999859333038,-9.038999557495115,0.4379999935626983
1621935696665,-19.38999938964844,28.025999069213867,-15.031999588012695,-0.4709999859333038,-8.987000465393066,0.367000013589859
1621935696675,-18.34000015258789,27.604000091552734,-14.253000259399414,-0.4709999859333038,-8.793999671936035,0.4009999930858612
1621935696685,-16.520000457763672,27.256000518798828,-12.68000030517578,-0.4309999942779541,-8.678000450134277,0.4219999909400939
1621935696695,-14.210000038146973,27.045000076293945,-11.08199977874756,-0.4309999942779541,-8.621000289916992,0.5509999990463256
1621935696705,-11.970000267028809,26.729000091552734,-9.28999996185303,-0.5099999904632568,-8.576000213623047,0.5189999938011169
1621935696715,-9.449999809265137,26.117000579833984,-7.834000110626221,-0.5490000247955322,-8.697999954223633,0.537000000476837
1621935696725,-7.070000171661377,26.368999481201172,-6.439000129699707,-0.5879999995231628,-8.795999526977539,0.6399999856948853
1621935696735,-4.480000019073486,26.645000457763672,-5.182000160217285,-0.6669999957084655,-8.8100004196167,0.7170000076293945
1621935696745,-2.0299999713897705,27.18400001525879,-5.015999794006348,-0.6669999957084655,-8.822999954223633,0.7940000295639038
1621935696755,-0.0700000002980232,27.589000701904297,-5.300000190734863,-0.6280000209808348,-8.87600040435791,0.865000009536743
1621935696765,1.399999976158142,27.406999588012695,-4.265999794006348,-0.6280000209808348,-8.967000007629395,0.9279999732971193
1621935696775,2.5899999141693115,27.61000061035156,-3.802999973297119,-0.6280000209808348,-9.102999687194824,1.02400004863739
1621935696785,3.5,27.45199966430664,-4.116000175476074,-0.6280000209808348,-9.3100004196167,1.0670000314712524
1621935696795,4.130000114440918,27.010000228881836,-4.833000183105469,-0.5879999995231628,-9.46399974822998,1.0399999618530271
1621935696805,4.269999980926514,26.912500381469727,-4.886000156402588,-0.5490000247955322,-9.67099952697754,1.0829999446868896
1621935696815,4.409999847412109,26.815000534057617,-4.939000129699707,-0.5879999995231628,-9.86400032043457,1.0490000247955322
1621935696825,3.7100000381469727,26.332000732421875,-5.02400016784668,-0.5490000247955322,-10.019000053405762,1.0219999551773071
1621935696835,2.869999885559082,26.465999603271484,-5.7820000648498535,-0.5490000247955322,-10.17300033569336,0.9940000176429749
1621935696845,1.8899999856948853,26.084999084472656,-6.843999862670898,-0.4709999859333038,-10.184000015258787,0.8330000042915344
1621935696855,0.1400000005960464,24.937000274658203,-7.189000129699707,-0.3919999897480011,-10.222999572753906,0.8259999752044677
1621935696865,-1.3300000429153442,24.13800048828125,-6.690000057220459,-0.3140000104904174,-10.229999542236328,0.865000009536743
1621935696875,-2.7300000190734863,22.43899917602539,-5.922999858856201,-0.2349999994039535,-10.244000434875488,0.9419999718666076
1621935696885,-4.409999847412109,21.027999877929688,-5.177000045776367,-0.2750000059604644,-10.11400032043457,0.8849999904632568
1621935696895,-5.53000020980835,19.20800018310547,-4.928999900817871,-0.2750000059604644,-10.029999732971191,0.8600000143051147
1621935696905,-7.349999904632568,18.121000289916992,-5.61899995803833,-0.3140000104904174,-9.939000129699709,0.7969999909400939
1621935696915,-9.100000381469728,17.07900047302246,-6.1579999923706055,-0.3919999897480011,-9.96399974822998,0.7129999995231628
1621935696925,-11.130000114440918,17.148000717163086,-7.354000091552734,-0.3529999852180481,-10.149999618530272,0.6399999856948853
1621935696935,-13.4399995803833,17.23699951171875,-8.26200008392334,-0.3919999897480011,-10.144000053405762,0.6010000109672546
1621935696945,-15.329999923706056,16.791000366210938,-8.553999900817871,-0.3529999852180481,-10.246000289916992,0.5040000081062316
1621935696955,-17.780000686645508,16.677000045776367,-8.715999603271484,-0.2750000059604644,-10.534999847412108,0.3330000042915344
1621935696965,-20.229999542236328,16.843000411987305,-6.839000225067139,-0.2750000059604644,-10.953000068664553,0.2199999988079071
1621935696975,-21.209999084472656,16.875999450683594,-5.4120001792907715,-0.2349999994039535,-11.487000465393066,0.0860000029206275
1621935696985,-21.420000076293945,16.70199966430664,-5.229000091552734,-0.1180000007152557,-12.47700023651123,-0.1689999997615814
1621935696995,-20.719999313354492,16.933000564575195,-4.122000217437744,-0.1180000007152557,-13.175000190734863,-0.0529999993741512
1621935697005,-13.020000457763672,17.43600082397461,-4.958000183105469,-0.3140000104904174,-12.48900032043457,0.3470000028610229
1621935697015,-2.5199999809265137,17.381999969482422,-11.505999565124512,-0.2750000059604644,-11.29800033569336,0.597000002861023
1621935697025,2.380000114440918,16.42099952697754,-14.519000053405762,-0.1180000007152557,-10.300000190734863,0.8130000233650208
1621935697035,1.6799999475479126,16.899999618530273,-10.383000373840332,0.0390000008046627,-9.699999809265137,0.7990000247955322
1621935697045,-0.7699999809265136,18.590999603271484,-7.881000041961671,0.0,-9.51900005340576,0.6719999909400939
1621935697055,-1.6799999475479126,19.98900032043457,-13.392000198364258,-0.0780000016093254,-9.621000289916992,0.5740000009536743
1621935697065,-2.869999885559082,21.41900062561035,-22.30900001525879,-0.0780000016093254,-9.852999687194824,0.5329999923706054
1621935697075,-5.389999866485596,22.89900016784668,-26.66900062561035,0.0390000008046627,-10.071000099182127,0.4149999916553497
1621935697085,-7.980000019073486,24.111000061035156,-27.094999313354492,0.1570000052452087,-10.109999656677246,0.4079999923706054
1621935697095,-8.78499984741211,24.36050033569336,-27.90399932861328,0.1959999948740005,-9.916000366210936,0.44200000166893
1621935697105,-9.59000015258789,24.61000061035156,-28.71299934387207,0.2349999994039535,-9.93000030517578,0.5189999938011169
1621935697115,-10.289999961853027,25.218000411987305,-30.951000213623047,0.3140000104904174,-9.781999588012695,0.5849999785423278
1621935697125,-10.43000030517578,25.22599983215332,-30.593999862670895,0.3140000104904174,-9.732000350952148,0.7530000209808348
1621935697135,-9.100000381469728,25.753000259399418,-27.941999435424805,0.3529999852180481,-9.461999893188477,0.8009999990463256
1621935697145,-5.739999771118164,25.91200065612793,-26.42200088500977,0.4309999942779541,-9.197999954223633,0.887000024318695
1621935697155,-1.6799999475479126,25.704999923706055,-24.04199981689453,0.4309999942779541,-9.005000114440918,0.921999990940094
1621935697165,1.399999976158142,25.024999618530273,-20.180999755859375,0.4709999859333038,-8.928000450134277,0.9350000023841856
1621935697175,4.690000057220459,25.22800064086914,-14.885000228881836,0.4309999942779541,-8.895999908447266,0.981000006198883
1621935697185,8.119999885559082,25.114999771118164,-10.21399974822998,0.3919999897480011,-8.871000289916992,1.065000057220459
1621935697195,11.270000457763672,25.24099922180176,-6.495999813079834,0.3140000104904174,-8.852999687194824,1.187000036239624
1621935697205,13.859999656677246,25.448999404907227,-2.8340001106262207,0.2750000059604644,-8.866000175476074,1.2649999856948853
1621935697215,15.260000228881836,26.22800064086914,1.2130000591278076,0.2349999994039535,-8.951000213623047,1.2899999618530271
1621935697225,15.399999618530272,26.900999069213867,4.245999813079834,0.1959999948740005,-9.196000099182127,1.3259999752044678
1621935697235,14.630000114440918,27.41699981689453,5.757999897003174,0.1570000052452087,-9.428000450134276,1.2849999666213987
1621935697245,12.460000038146973,27.437000274658203,7.255000114440918,0.1570000052452087,-9.652999877929688,1.2059999704360962
1621935697255,9.380000114440918,27.47800064086914,9.038999557495115,0.2349999994039535,-9.814000129699709,1.2170000076293943
1621935697265,5.320000171661377,27.15399932861328,10.473999977111816,0.1570000052452087,-9.878000259399414,1.1260000467300415
1621935697275,1.399999976158142,26.41200065612793,11.053999900817873,0.1959999948740005,-9.800000190734863,1.1399999856948853
1621935697285,-2.240000009536743,26.201000213623047,11.444000244140623,0.2349999994039535,-9.652999877929688,1.2059999704360962
1621935697295,-5.110000133514404,25.40999984741211,12.298999786376951,0.2349999994039535,-9.45300006866455,1.2009999752044678
1621935697305,-6.929999828338623,24.69700050354004,13.52400016784668,0.1570000052452087,-9.151000022888184,1.2940000295639038
1621935697315,-7.210000038146973,24.30299949645996,13.73900032043457,0.1180000007152557,-9.079999923706056,1.3459999561309814
1621935697325,-6.440000057220459,24.513999938964844,12.140999794006348,0.1180000007152557,-9.041000366210936,1.3530000448226929
1621935697335,-4.340000152587891,25.06100082397461,10.248000144958496,0.0780000016093254,-8.96399974822998,1.3669999837875366
1621935697345,-2.380000114440918,25.4950008392334,8.192000389099121,0.0780000016093254,-8.96399974822998,1.3669999837875366
1621935697355,-0.2800000011920929,26.090999603271484,6.021999835968018,0.0780000016093254,-9.04800033569336,1.3919999599456787
1621935697365,0.840000033378601,26.51449966430664,4.426499843597412,0.0390000008046627,-9.13199996948242,1.4170000553131104
1621935697375,1.9600000381469729,26.937999725341797,2.8310000896453857,-0.0780000016093254,-9.14400005340576,1.25600004196167
1621935697385,4.760000228881836,28.035999298095703,-1.3830000162124634,-0.0390000008046627,-9.234999656677246,1.319000005722046
1621935697395,7.489999771118165,29.613000869750977,-5.085000038146973,-0.0390000008046627,-9.357000350952148,1.337000012397766
1621935697405,10.289999961853027,31.785999298095703,-7.331999778747559,-0.0390000008046627,-9.248000144958496,1.3969999551773071
1621935697415,13.649999618530272,34.040000915527344,-9.635000228881836,-0.0390000008046627,-9.33899974822998,1.4600000381469729
1621935697425,16.309999465942383,36.18899917602539,-11.744000434875488,0.0,-9.494000434875488,1.4329999685287476
1621935697435,18.34000015258789,38.46799850463867,-11.769000053405762,0.0,-9.67300033569336,1.3220000267028809
1621935697445,19.459999084472656,40.779998779296875,-10.366000175476074,0.0390000008046627,-9.866000175476074,1.287999987602234
1621935697455,20.93000030517578,42.422000885009766,-10.005999565124512,0.0390000008046627,-9.68000030517578,1.3600000143051147
1621935697465,22.81999969482422,43.91400146484375,-10.809000015258787,0.0780000016093254,-9.241000175476074,1.3580000400543213
1621935697475,22.959999084472656,44.48199844360352,-11.206000328063965,0.0780000016093254,-9.312000274658203,1.305999994277954
1621935697485,20.790000915527344,45.48400115966797,-7.618000030517577,0.0780000016093254,-9.58199977874756,1.2580000162124634
1621935697495,19.739999771118164,45.63899993896485,-2.0460000038146973,0.0,-9.704999923706056,1.2760000228881836
1621935697505,20.299999237060547,45.979000091552734,-0.3510000109672546,-0.1180000007152557,-9.711999893188477,1.315000057220459
1621935697515,20.09000015258789,46.83100128173828,-1.5509999990463257,-0.1959999948740005,-9.932000160217283,1.434999942779541
1621935697525,19.530000686645508,47.82899856567382,0.0460000000894069,-0.2750000059604644,-10.062000274658203,1.4919999837875366
1621935697535,18.479999542236328,48.14899826049805,0.2450000047683715,-0.3919999897480011,-10.100000381469728,1.4850000143051147
1621935697545,16.8700008392334,48.27000045776367,-1.6529999971389773,-0.4309999942779541,-10.138999938964844,1.4780000448226929
1621935697555,14.979999542236328,48.80500030517578,-3.4779999256134033,-0.3529999852180481,-10.255000114440918,1.4579999446868896
1621935697565,13.020000457763672,48.62300109863281,-4.861000061035156,-0.3919999897480011,-10.215999603271484,1.4650000333786013
1621935697575,11.0600004196167,47.929000854492195,-6.9730000495910645,-0.4309999942779541,-10.062000274658203,1.4919999837875366
1621935697585,9.765000343322754,47.56600189208984,-8.138999938964844,-0.4309999942779541,-9.932000160217283,1.434999942779541
1621935697595,8.470000267028809,47.202999114990234,-9.30500030517578,-0.3919999897480011,-9.815999984741213,1.4559999704360962
1621935697605,5.320000171661377,46.37099838256836,-11.44200038909912,-0.4309999942779541,-9.699999809265137,1.47599995136261
1621935697615,2.5199999809265137,45.053001403808594,-13.23799991607666,-0.4709999859333038,-9.694000244140623,1.437000036239624
1621935697625,0.2800000011920929,43.31700134277344,-14.680999755859377,-0.4709999859333038,-9.616000175476074,1.4509999752044678
1621935697635,-0.9800000190734864,41.577999114990234,-15.699000358581545,-0.5490000247955322,-9.42300033569336,1.4850000143051147
1621935697645,-1.1200000047683716,39.93899917602539,-16.485000610351562,-0.5879999995231628,-9.307000160217283,1.50600004196167
1621935697655,-0.6299999952316284,38.47999954223633,-15.463000297546388,-0.6669999957084655,-9.237000465393066,1.5579999685287476
1621935697665,0.4900000095367431,37.51499938964844,-14.425000190734863,-0.7059999704360961,-9.15999984741211,1.5709999799728394
1621935697675,2.309999942779541,36.68000030517578,-13.718999862670898,-0.7850000262260437,-9.166000366210936,1.6100000143051147
1621935697685,4.340000152587891,36.334999084472656,-13.779999732971191,-0.7450000047683715,-9.18000030517578,1.687000036239624
1621935697695,6.300000190734863,36.165000915527344,-14.02299976348877,-0.7059999704360961,-9.194000244140623,1.7649999856948853
1621935697705,8.329999923706055,35.340999603271484,-14.595000267028809,-0.6669999957084655,-9.199999809265137,1.8029999732971191
1621935697715,10.359999656677246,34.20199966430664,-14.58199977874756,-0.6669999957084655,-9.28499984741211,1.8279999494552612
1621935697725,11.970000267028809,33.21200180053711,-14.614999771118164,-0.6280000209808348,-9.336999893188477,1.89900004863739
1621935697735,13.159999847412108,32.194000244140625,-15.291999816894531,-0.6280000209808348,-9.38199996948242,1.930999994277954
1621935697745,13.4399995803833,31.57799911499023,-15.82699966430664,-0.6280000209808348,-9.543999671936035,1.9420000314712524
1621935697755,12.460000038146973,31.50900077819824,-15.83899974822998,-0.6669999957084655,-9.75,1.9850000143051147
1621935697765,10.920000076293944,31.59000015258789,-15.895999908447266,-0.7059999704360961,-9.95699977874756,2.0280001163482666
1621935697775,8.609999656677246,31.347000122070312,-15.72599983215332,-0.7059999704360961,-10.072999954223633,2.0079998970031734
1621935697785,7.244999885559082,31.458499908447266,-15.350500106811523,-0.7059999704360961,-10.196000099182127,2.0260000228881836
1621935697794,5.880000114440918,31.56999969482422,-14.975000381469728,-0.7450000047683715,-10.248000144958496,2.0969998836517334
1621935697804,3.1500000953674316,30.986000061035156,-14.083000183105469,-0.7059999704360961,-10.286999702453612,2.0899999141693115
1621935697814,0.0700000002980232,30.694000244140625,-13.63700008392334,-0.7450000047683715,-10.317999839782717,2.0439999103546143
1621935697824,-3.2899999618530273,30.34600067138672,-13.272000312805176,-0.6669999957084655,-10.324999809265137,2.0829999446868896
1621935697834,-6.090000152587891,29.753999710083008,-12.737000465393066,-0.7059999704360961,-10.324999809265137,2.0829999446868896
1621935697844,-8.399999618530273,29.059999465942383,-12.43299961090088,-0.7059999704360961,-10.350000381469728,1.9989999532699585
1621935697854,-10.289999961853027,28.517000198364254,-12.17300033569336,-0.7059999704360961,-10.312000274658203,2.00600004196167
1621935697864,-11.899999618530272,27.77899932861328,-12.019000053405762,-0.6669999957084655,-10.29800033569336,1.9279999732971191
1621935697874,-13.229999542236328,26.49799919128418,-11.604999542236328,-0.5490000247955322,-10.175000190734863,1.9099999666213987
1621935697884,-14.140000343322754,25.277000427246097,-10.328000068664553,-0.5490000247955322,-10.123000144958496,1.8400000333786013
1621935697894,-14.350000381469728,23.538000106811523,-8.928000450134277,-0.4709999859333038,-10.078000068664553,1.8079999685287476
1621935697904,-14.770000457763672,22.12700080871582,-8.182000160217285,-0.5099999904632568,-9.979999542236328,1.7059999704360962
1621935697914,-15.119999885559082,21.308000564575195,-7.97100019454956,-0.5099999904632568,-9.965999603271484,1.628000020980835
1621935697924,-15.050000190734863,20.724000930786133,-8.286999702453613,-0.5099999904632568,-9.958999633789062,1.5900000333786013
1621935697934,-15.470000267028809,20.395999908447266,-7.633999824523927,-0.5490000247955322,-9.899999618530272,1.4809999465942385
1621935697944,-16.100000381469727,19.57699966430664,-6.215000152587891,-0.5490000247955322,-9.880000114440918,1.3650000095367432
1621935697954,-16.100000381469727,19.167499542236328,-5.505499839782715,-0.5490000247955322,-9.821000099182127,1.25600004196167
1621935697964,-16.100000381469727,18.757999420166016,-4.796000003814697,-0.5490000247955322,-9.788999557495115,1.3009999990463257
1621935697974,-15.960000038146973,18.16200065612793,-3.8340001106262207,-0.4709999859333038,-9.715999603271484,1.1150000095367432
1621935697984,-15.960000038146973,16.98200035095215,-3.190000057220459,-0.4709999859333038,-9.696000099182127,0.9990000128746032
1621935697994,-15.75,15.789999961853027,-2.4760000705718994,-0.4709999859333038,-9.612000465393066,0.9739999771118164
1621935698004,-15.329999923706056,14.633999824523926,-1.968999981880188,-0.4709999859333038,-9.48900032043457,0.955999970436096
1621935698014,-14.0,13.300000190734863,-2.062000036239624,-0.5099999904632568,-9.437000274658203,0.8849999904632568
1621935698024,-13.090000152587892,12.112000465393066,-1.77400004863739,-0.5099999904632568,-9.39099979400635,0.8529999852180481
1621935698034,-12.109999656677246,11.130999565124512,-1.4490000009536743,-0.5490000247955322,-9.416000366210936,0.7689999938011169
1621935698044,-11.0600004196167,10.425000190734863,-1.0759999752044678,-0.7059999704360961,-9.595999717712402,0.6579999923706054
1621935698054,-10.010000228881836,9.651000022888184,-0.7149999737739563,-0.7850000262260437,-9.61400032043457,0.5350000262260437
1621935698064,-9.170000076293944,8.84000015258789,-1.3559999465942385,-0.7850000262260437,-9.83899974822998,0.4560000002384185
1621935698074,-9.100000381469728,8.567999839782715,-0.621999979019165,-0.7850000262260437,-10.071000099182127,0.4149999916553497
1621935698084,-9.029999732971191,8.40999984741211,0.2750000059604644,-0.8240000009536743,-10.0,0.4670000076293945
1621935698094,-8.329999923706055,7.598999977111816,-0.3659999966621398,-0.8240000009536743,-9.885000228881836,0.4880000054836273
1621935698104,-7.139999866485596,6.921999931335449,-1.7649999856948853,-0.8240000009536743,-9.776000022888184,0.5469999909400939
1621935698114,-6.300000190734863,6.949999809265137,-2.3289999961853027,-0.8240000009536743,-9.65999984741211,0.5669999718666076
1621935698124,-6.195000171661377,6.793999671936035,-2.249500036239624,-0.7850000262260437,-9.58199977874756,0.5809999704360961
1621935698134,-6.090000152587891,6.638000011444092,-2.1700000762939453,-0.7450000047683715,-9.465999603271484,0.6010000109672546
1621935698144,-5.320000171661377,6.158999919891357,-2.680999994277954,-0.7450000047683715,-9.312000274658203,0.6280000209808348
1621935698154,-4.480000019073486,5.894999980926514,-4.006999969482422,-0.7059999704360961,-9.196000099182127,0.6489999890327453
1621935698164,-3.849999904632568,5.785999774932861,-5.802999973297119,-0.6669999957084655,-9.003000259399414,0.6830000281333923
1621935698174,-3.5,5.9070000648498535,-7.701000213623046,-0.6280000209808348,-8.970999717712402,0.7279999852180481
1621935698184,-3.2200000286102295,5.60699987411499,-8.819999694824219,-0.5490000247955322,-8.977999687194824,0.7670000195503234
1621935698194,-3.1500000953674316,5.60699987411499,-10.029000282287598,-0.5099999904632568,-8.977999687194824,0.7670000195503234
1621935698204,-3.569999933242798,5.6020002365112305,-10.810999870300291,-0.4709999859333038,-9.107000350952148,0.8240000009536743
1621935698214,-3.6400001049041744,5.581999778747559,-11.098999977111816,-0.4309999942779541,-9.262000083923342,0.7969999909400939
1621935698224,-3.6400001049041744,5.254000186920166,-11.654999732971191,-0.4309999942779541,-9.40999984741211,0.731000006198883
1621935698234,-3.7100000381469727,5.098999977111816,-12.392999649047852,-0.4309999942779541,-9.538999557495115,0.7879999876022338
1621935698244,-3.1500000953674316,4.795000076293945,-13.086000442504885,-0.4309999942779541,-9.604999542236328,0.9350000023841856
1621935698254,-2.5899999141693115,4.6529998779296875,-12.6850004196167,-0.4309999942779541,-9.597999572753906,0.8970000147819519
1621935698264,-1.6100000143051147,4.073999881744385,-12.218000411987305,-0.3529999852180481,-9.656999588012695,1.00600004196167
1621935698274,-0.4199999868869781,3.0799999237060547,-11.824999809265137,-0.3140000104904174,-9.625,1.0509999990463257
1621935698284,0.9100000262260436,1.888000011444092,-11.111000061035156,-0.3140000104904174,-9.579999923706056,1.0190000534057615
1621935698294,1.6100000143051147,1.600000023841858,-11.090499877929688,-0.3140000104904174,-9.55500030517578,1.1030000448226929
1621935698304,2.309999942779541,1.312000036239624,-11.06999969482422,-0.3140000104904174,-9.522999763488768,1.14900004863739
1621935698314,3.569999933242798,0.9350000023841856,-11.350000381469728,-0.2750000059604644,-9.562000274658203,1.1419999599456787
1621935698324,4.269999980926514,0.5339999794960022,-11.491999626159668,-0.3140000104904174,-9.638999938964846,1.128000020980835
1621935698334,4.690000057220459,0.3030000030994415,-11.390999794006348,-0.3140000104904174,-9.678000450134276,1.121999979019165
1621935698344,4.829999923706055,0.4850000143051147,-11.215999603271484,-0.2750000059604644,-9.70300006866455,1.037999987602234
1621935698354,4.340000152587891,0.0390000008046627,-11.508000373840332,-0.2349999994039535,-9.819000244140623,1.0169999599456787
1621935698364,3.0799999237060547,0.1319999992847442,-11.633999824523926,-0.1570000052452087,-9.78499984741211,0.8240000009536743
1621935698374,1.8200000524520872,-0.0260000005364418,-11.946000099182127,-0.1180000007152557,-9.869000434875488,0.8489999771118164
1621935698384,0.4900000095367431,-0.2370000034570694,-11.557000160217283,-0.1180000007152557,-9.829999923706056,0.856000006198883
1621935698394,-1.1200000047683716,-0.3300000131130218,-11.430999755859377,-0.1180000007152557,-9.869000434875488,0.8489999771118164
1621935698404,-2.5199999809265137,-0.1840000003576278,-12.258000373840332,-0.1180000007152557,-9.822999954223633,0.8169999718666076
1621935698414,-3.359999895095825,-0.2010000050067901,-12.972000122070312,-0.0780000016093254,-9.770999908447264,0.746999979019165
1621935698424,-3.849999904632568,0.0390000008046627,-12.715999603271484,-0.0780000016093254,-9.725000381469728,0.7149999737739563
1621935698434,-4.690000057220459,0.164000004529953,-12.623000144958496,-0.0780000016093254,-9.718999862670898,0.6759999990463256
1621935698444,-5.25,0.5130000114440918,-12.98799991607666,-0.0390000008046627,-9.704999923706056,0.5989999771118164
1621935698454,-5.110000133514404,0.9829999804496764,-14.04300022125244,0.0,-9.737000465393066,0.5540000200271606
1621935698464,-5.005000114440918,1.368499994277954,-14.614500045776367,0.0,-9.776000022888184,0.5469999909400939
1621935698474,-4.900000095367432,1.7539999485015867,-15.185999870300291,0.0390000008046627,-9.814000129699709,0.5400000214576721
1621935698484,-5.039999961853027,2.3940000534057617,-15.996999740600586,0.0780000016093254,-9.807000160217283,0.5009999871253967
1621935698494,-5.25,2.638000011444092,-16.167999267578125,0.1570000052452087,-9.878000259399414,0.4490000009536743
1621935698504,-5.25,2.621000051498413,-15.67300033569336,0.1959999948740005,-9.940999984741213,0.3580000102519989
1621935698514,-5.460000038146973,2.9579999446868896,-14.76099967956543,0.2349999994039535,-9.972999572753906,0.3129999935626983
1621935698524,-5.739999771118164,3.0190000534057617,-13.897000312805176,0.3140000104904174,-10.050999641418455,0.2989999949932098
1621935698534,-6.159999847412109,3.0840001106262207,-13.458999633789064,0.3529999852180481,-10.043999671936035,0.2599999904632568
1621935698544,-6.650000095367432,2.9700000286102295,-13.621000289916992,0.3529999852180481,-10.043999671936035,0.2599999904632568
1621935698554,-6.440000057220459,3.0880000591278076,-13.885000228881836,0.3919999897480011,-9.998000144958496,0.2290000021457672
1621935698564,-6.650000095367432,3.371999979019165,-13.479000091552734,0.4309999942779541,-9.998000144958496,0.2290000021457672
1621935698574,-6.579999923706055,3.6719999313354497,-13.569000244140623,0.4709999859333038,-9.960000038146973,0.2349999994039535
1621935698584,-6.090000152587891,3.553999900817871,-13.30500030517578,0.4309999942779541,-9.946000099182127,0.1580000072717666
1621935698594,-5.670000076293945,3.8589999675750737,-12.612000465393066,0.4309999942779541,-10.02299976348877,0.1449999958276748
1621935698604,-5.039999961853027,4.24399995803833,-11.975000381469728,0.3919999897480011,-9.991000175476074,0.1899999976158142
1621935698614,-4.900000095367432,4.175000190734863,-11.987000465393066,0.3919999897480011,-9.869000434875488,0.1720000058412551
1621935698624,-4.480000019073486,4.171000003814697,-12.770000457763672,0.4309999942779541,-9.836999893188477,0.2169999927282333
1621935698634,-4.409999847412109,4.15500020980835,-12.274999618530272,0.3919999897480011,-9.760000228881836,0.231000006198883
1621935698644,-4.375,4.116499900817871,-11.855499267578123,0.4309999942779541,-9.760000228881836,0.231000006198883
1621935698654,-4.340000152587891,4.078000068664551,-11.435999870300291,0.3529999852180481,-9.71399974822998,0.1990000009536743
1621935698664,-4.480000019073486,4.14300012588501,-10.998000144958496,0.3529999852180481,-9.970999717712402,0.0740000009536743
1621935698674,-5.179999828338623,4.195000171661377,-10.491000175476074,0.3919999897480011,-10.05500030517578,0.0989999994635581
1621935698684,-5.25,4.228000164031982,-9.062999725341797,0.3919999897480011,-9.939000129699709,0.1199999973177909
1621935698694,-4.619999885559082,3.8059999942779545,-8.28499984741211,0.3529999852180481,-9.862000465393066,0.1330000013113021
1621935698704,-4.690000057220459,3.4660000801086426,-9.979999542236328,0.4309999942779541,-9.869000434875488,0.1720000058412551
1621935698714,-5.039999961853027,3.3239998817443848,-10.786999702453612,0.4709999859333038,-9.829999923706056,0.1790000051259994
1621935698724,-5.460000038146973,2.6989998817443848,-9.262000083923342,0.5099999904632568,-9.829999923706056,0.1790000051259994
1621935698734,-6.440000057220459,1.0329999923706057,-7.067999839782715,0.5099999904632568,-9.822999954223633,0.1400000005960464
1621935698744,-7.280000209808349,-0.4269999861717224,-6.046000003814697,0.5099999904632568,-9.746000289916992,0.1539999991655349
1621935698754,-8.399999618530273,-2.1089999675750732,-5.77400016784668,0.4709999859333038,-9.746000289916992,0.1539999991655349
1621935698764,-9.100000381469728,-3.6059999465942383,-5.754000186920166,0.5490000247955322,-9.637000083923342,0.2129999995231628
1621935698774,-9.9399995803833,-5.283999919891357,-5.9070000648498535,0.5099999904632568,-9.527999877929688,0.2720000147819519
1621935698784,-10.850000381469728,-7.280000209808349,-6.685999870300293,0.4309999942779541,-9.482000350952148,0.2399999946355819
1621935698794,-11.340000152587892,-9.206000328063965,-6.243000030517578,0.3529999852180481,-9.451000213623049,0.2849999964237213
1621935698804,-11.619999885559082,-10.592000007629396,-5.635000228881836,0.2750000059604644,-9.482000350952148,0.2399999946355819
1621935698814,-11.829999923706056,-11.39900016784668,-5.493000030517578,0.1959999948740005,-9.482000350952148,0.2399999946355819
1621935698824,-12.390000343322754,-11.578000068664553,-4.885000228881836,0.0780000016093254,-9.482000350952148,0.2399999946355819
1621935698834,-12.949999809265137,-11.654999732971191,-4.045000076293945,0.0390000008046627,-9.553000450134276,0.1879999935626983
1621935698844,-13.159999847412108,-11.674999237060549,-3.7290000915527344,0.0,-9.585000038146973,0.1420000046491622
1621935698854,-13.369999885559082,-11.69499969482422,-3.413000106811523,0.0,-9.668999671936035,0.1669999957084655
1621935698864,-13.859999656677246,-11.305999755859377,-3.2019999027252197,-0.0390000008046627,-9.78499984741211,0.1469999998807907
1621935698874,-13.93000030517578,-11.375,-3.2139999866485596,-0.0780000016093254,-9.901000022888184,0.1260000020265579
1621935698884,-13.159999847412108,-11.050000190734863,-3.440999984741211,-0.1180000007152557,-9.939000129699709,0.1199999973177909
1621935698894,-11.970000267028809,-10.810999870300291,-4.394000053405762,-0.1180000007152557,-9.946000099182127,0.1580000072717666
1621935698904,-10.56999969482422,-10.928999900817873,-5.339000225067139,-0.1180000007152557,-9.836999893188477,0.2169999927282333
1621935698914,-9.029999732971191,-10.782999992370604,-6.165999889373779,-0.1959999948740005,-9.71399974822998,0.1990000009536743
1621935698924,-7.139999866485596,-10.048999786376951,-7.103000164031982,-0.2349999994039535,-9.64400005340576,0.2509999871253967
1621935698934,-5.320000171661377,-9.383999824523924,-8.052000045776367,-0.2349999994039535,-9.496000289916992,0.31700000166893
1621935698944,-3.990000009536743,-8.053999900817871,-8.741000175476074,-0.2349999994039535,-9.496000289916992,0.31700000166893
1621935698954,-3.2200000286102295,-6.573999881744385,-8.267000198364258,-0.2750000059604644,-9.380000114440918,0.3379999995231628
1621935698964,-2.5899999141693115,-4.624000072479248,-8.847000122070312,-0.2349999994039535,-9.335000038146973,0.3059999942779541
1621935698974,-1.8899999856948853,-2.686000108718872,-9.359000205993652,-0.1570000052452087,-9.335000038146973,0.3059999942779541
1621935698984,-1.75,-0.4639999866485595,-10.67300033569336,-0.1180000007152557,-9.373000144958496,0.2989999949932098
1621935698994,-1.75,1.4179999828338623,-11.265000343322754,-0.0780000016093254,-9.451000213623049,0.2849999964237213
1621935699004,-2.309999942779541,2.7839999198913574,-10.953000068664553,-0.0390000008046627,-9.5600004196167,0.2259999960660934
1621935699014,-2.940000057220459,4.271999835968018,-11.329999923706056,0.0,-9.668999671936035,0.1669999957084655
1621935699024,-3.430000066757202,5.136000156402588,-11.390999794006348,0.0780000016093254,-9.815999984741213,0.101000003516674
1621935699034,-4.340000152587891,6.11299991607666,-11.289999961853027,0.1570000052452087,-9.977999687194824,0.1129999980330467
1621935699044,-4.829999923706055,6.559000015258789,-10.998000144958496,0.1570000052452087,-10.079999923706056,0.0149999996647238
1621935699054,-5.110000133514404,6.692999839782715,-10.54800033569336,0.1959999948740005,-10.203000068664553,0.032999999821186
1621935699064,-5.144999980926514,6.721499919891357,-10.50749969482422,0.1959999948740005,-10.227999687194824,-0.0509999990463256
1621935699074,-5.179999828338623,6.75,-10.467000007629396,0.1959999948740005,-10.234999656677246,-0.0120000001043081
1621935699084,-4.900000095367432,6.664999961853027,-9.984000205993652,0.1959999948740005,-10.196000099182127,-0.0049999998882412
1621935699094,-4.340000152587891,6.765999794006348,-9.753000259399414,0.2349999994039535,-10.041000366210936,0.0219999998807907
1621935699104,-3.0799999237060547,6.863999843597412,-9.095999717712402,0.2349999994039535,-9.932000160217283,0.0810000002384185
1621935699114,-2.0999999046325684,6.584000110626221,-8.718999862670898,0.2349999994039535,-9.777999877929688,0.1080000028014183
1621935699124,-1.190000057220459,6.564000129699707,-7.798999786376954,0.2349999994039535,-9.661999702453612,0.1289999932050705
1621935699134,-0.4199999868869781,6.236000061035156,-7.145999908447266,0.2750000059604644,-9.553000450134276,0.1879999935626983
1621935699144,0.1400000005960464,6.0980000495910645,-7.170000076293945,0.2349999994039535,-9.47599983215332,0.2010000050067901
1621935699154,0.209999993443489,5.436999797821045,-6.646999835968018,0.2349999994039535,-9.437000274658203,0.2080000042915344
1621935699164,0.5600000023841857,4.815999984741211,-6.75600004196167,0.2750000059604644,-9.418999671936035,0.3310000002384185
1621935699174,0.9800000190734864,4.519999980926514,-7.0929999351501465,0.2750000059604644,-9.411999702453612,0.2919999957084655
1621935699184,1.0499999523162842,4.053999900817871,-7.672999858856201,0.2750000059604644,-9.411999702453612,0.2919999957084655
1621935699194,1.1200000047683716,3.989000082015991,-8.111000061035156,0.2750000059604644,-9.444000244140623,0.2469999939203262
1621935699204,0.7699999809265136,3.8190000057220455,-8.354000091552734,0.2349999994039535,-9.553000450134276,0.1879999935626983
1621935699214,0.699999988079071,4.123000144958496,-8.869000434875488,0.2349999994039535,-9.585000038146973,0.1420000046491622
1621935699224,0.8399999737739563,4.321000099182129,-9.189000129699709,0.2349999994039535,-9.661999702453612,0.1289999932050705
1621935699234,0.9800000190734864,4.705999851226807,-9.76099967956543,0.3140000104904174,-9.71399974822998,0.1990000009536743
1621935699244,1.0499999523162842,5.006999969482422,-9.850000381469728,0.2750000059604644,-9.829999923706056,0.1790000051259994
1621935699254,1.399999976158142,5.359000205993652,-9.43299961090088,0.2750000059604644,-9.87600040435791,0.209999993443489
1621935699264,1.399999976158142,5.460999965667725,-9.20199966430664,0.2750000059604644,-9.913999557495115,0.2039999961853027
1621935699274,1.6100000143051147,5.63100004196167,-8.958000183105469,0.2750000059604644,-9.998000144958496,0.2290000021457672
1621935699284,1.6100000143051147,6.0289998054504395,-8.390999794006348,0.2750000059604644,-9.998000144958496,0.2290000021457672
1621935699294,0.9100000262260436,6.373000144958496,-8.329999923706055,0.2349999994039535,-9.939000129699709,0.1199999973177909
1621935699304,0.9100000262260436,6.624500274658203,-8.143499374389648,0.1959999948740005,-10.02299976348877,0.1449999958276748
1621935699314,0.9100000262260436,6.875999927520752,-7.956999778747559,0.1570000052452087,-10.015999794006348,0.1059999987483024
1621935699324,0.5600000023841857,7.204999923706055,-7.401000022888184,0.1570000052452087,-10.02299976348877,0.1449999958276748
1621935699334,-0.2800000011920929,7.982999801635742,-6.980000019073486,0.1180000007152557,-10.02299976348877,0.1449999958276748
1621935699344,-1.3300000429153442,8.376999855041504,-5.986000061035156,0.0390000008046627,-10.015999794006348,0.1059999987483024
1621935699354,-2.0999999046325684,8.892000198364258,-5.682000160217285,0.0390000008046627,-9.901000022888184,0.1260000020265579
1621935699364,-2.940000057220459,9.512000083923342,-5.572999954223633,0.0780000016093254,-9.815999984741213,0.101000003516674
1621935699374,-3.6400001049041744,10.298999786376951,-4.794000148773193,0.0780000016093254,-9.777999877929688,0.1080000028014183
1621935699384,-3.9200000762939458,10.984000205993652,-4.247000217437744,0.1180000007152557,-9.73900032043457,0.1150000020861625
1621935699394,-3.990000009536743,11.248000144958496,-4.130000114440918,0.1570000052452087,-9.661999702453612,0.1289999932050705
1621935699404,-3.9200000762939458,11.078000068664553,-4.373000144958496,0.1570000052452087,-9.609999656677246,0.0579999983310699
1621935699414,-3.359999895095825,11.369999885559082,-4.818999767303467,0.1959999948740005,-9.571000099182127,0.0649999976158142
1621935699424,-2.869999885559082,10.968000411987305,-4.960999965667725,0.1959999948740005,-9.571000099182127,0.0649999976158142
1621935699433,-2.380000114440918,10.55799961090088,-5.459000110626221,0.1959999948740005,-9.616999626159668,0.0970000028610229
1621935699443,-1.3300000429153442,10.428999900817873,-6.335000038146973,0.1959999948740005,-9.609999656677246,0.0579999983310699
1621935699453,-0.8399999737739563,10.32699966430664,-6.565999984741211,0.1959999948740005,-9.616999626159668,0.0970000028610229
1621935699463,-0.4199999868869781,10.505000114440918,-7.175000190734863,0.1570000052452087,-9.642000198364256,0.0130000002682209
1621935699473,0.1400000005960464,10.45699977874756,-6.89900016784668,0.1570000052452087,-9.694000244140623,0.0829999968409538
1621935699483,0.5600000023841857,10.359000205993652,-7.556000232696533,0.1959999948740005,-9.732000350952148,0.0759999975562095
1621935699493,1.2599999904632568,10.630999565124512,-7.080999851226807,0.1959999948740005,-9.8100004196167,0.0630000010132789
1621935699503,1.1200000047683716,10.96399974822998,-6.952000141143799,0.1959999948740005,-9.8100004196167,0.0630000010132789
1621935699513,0.7699999809265136,10.906999588012695,-7.0329999923706055,0.1959999948740005,-9.854999542236328,0.0949999988079071
1621935699523,0.6299999952316284,10.88700008392334,-7.32100009918213,0.1959999948740005,-9.847999572753906,0.0560000017285346
1621935699533,0.0700000002980232,11.069000244140623,-7.145999908447266,0.1959999948740005,-9.770999908447264,0.0700000002980232
1621935699543,-0.0350000001490116,10.914999961853027,-6.675999641418457,0.2349999994039535,-9.770999908447264,0.0700000002980232
1621935699553,-0.1400000005960464,10.76099967956543,-6.205999851226807,0.1959999948740005,-9.770999908447264,0.0700000002980232
1621935699563,-0.0700000002980232,10.619000434875488,-5.803999900817871,0.2349999994039535,-9.73900032043457,0.1150000020861625
1621935699573,0.2800000011920929,10.387999534606934,-5.703000068664551,0.1959999948740005,-9.73900032043457,0.1150000020861625
1621935699583,0.5600000023841857,10.206000328063965,-5.876999855041504,0.1959999948740005,-9.732000350952148,0.0759999975562095
1621935699593,0.6299999952316284,10.583000183105469,-5.5970001220703125,0.1180000007152557,-9.694000244140623,0.0829999968409538
1621935699603,0.7699999809265136,10.765000343322754,-5.422999858856201,0.1570000052452087,-9.694000244140623,0.0829999968409538
1621935699613,1.0499999523162842,11.137999534606934,-5.926000118255615,0.1570000052452087,-9.73900032043457,0.1150000020861625
1621935699623,1.0499999523162842,11.105999946594238,-6.144999980926514,0.1959999948740005,-9.73900032043457,0.1150000020861625
1621935699633,0.9800000190734864,10.89900016784668,-6.181000232696533,0.1959999948740005,-9.73900032043457,0.1150000020861625
1621935699643,0.9800000190734864,10.659999847412108,-6.436999797821045,0.1959999948740005,-9.732000350952148,0.0759999975562095
1621935699653,0.699999988079071,10.088000297546388,-6.822000026702881,0.1959999948740005,-9.777999877929688,0.1080000028014183
1621935699663,0.6299999952316284,9.861000061035156,-7.145999908447266,0.1959999948740005,-9.732000350952148,0.0759999975562095
1621935699673,0.4900000095367431,9.682000160217283,-7.745999813079834,0.1570000052452087,-9.701000213623049,0.1220000013709068
1621935699683,0.6299999952316284,9.166999816894531,-8.050000190734863,0.1570000052452087,-9.73900032043457,0.1150000020861625
1621935699693,0.6299999952316284,9.248000144958496,-8.107000350952148,0.1570000052452087,-9.73900032043457,0.1150000020861625
1621935699703,0.9100000262260436,9.109999656677246,-8.131999969482422,0.1570000052452087,-9.791000366210936,0.1850000023841857
1621935699713,1.190000057220459,9.166999816894531,-8.050000190734863,0.1570000052452087,-9.78499984741211,0.1469999998807907
1621935699723,1.1200000047683716,8.904000282287598,-8.168000221252441,0.1180000007152557,-9.829999923706056,0.1790000051259994
1621935699733,1.2599999904632568,8.878999710083008,-8.029999732971191,0.1180000007152557,-9.829999923706056,0.1790000051259994
1621935699743,1.190000057220459,8.835000038146973,-8.180000305175781,0.1570000052452087,-9.822999954223633,0.1400000005960464
1621935699753,1.3300000429153442,9.062000274658203,-7.855999946594238,0.1570000052452087,-9.822999954223633,0.1400000005960464
1621935699763,0.8399999737739563,8.907999992370605,-7.385000228881835,0.1180000007152557,-9.791000366210936,0.1850000023841857
1621935699773,0.3499999940395355,8.717000007629395,-6.708000183105469,0.1180000007152557,-9.753000259399414,0.19200000166893
1621935699783,0.4199999868869781,8.734000205993652,-5.99399995803833,0.1180000007152557,-9.753000259399414,0.19200000166893
1621935699793,0.3499999940395355,8.69950008392334,-6.000499725341797,0.1180000007152557,-9.753000259399414,0.19200000166893
1621935699803,0.2800000011920929,8.664999961853027,-6.006999969482422,0.0780000016093254,-9.720999717712402,0.2380000054836273
1621935699813,0.209999993443489,8.63599967956543,-6.651000022888184,0.0780000016093254,-9.760000228881836,0.231000006198883
1621935699823,0.4900000095367431,8.628000259399414,-7.007999897003174,0.1180000007152557,-9.76599979400635,0.2689999938011169
1621935699833,0.3499999940395355,8.859000205993652,-7.110000133514404,0.0780000016093254,-9.76599979400635,0.2689999938011169
1621935699843,0.9100000262260436,8.9399995803833,-7.165999889373779,0.0,-9.812000274658203,0.3009999990463256
1621935699853,1.190000057220459,9.053999900817873,-7.004000186920166,-0.0390000008046627,-9.819000244140623,0.3400000035762786
1621935699863,1.1200000047683716,9.211999893188477,-6.691999912261963,-0.0390000008046627,-9.85099983215332,0.2949999868869781
1621935699873,0.9800000190734864,9.921999931335447,-6.2829999923706055,-0.0390000008046627,-9.843999862670898,0.2560000121593475
1621935699883,0.1400000005960464,10.359999656677246,-6.3480000495910645,-0.0390000008046627,-9.87600040435791,0.209999993443489
1621935699893,-0.3499999940395355,11.218999862670898,-5.982999801635742,-0.0390000008046627,-9.87600040435791,0.209999993443489
1621935699903,-0.6299999952316284,12.12399959564209,-5.4679999351501465,-0.0390000008046627,-9.87600040435791,0.209999993443489
1621935699913,-0.9100000262260436,12.788999557495115,-5.208000183105469,0.0,-9.836999893188477,0.2169999927282333
1621935699923,-1.399999976158142,13.21399974822998,-5.203999996185303,0.0390000008046627,-9.760000228881836,0.231000006198883
1621935699933,-1.399999976158142,13.30799961090088,-5.329999923706055,0.0,-9.836999893188477,0.2169999927282333
1621935699943,-1.5399999618530271,13.449999809265137,-5.73199987411499,-0.0390000008046627,-9.836999893188477,0.2169999927282333
1621935699953,-1.75,14.005000114440918,-6.059999942779541,-0.1180000007152557,-9.843999862670898,0.2560000121593475
1621935699963,-1.8899999856948853,15.071000099182127,-6.867000102996826,-0.2349999994039535,-9.843999862670898,0.2560000121593475
1621935699973,-2.450000047683716,17.415000915527344,-7.6620001792907715,-0.3529999852180481,-9.928000450134276,0.2809999883174896
1621935699983,-3.0799999237060547,20.48500061035156,-7.334000110626221,-0.6280000209808348,-10.005000114440918,0.2669999897480011
1621935699993,-4.059999942779541,25.24099922180176,-6.495999813079834,-0.981000006198883,-10.005000114440918,0.2669999897480011
1621935700003,-5.25,32.09400177001953,-5.855999946594238,-1.215999960899353,-10.050999641418455,0.2989999949932098
1621935700013,-5.880000114440918,36.16950225830078,-5.38599967956543,-1.5299999713897705,-10.095999717712402,0.3310000002384185
1621935700023,-6.510000228881836,40.244998931884766,-4.915999889373779,-1.8040000200271609,-10.095999717712402,0.3310000002384185
1621935700033,-7.9099998474121085,50.41899871826172,-3.76200008392334,-2.000999927520752,-10.109999656677246,0.4079999923706054
1621935700043,-9.029999732971191,61.68000030517578,-1.9179999828338623,-2.0789999961853027,-10.071000099182127,0.4149999916553497
1621935700053,-9.520000457763674,74.1780014038086,0.5699999928474426,-2.118000030517578,-10.0,0.4670000076293945
1621935700063,-10.710000038146973,86.51000213623047,2.388999938964844,-2.0399999618530273,-10.006999969482422,0.5059999823570251
1621935700073,-10.850000381469728,98.28500366210936,3.328000068664551,-1.843999981880188,-9.92300033569336,0.481000006198883
1621935700083,-11.270000457763672,107.86299896240234,4.235000133514404,-1.569000005722046,-9.807000160217283,0.5009999871253967
1621935700093,-11.409999847412108,116.3219985961914,4.232999801635742,-1.2940000295639038,-9.83899974822998,0.4560000002384185
1621935700103,-11.130000114440918,122.59500122070312,4.13100004196167,-0.981000006198883,-9.83899974822998,0.4560000002384185
1621935700113,-11.0600004196167,126.56099700927734,3.4089999198913574,-0.6669999957084655,-9.762000083923342,0.4690000116825103
1621935700123,-10.56999969482422,128.4499969482422,1.9650000333786013,-0.3919999897480011,-9.762000083923342,0.4690000116825103
1621935700133,-9.800000190734863,129.11900329589844,0.5899999737739563,-0.1180000007152557,-9.67099952697754,0.4059999883174896
1621935700143,-9.029999732971191,128.3769989013672,-0.0379999987781047,0.1180000007152557,-9.612000465393066,0.2969999909400939
1621935700153,-8.119999885559082,125.72499847412108,-0.7189999818801879,0.3529999852180481,-9.565999984741213,0.2649999856948852
1621935700163,-7.210000038146973,121.70200347900392,-2.494999885559082,0.5879999995231628,-9.592000007629396,0.1809999942779541
1621935700173,-5.880000114440918,116.46700286865234,-3.8440001010894775,0.7450000047683715,-9.57800006866455,0.1040000021457672
1621935700183,-4.829999923706055,110.29900360107422,-5.144999980926514,0.9020000100135804,-9.57800006866455,0.1040000021457672
1621935700193,-3.990000009536743,104.11499786376952,-5.951000213623047,0.9409999847412108,-9.602999687194824,0.0199999995529651
1621935700203,-3.7799999713897705,97.9800033569336,-7.0329999923706055,0.9409999847412108,-9.635000228881836,-0.0260000005364418
1621935700213,-3.2200000286102295,92.64700317382812,-7.830999851226807,0.9409999847412108,-9.65999984741211,-0.1099999994039535
1621935700223,-3.1500000953674316,88.08999633789062,-7.782000064849853,0.8629999756813049,-9.697999954223633,-0.1169999986886978
1621935700233,-3.2899999618530273,85.77649688720702,-7.763000011444091,0.8629999756813049,-9.729999542236328,-0.1620000004768371
1621935700243,-3.430000066757202,83.46299743652344,-7.743999958038329,0.8240000009536743,-9.722999572753906,-0.2010000050067901
1621935700253,-3.359999895095825,78.93699645996094,-7.47599983215332,0.8629999756813049,-9.737000465393066,-0.123999997973442
1621935700263,-3.7799999713897705,74.75299835205078,-7.929999828338623,0.8629999756813049,-9.755000114440918,-0.2460000067949295
1621935700273,-4.409999847412109,70.00399780273438,-8.411999702453613,0.8240000009536743,-9.70300006866455,-0.31700000166893
1621935700283,-4.409999847412109,65.98200225830078,-8.979000091552734,0.7450000047683715,-9.727999687194824,-0.4009999930858612
1621935700293,-4.480000019073486,62.06399917602539,-9.741000175476074,0.7450000047683715,-9.696000099182127,-0.3549999892711639
1621935700303,-4.760000228881836,58.5359992980957,-10.291999816894531,0.7059999704360961,-9.689000129699709,-0.3939999938011169
1621935700313,-4.550000190734863,54.875,-10.083999633789062,0.7059999704360961,-9.689000129699709,-0.3939999938011169
1621935700323,-4.340000152587891,51.46500015258789,-9.6899995803833,0.6280000209808348,-9.651000022888184,-0.3869999945163726
1621935700333,-3.9200000762939458,48.1349983215332,-9.352999687194824,0.5879999995231628,-9.64400005340576,-0.4259999990463256
1621935700343,-3.569999933242798,45.7760009765625,-9.272000312805178,0.5099999904632568,-9.612000465393066,-0.3799999952316284
1621935700353,-2.6600000858306885,43.7239990234375,-8.92300033569336,0.4709999859333038,-9.56700038909912,-0.4120000004768371
1621935700363,-1.8899999856948853,41.83399963378906,-8.687999725341797,0.3919999897480011,-9.604999542236328,-0.4189999997615814
1621935700373,-1.1200000047683716,40.43899917602539,-8.435999870300293,0.3529999852180481,-9.64400005340576,-0.4259999990463256
1621935700383,-0.4900000095367431,39.02399826049805,-8.472000122070312,0.3919999897480011,-9.637000083923342,-0.4639999866485595
1621935700393,-0.0700000002980232,37.74300003051758,-8.057999610900879,0.3529999852180481,-9.682000160217283,-0.4329999983310699
1621935700403,0.209999993443489,36.542999267578125,-7.701000213623046,0.3140000104904174,-9.727999687194824,-0.4009999930858612
1621935700413,-0.0700000002980232,35.95500183105469,-7.592000007629395,0.3529999852180481,-9.682000160217283,-0.4329999983310699
1621935700423,-0.1400000005960464,34.92900085449219,-7.416999816894531,0.2750000059604644,-9.720999717712402,-0.4390000104904174
1621935700433,-0.4199999868869781,34.07699966430664,-7.425000190734864,0.2750000059604644,-9.79800033569336,-0.453000009059906
1621935700443,-0.9100000262260436,33.49700164794922,-6.959000110626221,0.2349999994039535,-9.80500030517578,-0.414000004529953
1621935700453,-1.399999976158142,33.590999603271484,-7.085000038146973,0.1959999948740005,-9.80500030517578,-0.414000004529953
1621935700463,-1.3650000095367432,33.3594970703125,-6.983500003814697,0.1570000052452087,-9.79800033569336,-0.453000009059906
1621935700473,-1.3300000429153442,33.12799835205078,-6.881999969482422,0.0780000016093254,-9.836999893188477,-0.4600000083446502
1621935700483,-2.0299999713897705,32.722999572753906,-6.5980000495910645,0.0390000008046627,-9.80500030517578,-0.414000004529953
1621935700493,-2.380000114440918,33.319000244140625,-6.35099983215332,-0.0390000008046627,-9.80500030517578,-0.414000004529953
1621935700503,-2.5899999141693115,34.757999420166016,-6.452000141143799,-0.0780000016093254,-9.812000274658203,-0.3759999871253967
1621935700513,-3.0799999237060547,35.71500015258789,-6.638999938964844,-0.0780000016093254,-9.857000350952148,-0.3440000116825103
1621935700523,-3.569999933242798,37.39400100708008,-6.485000133514404,-0.1570000052452087,-9.857000350952148,-0.3440000116825103
1621935700533,-4.269999980926514,39.7140007019043,-5.934000015258789,-0.1959999948740005,-9.857000350952148,-0.3440000116825103
1621935700543,-4.619999885559082,41.948001861572266,-6.109000205993652,-0.1959999948740005,-9.812000274658203,-0.3759999871253967
1621935700553,-5.110000133514404,44.02000045776367,-6.170000076293945,-0.1180000007152557,-9.772999763488768,-0.3689999878406524
1621935700563,-5.25,45.76800155639648,-6.004000186920166,-0.0780000016093254,-9.772999763488768,-0.3689999878406524
1621935700573,-5.179999828338623,47.06100082397461,-5.2779998779296875,-0.0390000008046627,-9.734999656677246,-0.3619999885559082
1621935700583,-4.96999979019165,47.96599960327149,-4.763000011444092,0.0390000008046627,-9.696000099182127,-0.3549999892711639
1621935700593,-4.409999847412109,47.79999923706055,-4.223999977111816,0.1180000007152557,-9.64400005340576,-0.4259999990463256
1621935700603,-3.990000009536743,47.38600158691406,-4.296999931335449,0.1959999948740005,-9.682000160217283,-0.4329999983310699
1621935700613,-3.359999895095825,47.09400177001953,-3.8510000705718994,0.2349999994039535,-9.682000160217283,-0.4329999983310699
1621935700623,-2.5199999809265137,46.332000732421875,-3.559000015258789,0.3140000104904174,-9.630000114440918,-0.5030000209808348
1621935700633,-2.240000009536743,45.06700134277344,-3.6400001049041744,0.3919999897480011,-9.675999641418455,-0.4709999859333038
1621935700643,-2.0999999046325684,43.5260009765625,-3.7690000534057617,0.3529999852180481,-9.732000350952148,-0.6010000109672546
1621935700653,-1.75,42.005001068115234,-3.611000061035156,0.3919999897480011,-9.73900032043457,-0.5619999766349792
1621935700663,-1.75,40.233001708984375,-3.638999938964844,0.3919999897480011,-9.746000289916992,-0.5239999890327453
1621935700673,-2.240000009536743,38.71699905395508,-3.9059998989105225,0.3919999897480011,-9.73900032043457,-0.5619999766349792
1621935700683,-1.9600000381469729,36.46200180053711,-4.019999980926514,0.4309999942779541,-9.73900032043457,-0.5619999766349792
1621935700693,-2.0299999713897705,35.63249969482422,-3.952499866485596,0.4309999942779541,-9.777999877929688,-0.5690000057220459
1621935700703,-2.0999999046325684,34.803001403808594,-3.884999990463257,0.4309999942779541,-9.8100004196167,-0.6140000224113464
1621935700713,-2.380000114440918,32.974998474121094,-3.994999885559082,0.4309999942779541,-9.847999572753906,-0.6209999918937683
1621935700723,-2.5199999809265137,31.413000106811523,-4.4120001792907715,0.4309999942779541,-9.842000007629396,-0.6600000262260437
1621935700733,-2.940000057220459,29.666000366210938,-4.578000068664551,0.3919999897480011,-9.842000007629396,-0.6600000262260437
1621935700743,-3.009999990463257,28.27899932861328,-5.177999973297119,0.3529999852180481,-9.842000007629396,-0.6600000262260437
1621935700753,-3.359999895095825,26.81100082397461,-5.7210001945495605,0.3140000104904174,-9.842000007629396,-0.6600000262260437
1621935700763,-3.849999904632568,25.68400001525879,-5.7779998779296875,0.2750000059604644,-9.842000007629396,-0.6600000262260437
1621935700773,-3.849999904632568,24.38599967956543,-6.078000068664551,0.2349999994039535,-9.82800006866455,-0.7369999885559082
1621935700783,-4.059999942779541,23.457000732421875,-6.454999923706055,0.2349999994039535,-9.803000450134276,-0.652999997138977
1621935700793,-4.199999809265137,23.20599937438965,-6.640999794006348,0.2349999994039535,-9.758000373840332,-0.6850000023841857
1621935700803,-4.340000152587891,22.804000854492188,-6.7829999923706055,0.2349999994039535,-9.758000373840332,-0.6850000023841857
1621935700813,-4.199999809265137,22.34600067138672,-7.00600004196167,0.2349999994039535,-9.75100040435791,-0.7239999771118164
1621935700823,-4.340000152587891,21.499000549316406,-7.440000057220459,0.2349999994039535,-9.744000434875488,-0.762000024318695
1621935700833,-4.199999809265137,21.084999084472656,-7.513000011444091,0.2750000059604644,-9.782999992370604,-0.7689999938011169
1621935700843,-4.199999809265137,20.597999572753903,-7.171999931335449,0.3140000104904174,-9.776000022888184,-0.8080000281333923
1621935700853,-4.130000114440918,19.66200065612793,-6.697999954223633,0.2750000059604644,-9.704999923706056,-0.7549999952316284
1621935700863,-3.9200000762939458,18.72100067138672,-7.00600004196167,0.3140000104904174,-9.697999954223633,-0.7940000295639038
1621935700873,-3.009999990463257,17.780000686645508,-7.314000129699707,0.3140000104904174,-9.628000259399414,-0.7419999837875366
1621935700883,-2.6600000858306885,17.415000915527344,-7.6620001792907715,0.3529999852180481,-9.628000259399414,-0.7419999837875366
1621935700893,-2.0999999046325684,16.75,-7.921999931335449,0.3529999852180481,-9.628000259399414,-0.7419999837875366
1621935700903,-1.2599999904632568,15.946999549865724,-8.204999923706055,0.4309999942779541,-9.61400032043457,-0.8190000057220459
1621935700913,-0.9800000190734864,15.24549961090088,-8.257999420166016,0.4709999859333038,-9.61400032043457,-0.8190000057220459
1621935700923,-0.699999988079071,14.543999671936035,-8.310999870300293,0.4709999859333038,-9.621000289916992,-0.7799999713897705
1621935700933,-0.3499999940395355,13.387999534606934,-7.80399990081787,0.4709999859333038,-9.621000289916992,-0.7799999713897705
1621935700943,0.0700000002980232,12.074999809265137,-7.609000205993653,0.5099999904632568,-9.576000213623049,-0.8119999766349792
1621935700953,0.9100000262260436,10.951000213623049,-8.090999603271484,0.5099999904632568,-9.60099983215332,-0.8960000276565551
1621935700963,1.2599999904632568,9.94200038909912,-8.41100025177002,0.5099999904632568,-9.60099983215332,-0.8960000276565551
1621935700973,2.0299999713897705,8.789999961853027,-8.329999923706055,0.5490000247955322,-9.61400032043457,-0.8190000057220459
1621935700983,2.7300000190734863,7.642000198364258,-8.675000190734863,0.5099999904632568,-9.621000289916992,-0.7799999713897705
1621935700993,3.2899999618530273,6.4670000076293945,-8.456000328063965,0.6280000209808348,-9.65999984741211,-0.787000000476837
1621935701003,3.430000066757202,4.61299991607666,-8.427000045776367,0.7059999704360961,-9.65999984741211,-0.787000000476837
1621935701013,3.7100000381469727,2.878000020980835,-8.661999702453613,0.7450000047683715,-9.621000289916992,-0.7799999713897705
1621935701023,4.619999885559082,0.8420000076293945,-8.807999610900879,0.7450000047683715,-9.621000289916992,-0.7799999713897705
1621935701033,5.039999961853027,-1.468999981880188,-9.001999855041504,0.7850000262260437,-9.58899974822998,-0.7350000143051147
1621935701043,5.389999866485596,-4.039999961853027,-8.531000137329102,0.8240000009536743,-9.595999717712402,-0.6959999799728394
1621935701053,5.880000114440918,-6.919000148773193,-8.32800006866455,0.7850000262260437,-9.602999687194824,-0.6579999923706054
1621935701062,6.300000190734863,-9.343999862670898,-8.684000015258789,0.7450000047683715,-9.616999626159668,-0.5799999833106994
1621935701072,6.579999923706055,-10.621000289916992,-8.696000099182129,0.6669999957084655,-9.635000228881836,-0.703000009059906
1621935701082,6.71999979019165,-12.0,-8.9399995803833,0.6280000209808348,-9.687000274658203,-0.6330000162124633
1621935701092,6.789999961853027,-12.770999908447266,-10.213000297546388,0.6280000209808348,-9.732000350952148,-0.6010000109672546
1621935701102,6.579999923706055,-13.460000038146973,-10.333999633789062,0.5879999995231628,-9.73900032043457,-0.5619999766349792
1621935701112,6.159999847412109,-14.246999740600586,-9.904000282287598,0.5490000247955322,-9.73900032043457,-0.5619999766349792
1621935701122,5.845000267028809,-14.443500518798828,-9.796500205993652,0.5490000247955322,-9.732000350952148,-0.6010000109672546
1621935701132,5.53000020980835,-14.640000343322754,-9.689000129699709,0.5099999904632568,-9.73900032043457,-0.5619999766349792
1621935701142,5.179999828338623,-15.260000228881836,-9.798999786376951,0.5099999904632568,-9.746000289916992,-0.5239999890327453
1621935701152,5.039999961853027,-15.75100040435791,-9.031999588012695,0.4709999859333038,-9.71399974822998,-0.4779999852180481
1621935701162,4.96999979019165,-16.302000045776367,-9.130000114440918,0.4309999942779541,-9.70699977874756,-0.5170000195503234
1621935701172,4.829999923706055,-16.820999145507812,-9.008000373840332,0.4309999942779541,-9.71399974822998,-0.4779999852180481
1621935701182,4.760000228881836,-16.934999465942383,-9.170000076293944,0.4309999942779541,-9.71399974822998,-0.4779999852180481
1621935701192,4.829999923706055,-16.520999908447266,-9.097000122070312,0.4309999942779541,-9.623000144958496,-0.5419999957084655
1621935701202,4.480000019073486,-16.577999114990234,-9.178000450134276,0.3919999897480011,-9.592000007629396,-0.4959999918937683
1621935701212,4.409999847412109,-16.45199966430664,-9.085000038146973,0.3529999852180481,-9.592000007629396,-0.4959999918937683
1621935701222,4.480000019073486,-16.395999908447266,-9.003999710083008,0.3529999852180481,-9.572999954223633,-0.3740000128746032
1621935701232,4.269999980926514,-16.11199951171875,-8.597999572753906,0.3140000104904174,-9.572999954223633,-0.3740000128746032
1621935701242,4.130000114440918,-16.124000549316406,-8.529000282287598,0.2349999994039535,-9.579999923706056,-0.3350000083446502
1621935701252,3.849999904632568,-15.855999946594238,-8.838000297546387,0.2750000059604644,-9.586999893188477,-0.2960000038146972
1621935701262,3.990000009536743,-15.406000137329102,-8.972000122070312,0.2750000059604644,-9.579999923706056,-0.3350000083446502
1621935701272,3.7100000381469727,-15.060999870300291,-8.91100025177002,0.2750000059604644,-9.62600040435791,-0.3030000030994415
1621935701282,3.7100000381469727,-14.984000205993652,-8.541999816894531,0.3140000104904174,-9.619000434875488,-0.3420000076293945
1621935701292,3.430000066757202,-14.972000122070312,-8.611000061035156,0.2750000059604644,-9.663999557495115,-0.3100000023841857
1621935701302,3.5,-14.55500030517578,-8.96399974822998,0.2349999994039535,-9.619000434875488,-0.3420000076293945
1621935701312,3.2200000286102295,-14.854999542236328,-8.87399959564209,0.2349999994039535,-9.663999557495115,-0.3100000023841857
1621935701322,3.009999990463257,-14.803999900817873,-8.758499145507812,0.1570000052452087,-9.663999557495115,-0.3100000023841857
1621935701332,2.799999952316284,-14.753000259399414,-8.642999649047852,0.2349999994039535,-9.63199996948242,-0.2649999856948852
1621935701342,2.240000009536743,-14.37600040435791,-9.571999549865724,0.1959999948740005,-9.67099952697754,-0.2709999978542327
1621935701352,2.0299999713897705,-14.267000198364258,-10.19200038909912,0.2349999994039535,-9.656999588012695,-0.3490000069141387
1621935701362,1.6799999475479126,-14.453000068664553,-9.940999984741213,0.1959999948740005,-9.579999923706056,-0.3350000083446502
1621935701372,1.6100000143051147,-14.793999671936035,-9.218999862670898,0.1570000052452087,-9.586999893188477,-0.2960000038146972
1621935701382,1.4700000286102295,-15.130000114440918,-8.92300033569336,0.1180000007152557,-9.663999557495115,-0.3100000023841857
1621935701392,1.4700000286102295,-14.932000160217283,-9.243000030517578,0.0780000016093254,-9.62600040435791,-0.3030000030994415
1621935701402,1.9600000381469729,-14.781999588012695,-9.288000106811523,0.0390000008046627,-9.62600040435791,-0.3030000030994415
1621935701412,2.240000009536743,-14.595000267028809,-9.538999557495115,0.0,-9.63199996948242,-0.2649999856948852
1621935701422,2.6600000858306885,-14.368000030517578,-9.21500015258789,0.0,-9.67099952697754,-0.2709999978542327
1621935701432,3.1500000953674316,-14.092000007629396,-9.166000366210936,0.0,-9.67099952697754,-0.2709999978542327
1621935701442,3.359999895095825,-13.934000015258787,-8.854000091552734,-0.0390000008046627,-9.755000114440918,-0.2460000067949295
1621935701452,3.7100000381469727,-14.109000205993652,-8.67199993133545,-0.0390000008046627,-9.710000038146973,-0.277999997138977
1621935701462,4.059999942779541,-14.590999603271484,-8.756999969482422,0.0,-9.710000038146973,-0.277999997138977
1621935701472,4.480000019073486,-14.854999542236328,-8.87399959564209,-0.0780000016093254,-9.748000144958496,-0.2849999964237213
1621935701482,4.690000057220459,-14.883000373840332,-9.51900005340576,-0.0780000016093254,-9.748000144958496,-0.2849999964237213
1621935701492,4.480000019073486,-15.215999603271484,-9.64900016784668,-0.1180000007152557,-9.786999702453612,-0.2919999957084655
1621935701502,4.480000019073486,-15.321000099182127,-9.45400047302246,-0.1570000052452087,-9.826000213623049,-0.2989999949932098
1621935701512,4.340000152587891,-15.406000137329102,-8.972000122070312,-0.2349999994039535,-9.819000244140623,-0.3370000123977661
1621935701522,4.235000133514404,-15.25,-9.051000595092772,-0.2349999994039535,-9.86400032043457,-0.3050000071525573
1621935701532,4.130000114440918,-15.093999862670898,-9.130000114440918,-0.2750000059604644,-9.83199977874756,-0.2599999904632568
1621935701542,4.619999885559082,-14.98900032043457,-9.324000358581545,-0.2750000059604644,-9.83899974822998,-0.221000000834465
1621935701552,4.96999979019165,-14.644000053405762,-9.263999938964846,-0.3140000104904174,-9.885000228881836,-0.1889999955892562
1621935701562,5.53000020980835,-13.991000175476074,-8.9350004196167,-0.3140000104904174,-9.89099979400635,-0.1509999930858612
1621935701572,6.369999885559082,-13.649999618530272,-8.449000358581543,-0.3529999852180481,-9.93000030517578,-0.1580000072717666
1621935701582,6.929999828338623,-13.16800022125244,-8.36400032043457,-0.3140000104904174,-9.97599983215332,-0.1260000020265579
1621935701592,7.769999980926514,-12.579999923706056,-8.472999572753906,-0.3140000104904174,-9.982000350952148,-0.0869999974966049
1621935701602,8.260000228881836,-12.352999687194824,-8.14900016784668,-0.3140000104904174,-9.918999671936035,0.0040000001899898
1621935701612,8.680000305175781,-11.651000022888184,-8.095999717712402,-0.2750000059604644,-9.918999671936035,0.0040000001899898
1621935701622,8.960000038146973,-11.508999824523926,-8.498000144958496,-0.3140000104904174,-10.112000465393066,-0.0299999993294477
1621935701632,8.260000228881836,-11.241000175476074,-7.597000122070312,-0.2349999994039535,-10.189000129699709,-0.0439999997615814
1621935701642,8.539999961853027,-10.673999786376951,-7.994999885559082,-0.2349999994039535,-10.182000160217283,-0.0829999968409538
1621935701652,7.980000019073486,-10.642000198364258,-8.984000205993652,-0.1180000007152557,-10.227999687194824,-0.0509999990463256
1621935701662,7.139999866485596,-10.491999626159668,-9.029000282287598,-0.0780000016093254,-10.234999656677246,-0.0120000001043081
1621935701672,6.090000152587891,-10.345000267028809,-8.64799976348877,-0.0780000016093254,-10.189000129699709,-0.0439999997615814
1621935701682,5.179999828338623,-10.251999855041504,-8.77400016784668,-0.0390000008046627,-10.189000129699709,-0.0439999997615814
1621935701692,4.550000190734863,-10.645999908447266,-8.559000015258789,0.0390000008046627,-10.189000129699709,-0.0439999997615814
1621935701702,3.990000009536743,-11.038999557495115,-8.343999862670898,0.0390000008046627,-10.144000053405762,-0.0759999975562095
1621935701712,3.569999933242798,-10.949999809265137,-8.043999671936035,0.0780000016093254,-10.079999923706056,0.0149999996647238
1621935701722,3.2899999618530273,-11.02899932861328,-8.199999809265137,0.1180000007152557,-9.98900032043457,-0.0489999987185001
1621935701732,3.009999990463257,-11.107999801635742,-8.355999946594238,0.1180000007152557,-9.866000175476074,-0.06700000166893
1621935701742,2.1700000762939453,-11.005999565124512,-8.125,0.0780000016093254,-9.75699996948242,-0.0080000003799796
1621935701752,1.2599999904632568,-10.892999649047852,-7.961999893188477,0.0780000016093254,-9.635000228881836,-0.0260000005364418
1621935701762,0.3499999940395355,-10.63700008392334,-8.20199966430664,0.0780000016093254,-9.388999938964846,-0.061999998986721
1621935701772,-0.4199999868869781,-9.562999725341797,-8.652000427246094,0.0780000016093254,-9.272999763488768,-0.0419999994337558
1621935701782,-1.0499999523162842,-9.298999786376951,-8.534000396728516,0.1180000007152557,-9.255000114440918,0.0810000002384185
1621935701792,-1.5399999618530271,-8.645999908447266,-8.206000328063965,0.1180000007152557,-9.272999763488768,-0.0419999994337558
1621935701802,-2.309999942779541,-7.9770002365112305,-8.371999740600586,0.1180000007152557,-9.272999763488768,-0.0419999994337558
1621935701812,-2.380000114440918,-7.2270002365112305,-8.595999717712402,0.1180000007152557,-9.30500030517578,-0.0869999974966049
1621935701822,-2.240000009536743,-6.400000095367432,-8.449999809265137,0.1570000052452087,-9.343999862670898,-0.0939999967813491
1621935701832,-2.5199999809265137,-5.706999778747559,-8.753999710083008,0.1570000052452087,-9.35099983215332,-0.0560000017285346
1621935701842,-2.240000009536743,-4.965000152587891,-9.333999633789062,0.1959999948740005,-9.428000450134276,-0.0689999982714653
1621935701852,-1.6100000143051147,-3.9709999561309814,-9.72700023651123,0.2349999994039535,-9.395999908447264,-0.0240000002086162
1621935701862,-0.7699999809265136,-2.746999979019165,-10.222000122070312,0.2750000059604644,-9.44200038909912,0.0080000003799796
1621935701872,-0.1400000005960464,-2.4590001106262207,-10.243000030517578,0.2750000059604644,-9.479999542236328,0.0010000000474974
1621935701882,0.3499999940395355,-2.0820000171661377,-9.963000297546388,0.3529999852180481,-9.51900005340576,-0.0049999998882412
1621935701892,1.190000057220459,-2.2109999656677246,-9.630000114440918,0.3529999852180481,-9.564000129699709,0.0260000005364418
1621935701902,2.240000009536743,-1.5670000314712524,-9.659000396728516,0.3529999852180481,-9.609999656677246,0.0579999983310699
1621935701912,2.869999885559082,-1.218000054359436,-10.02400016784668,0.3529999852180481,-9.616999626159668,0.0970000028610229
1621935701922,3.009999990463257,-1.1105000972747805,-10.431499481201172,0.3529999852180481,-9.661999702453612,0.1289999932050705
1621935701932,3.1500000953674316,-1.003000020980835,-10.83899974822998,0.3919999897480011,-9.777999877929688,0.1080000028014183
1621935701942,3.2899999618530273,-0.4480000138282775,-11.166999816894531,0.4709999859333038,-9.836999893188477,0.2169999927282333
1621935701952,3.1500000953674316,-0.1800000071525573,-11.47599983215332,0.4309999942779541,-9.906999588012695,0.1650000065565109
1621935701962,2.869999885559082,0.3549999892711639,-12.092000007629396,0.3919999897480011,-9.887000083923342,0.0489999987185001
1621935701972,2.5899999141693115,0.7689999938011169,-12.019000053405762,0.4309999942779541,-9.991000175476074,0.1899999976158142
1621935701982,1.8899999856948853,1.4010000228881836,-11.979000091552734,0.4309999942779541,-9.977999687194824,0.1129999980330467
1621935701992,1.0499999523162842,1.7790000438690186,-11.699000358581545,0.4709999859333038,-10.015999794006348,0.1059999987483024
1621935702002,0.8399999737739563,2.260999917984009,-11.61400032043457,0.5490000247955322,-9.984999656677246,0.1509999930858612
1621935702012,0.1400000005960464,2.5,-11.357999801635742,0.5490000247955322,-9.977999687194824,0.1129999980330467
1621935702022,0.0,2.509000062942505,-11.001999855041504,0.5879999995231628,-9.939000129699709,0.1199999973177909
1621935702032,-0.6299999952316284,2.375,-10.243000030517578,0.5879999995231628,-9.932000160217283,0.0810000002384185
1621935702042,-0.9100000262260436,2.4760000705718994,-10.01200008392334,0.5879999995231628,-9.89400005340576,0.0879999995231628
1621935702052,-0.9100000262260436,2.5209999084472656,-9.862000465393066,0.5879999995231628,-9.854999542236328,0.0949999988079071
1621935702062,-0.9800000190734864,2.5899999141693115,-9.850000381469728,0.5879999995231628,-9.854999542236328,0.0949999988079071
1621935702072,-1.399999976158142,2.4110000133514404,-9.241999626159668,0.5879999995231628,-9.815999984741213,0.101000003516674
1621935702082,-1.6799999475479126,1.965999960899353,-8.324999809265137,0.6669999957084655,-9.829999923706056,0.1790000051259994
1621935702092,-1.6799999475479126,1.4179999828338623,-7.639999866485595,0.5879999995231628,-9.862000465393066,0.1330000013113021
1621935702102,-1.6100000143051147,1.3569999933242798,-7.295000076293945,0.5490000247955322,-9.822999954223633,0.1400000005960464
1621935702112,-1.6799999475479126,0.9480000138282776,-6.585000038146973,0.4709999859333038,-9.847999572753906,0.0560000017285346
1621935702122,-1.75,0.9110000133514404,-6.379000186920166,0.4309999942779541,-9.887000083923342,0.0489999987185001
1621935702132,-1.7149999141693115,1.061500072479248,-6.423500061035156,0.3919999897480011,-9.918999671936035,0.0040000001899898
1621935702142,-1.6799999475479126,1.212000012397766,-6.4679999351501465,0.4309999942779541,-9.951000213623049,-0.0419999994337558
1621935702152,-1.8899999856948853,1.2200000286102295,-6.111000061035156,0.3919999897480011,-9.95699977874756,-0.003000000026077
1621935702162,-2.240000009536743,1.0169999599456787,-5.364999771118164,0.3919999897480011,-9.873000144958496,-0.0280000008642673
1621935702172,-2.380000114440918,1.3170000314712524,-5.453999996185303,0.3919999897480011,-9.835000038146973,-0.0209999997168779
1621935702182,-2.450000047683716,1.7999999523162842,-5.36899995803833,0.3529999852180481,-9.82800006866455,-0.0599999986588954
1621935702192,-2.5199999809265137,1.4589999914169312,-5.855999946594238,0.3529999852180481,-9.82800006866455,-0.0599999986588954
1621935702202,-2.5899999141693115,1.4709999561309814,-5.925000190734863,0.3529999852180481,-9.788999557495115,-0.0529999993741512
1621935702212,-2.5199999809265137,1.7920000553131104,-5.72599983215332,0.2750000059604644,-9.75699996948242,-0.0080000003799796
1621935702222,-2.450000047683716,2.2860000133514404,-5.710000038146973,0.2750000059604644,-9.711999893188477,-0.0399999991059303
1621935702232,-1.9600000381469729,2.622999906539917,-6.00600004196167,0.2750000059604644,-9.718999862670898,-0.0010000000474974
1621935702242,-1.5399999618530271,3.0969998836517334,-6.2779998779296875,0.3140000104904174,-9.72599983215332,0.0379999987781047
1621935702252,-1.2599999904632568,3.246999979019165,-6.322000026702881,0.3919999897480011,-9.68000030517578,0.006000000052154
1621935702262,-0.699999988079071,3.003999948501587,-6.1519999504089355,0.4309999942779541,-9.72599983215332,0.0379999987781047
1621935702272,-0.209999993443489,2.2660000324249268,-5.998000144958496,0.4309999942779541,-9.72599983215332,0.0379999987781047
1621935702282,-0.2800000011920929,1.2319999933242798,-6.179999828338623,0.5490000247955322,-9.67300033569336,-0.032999999821186
1621935702292,-0.2800000011920929,-0.0780000016093254,-6.410999774932861,0.5490000247955322,-9.711999893188477,-0.0399999991059303
1621935702302,-0.4900000095367431,-1.2940000295639038,-6.76800012588501,0.5879999995231628,-9.718999862670898,-0.0010000000474974
1621935702312,-0.699999988079071,-3.3670001029968266,-6.705999851226807,0.7059999704360961,-9.711999893188477,-0.0399999991059303
1621935702322,-0.9100000262260436,-5.815999984741211,-6.925000190734863,0.8240000009536743,-9.718999862670898,-0.0010000000474974
1621935702332,-1.0149999856948853,-7.190499782562256,-6.989500045776367,0.9409999847412108,-9.718999862670898,-0.0010000000474974
1621935702342,-1.1200000047683716,-8.5649995803833,-7.053999900817871,1.2549999952316284,-9.75699996948242,-0.0080000003799796
1621935702352,-1.190000057220459,-12.03600025177002,-7.52400016784668,1.5299999713897705,-9.72599983215332,0.0379999987781047
1621935702362,-0.5600000023841857,-17.465999603271484,-7.770999908447266,1.9220000505447388,-9.718999862670898,-0.0010000000474974
1621935702372,-0.0700000002980232,-25.59600067138672,-8.42300033569336,2.313999891281128,-9.75100040435791,-0.0460000000894069
1621935702382,-0.0700000002980232,-36.60499954223633,-6.454999923706055,2.5889999866485596,-9.75699996948242,-0.0080000003799796
1621935702392,0.2800000011920929,-49.96200180053711,-3.265000104904175,2.7070000171661377,-9.642000198364256,0.0130000002682209
