timestamp,gyro_x,gyro_y,gyro_z,acc_x,acc_y,acc_z
1621592509929,0.0,0.0,0.0,0.0,0.0,0.0
1621592510578,-14.979999542236328,-33.89799880981445,-15.359999656677246,-0.1570000052452087,-9.43000030517578,-0.5080000162124633
1621592510588,-17.290000915527344,-38.31399917602539,-15.711999893188477,0.0,-9.392000198364256,-0.5009999871253967
1621592510598,-18.899999618530273,-43.20399856567382,-15.791999816894531,0.0780000016093254,-9.385000228881836,-0.5400000214576721
1621592510608,-19.18000030517578,-48.06999969482422,-16.01099967956543,0.0390000008046627,-9.378000259399414,-0.578000009059906
1621592510618,-18.829999923706055,-51.91400146484375,-15.977999687194824,-0.0390000008046627,-9.333000183105469,-0.6100000143051147
1621592510628,-17.360000610351562,-55.09700012207031,-16.468000411987305,-0.1180000007152557,-9.255000114440918,-0.5960000157356262
1621592510638,-15.119999885559082,-56.88999938964844,-16.784000396728516,-0.2750000059604644,-9.133000373840332,-0.615000009536743
1621592510648,-11.479999542236328,-57.70500183105469,-16.999000549316406,-0.4309999942779541,-9.10099983215332,-0.5690000057220459
1621592510658,-7.489999771118165,-57.74599838256836,-17.573999404907227,-0.5490000247955322,-9.107999801635742,-0.5299999713897705
1621592510668,-3.1500000953674316,-56.80899810791016,-18.048999786376953,-0.6280000209808348,-9.19200038909912,-0.5049999952316284
1621592510678,1.5399999618530271,-55.4379997253418,-18.163000106811523,-0.7059999704360961,-9.416999816894531,-0.5849999785423278
1621592510688,5.25,-53.96599960327149,-18.045000076293945,-0.6669999957084655,-9.732000350952148,-0.6010000109672546
1621592510698,8.119999885559082,-52.429000854492195,-17.489999771118164,-0.6669999957084655,-10.017000198364258,-0.5709999799728394
1621592510708,9.9399995803833,-51.27399826049805,-16.788999557495117,-0.6669999957084655,-10.17099952697754,-0.5979999899864196
1621592510718,10.710000038146973,-49.91899871826172,-16.408000946044922,-0.7059999704360961,-10.248000144958496,-0.6119999885559082
1621592510728,10.779999732971191,-48.358001708984375,-15.989999771118164,-0.6669999957084655,-10.1850004196167,-0.5210000276565551
1621592510738,10.920000076293944,-46.61800003051758,-16.180999755859375,-0.6669999957084655,-10.036999702453612,-0.4550000131130218
1621592510748,11.235000610351562,-45.515499114990234,-16.590499877929688,-0.6280000209808348,-9.85099983215332,-0.3829999864101409
1621592510758,11.550000190734863,-44.41299819946289,-17.0,-0.5490000247955322,-9.55500030517578,-0.2509999871253967
1621592510768,12.109999656677246,-42.053001403808594,-18.290000915527344,-0.3919999897480011,-9.37600040435791,-0.1400000005960464
1621592510778,13.649999618530272,-40.1510009765625,-19.80299949645996,-0.2349999994039535,-9.234999656677246,-0.0350000001490116
1621592510788,15.539999961853027,-38.400001525878906,-21.270999908447266,-0.1180000007152557,-9.20300006866455,0.0099999997764825
1621592510798,16.8700008392334,-37.13899993896485,-21.972999572753903,0.0780000016093254,-9.133000373840332,0.0630000010132789
1621592510808,18.549999237060547,-36.10900115966797,-23.781999588012695,0.3919999897480011,-9.19200038909912,0.1720000058412551
1621592510818,20.020000457763672,-36.790000915527344,-24.7549991607666,0.7450000047683715,-9.314000129699709,0.1899999976158142
1621592510828,20.299999237060547,-39.053001403808594,-24.016000747680664,1.0980000495910645,-9.47599983215332,0.2010000050067901
1621592510838,20.299999237060547,-42.83599853515625,-21.910999298095703,1.4119999408721924,-9.57800006866455,0.1040000021457672
1621592510848,20.09000015258789,-48.29800033569336,-19.959999084472656,1.6480000019073486,-9.675999641418455,0.2060000002384185
1621592510858,19.809999465942383,-54.89500045776367,-18.42200088500977,1.843999981880188,-9.779999732971191,0.3470000028610229
1621592510868,20.229999542236328,-62.14099884033203,-16.43000030517578,2.000999927520752,-9.871000289916992,0.4099999964237213
1621592510878,20.719999313354492,-69.43199920654297,-14.588000297546388,2.0789999961853027,-9.961999893188477,0.4740000069141387
1621592510888,21.6299991607666,-77.09100341796875,-12.668999671936035,2.1570000648498535,-10.090999603271484,0.531000018119812
1621592510898,21.770000457763672,-85.35900115966797,-9.720000267028809,2.118000030517578,-10.220999717712402,0.5879999995231628
1621592510908,21.559999465942383,-93.35099792480467,-5.513999938964844,2.000999927520752,-10.324999809265137,0.7289999723434448
1621592510918,20.790000915527344,-99.54199981689452,-1.843000054359436,1.8040000200271609,-10.416000366210936,0.7919999957084655
1621592510928,18.549999237060547,-104.47299957275392,-0.0829999968409538,1.569000005722046,-10.482000350952148,0.9399999976158142
1621592510938,15.81999969482422,-107.052001953125,1.2400000095367432,1.2549999952316284,-10.432000160217283,1.1080000400543213
1621592510948,14.385000228881836,-107.27500152587892,1.093999981880188,0.9409999847412108,-10.375,1.2380000352859497
1621592510958,12.949999809265137,-107.4980010986328,0.9480000138282776,0.7450000047683715,-10.36400032043457,1.39900004863739
1621592510968,10.640000343322754,-106.7030029296875,-0.3339999914169311,0.6280000209808348,-10.352999687194824,1.559999942779541
1621592510978,8.119999885559082,-105.51499938964844,-1.830000042915344,0.5099999904632568,-10.328000068664553,1.6440000534057615
1621592510988,6.159999847412109,-103.45099639892578,-3.4570000171661377,0.4709999859333038,-10.270999908447266,1.77400004863739
1621592510998,4.550000190734863,-101.61100006103516,-4.625,0.3919999897480011,-10.123000144958496,1.8400000333786013
1621592511008,2.940000057220459,-99.54299926757812,-5.4679999351501465,0.2349999994039535,-10.006999969482422,1.8600000143051147
1621592511018,1.3300000429153442,-96.38400268554688,-4.840000152587891,0.1570000052452087,-10.013999938964844,1.89900004863739
1621592511028,-0.3499999940395355,-92.4540023803711,-4.1479997634887695,0.0780000016093254,-10.123000144958496,1.8400000333786013
1621592511038,-1.4700000286102295,-88.95899963378906,-3.8159999847412114,0.0,-9.883999824523924,1.8420000076293943
1621592511048,-1.8899999856948853,-86.27100372314453,-4.550000190734863,0.0390000008046627,-9.652999877929688,1.8830000162124632
1621592511058,-1.4700000286102295,-83.76899719238281,-6.241000175476074,0.0780000016093254,-9.42099952697754,1.924000024795532
1621592511068,-0.1400000005960464,-82.30899810791016,-8.472000122070312,0.1570000052452087,-9.149999618530272,1.9709999561309817
1621592511078,1.0499999523162842,-80.83799743652344,-10.770999908447266,0.2349999994039535,-9.03499984741211,1.9919999837875368
1621592511088,1.399999976158142,-80.74099731445312,-11.321999549865724,0.4309999942779541,-8.956999778747559,2.005000114440918
1621592511098,-0.0700000002980232,-81.29199981689453,-10.211000442504885,0.5879999995231628,-8.873000144958496,1.9800000190734863
1621592511108,-3.0799999237060547,-83.1240005493164,-8.685999870300293,0.7059999704360961,-8.756999969482422,2.000999927520752
1621592511118,-6.789999961853027,-85.2979965209961,-6.440000057220459,0.9020000100135804,-8.536999702453613,1.8799999952316284
1621592511128,-10.149999618530272,-88.7969970703125,-3.928999900817871,1.0590000152587893,-8.621000289916992,1.9049999713897705
1621592511138,-11.199999809265137,-91.22149658203124,-1.86899995803833,1.2549999952316284,-8.89799976348877,1.8960000276565552
1621592511148,-12.25,-93.64600372314452,0.1909999996423721,1.491000056266785,-9.097999572753906,1.9010000228881836
1621592511158,-12.600000381469728,-100.81800079345705,5.394999980926514,1.6480000019073486,-9.26599979400635,1.950999975204468
1621592511168,-12.109999656677246,-110.05500030517578,11.017000198364258,1.6480000019073486,-9.413999557495115,1.8849999904632568
1621592511178,-11.760000228881836,-121.1240005493164,15.746000289916992,1.491000056266785,-9.508999824523924,1.7489999532699585
1621592511188,-12.880000114440918,-133.16299438476562,19.52300071716309,1.0980000495910645,-9.649999618530272,1.6440000534057615
1621592511198,-16.520000457763672,-144.375,22.23699951171875,0.6669999957084655,-9.668999671936035,1.5219999551773071
1621592511208,-21.280000686645508,-152.98800659179688,22.708999633789062,0.3140000104904174,-9.763999938964846,1.3849999904632568
1621592511218,-26.18000030517578,-159.43099975585935,21.36000061035156,0.0780000016093254,-9.98900032043457,1.305999994277954
1621592511228,-29.81999969482422,-165.0800018310547,21.145000457763672,-0.1570000052452087,-10.21399974822998,1.22599995136261
1621592511238,-31.36000061035156,-170.46099853515625,21.83099937438965,-0.3919999897480011,-10.394000053405762,1.1150000095367432
1621592511248,-30.3799991607666,-175.18499755859375,21.211999893188477,-0.5099999904632568,-10.477999687194824,1.1399999856948853
1621592511258,-26.040000915527344,-179.36199951171875,17.489999771118164,-0.5099999904632568,-10.225000381469728,1.065000057220459
1621592511268,-20.649999618530273,-182.6840057373047,10.93299961090088,-0.5099999904632568,-9.607000350952148,1.1740000247955322
1621592511278,-14.979999542236328,-184.5379943847656,2.503000020980835,-0.4709999859333038,-9.260000228881836,1.2350000143051147
1621592511288,-9.9399995803833,-183.18099975585935,-4.791999816894531,-0.3919999897480011,-9.182000160217283,1.2489999532699585
1621592511298,-4.619999885559082,-180.23800659179688,-10.598999977111816,-0.3919999897480011,-8.98900032043457,1.2829999923706057
1621592511308,0.9100000262260436,-176.4709930419922,-15.833999633789062,-0.3529999852180481,-8.770999908447266,1.4010000228881836
1621592511318,5.739999771118164,-170.48300170898435,-19.96699905395508,-0.2750000059604644,-8.668999671936035,1.4989999532699585
1621592511328,9.449999809265137,-163.35000610351562,-20.913000106811523,-0.1570000052452087,-8.720999717712402,1.569000005722046
1621592511338,10.184999465942385,-159.0395050048828,-20.366500854492188,-0.0780000016093254,-9.262000083923342,1.4739999771118164
1621592511348,10.920000076293944,-154.72900390625,-19.81999969482422,0.0390000008046627,-10.182000160217283,1.2719999551773071
1621592511358,9.9399995803833,-146.09100341796875,-16.804000854492188,0.1180000007152557,-10.947999954223633,1.0970000028610227
1621592511368,7.769999980926514,-137.67300415039062,-13.755999565124512,0.2349999994039535,-11.32699966430664,0.9900000095367432
1621592511378,5.389999866485596,-129.20199584960935,-11.409000396728516,0.2750000059604644,-11.373000144958496,1.0219999551773071
1621592511388,3.2899999618530273,-121.29399871826172,-10.298999786376951,0.3140000104904174,-11.32699966430664,0.9900000095367432
1621592511398,0.7699999809265136,-113.0019989013672,-9.76099967956543,0.3140000104904174,-11.133999824523926,1.02400004863739
1621592511408,-0.8399999737739563,-104.72499847412108,-8.727999687194824,0.2750000059604644,-10.767999649047852,1.2079999446868896
1621592511417,-0.4199999868869781,-96.22599792480467,-9.362000465393066,0.2349999994039535,-10.564000129699709,1.4040000438690186
1621592511428,0.5600000023841857,-87.35800170898438,-11.281000137329102,0.2750000059604644,-10.616000175476074,1.4739999771118164
1621592511438,0.0700000002980232,-77.0989990234375,-11.817999839782717,0.3529999852180481,-10.699999809265137,1.4989999532699585
1621592511448,-1.8200000524520872,-67.39900207519531,-10.392000198364258,0.4709999859333038,-10.809000015258787,1.440000057220459
1621592511457,-5.880000114440918,-59.39899826049805,-8.199000358581543,0.5879999995231628,-10.802000045776367,1.4010000228881836
1621592511467,-12.670000076293944,-52.505001068115234,-5.775000095367432,0.7059999704360961,-10.704999923706056,1.2990000247955322
1621592511477,-20.510000228881836,-46.2599983215332,-4.105000019073486,0.9409999847412108,-10.491000175476074,1.2170000076293943
1621592511487,-28.489999771118164,-41.422000885009766,-3.322999954223633,1.215999960899353,-10.23900032043457,1.1419999599456787
1621592511497,-35.560001373291016,-39.14699935913086,-2.921999931335449,1.4509999752044678,-9.895999908447264,1.003000020980835
1621592511507,-40.880001068115234,-38.48199844360352,-1.4539999961853027,1.6080000400543213,-9.54599952697754,0.8259999752044677
1621592511517,-42.525001525878906,-38.8489990234375,-0.3815000057220459,1.687000036239624,-9.234999656677246,0.6420000195503234
1621592511527,-44.16999816894531,-39.21599960327149,0.6909999847412109,1.6080000400543213,-8.961999893188477,0.4510000050067901
1621592511537,-45.63999938964844,-39.40599822998047,2.575999975204468,1.5299999713897705,-8.70300006866455,0.3379999995231628
1621592511547,-44.52000045776367,-38.46500015258789,2.884000062942505,1.4119999408721924,-8.468999862670898,0.1400000005960464
1621592511557,-41.790000915527344,-36.76599884033203,2.118000030517578,1.3730000257492063,-8.24899959564209,0.0189999993890523
1621592511567,-38.220001220703125,-33.599998474121094,0.6859999895095825,1.2940000295639038,-8.074000358581543,-0.0689999982714653
1621592511577,-33.529998779296875,-29.756000518798828,-0.5550000071525573,1.2549999952316284,-8.098999977111816,-0.152999997138977
1621592511587,-27.86000061035156,-25.42099952697754,-2.562999963760376,1.2940000295639038,-8.208000183105469,-0.2119999974966049
1621592511597,-21.90999984741211,-20.542999267578125,-3.621999979019165,1.4119999408721924,-8.477999687194824,-0.2599999904632568
1621592511607,-16.729999542236328,-15.364999771118164,-3.562000036239624,1.6080000400543213,-8.74899959564209,-0.3079999983310699
1621592511617,-12.25,-10.880000114440918,-3.197999954223633,1.7649999856948853,-9.109999656677246,-0.2919999957084655
1621592511627,-9.869999885559082,-7.160999774932861,-2.115999937057495,2.000999927520752,-9.418999671936035,-0.3459999859333038
1621592511637,-8.960000038146973,-4.756999969482422,-0.8389999866485595,2.1570000648498535,-9.696000099182127,-0.3549999892711639
1621592511647,-10.220000267028809,-3.178999900817871,0.2919999957084655,2.2750000953674316,-9.972999572753906,-0.363999992609024
1621592511657,-12.739999771118164,-2.1040000915527344,1.0509999990463257,2.3540000915527344,-10.128000259399414,-0.3919999897480011
1621592511667,-16.100000381469727,-1.1510000228881836,1.2899999618530271,2.3540000915527344,-10.1850004196167,-0.5210000276565551
1621592511677,-19.459999084472656,-0.6079999804496765,1.0299999713897705,2.3929998874664307,-10.159999847412108,-0.4370000064373016
1621592511687,-22.329999923706055,-0.6970000267028807,0.7300000190734863,2.313999891281128,-10.121000289916992,-0.4300000071525573
1621592511697,-25.690000534057617,-0.734000027179718,-0.2720000147819519,2.3929998874664307,-10.190999984741213,-0.4830000102519989
1621592511707,-29.469999313354492,-0.7789999842643737,-1.6299999952316284,2.313999891281128,-10.326000213623049,-0.6259999871253967
1621592511717,-31.709999084472656,-1.1295000314712524,-2.260499954223633,2.197000026702881,-10.505000114440918,-0.7369999885559082
1621592511727,-33.95000076293945,-1.4800000190734863,-2.8910000324249268,2.0789999961853027,-10.638999938964844,-0.8799999952316284
1621592511737,-39.27000045776367,-2.5230000019073486,-4.638999938964844,1.8040000200271609,-10.70699977874756,-1.1710000038146973
1621592511747,-45.63999938964844,-4.190000057220459,-6.070000171661377,1.6080000400543213,-10.526000022888184,-1.2979999780654907
1621592511757,-52.779998779296875,-5.966000080108643,-6.880000114440918,1.4119999408721924,-10.37600040435791,-1.4709999561309814
1621592511767,-59.63999938964844,-7.681000232696533,-8.03600025177002,1.1770000457763672,-10.166999816894531,-1.753000020980835
1621592511777,-66.5,-8.890000343322754,-9.244000434875488,0.981000006198883,-9.89400005340576,-1.944000005722046
1621592511787,-73.29000091552734,-10.199999809265137,-10.68299961090088,0.8240000009536743,-8.99899959564209,-1.825999975204468
1621592511797,-79.94000244140625,-11.468999862670898,-12.755000114440918,0.5099999904632568,-7.907999992370605,-1.9119999408721924
1621592511807,-82.04000091552734,-12.869000434875488,-15.703000068664553,0.4709999859333038,-7.701000213623046,-1.955000042915344
1621592511817,-77.69999694824219,-13.914999961853027,-19.441999435424805,0.3529999852180481,-7.375999927520752,-2.2170000076293945
1621592511827,-70.3499984741211,-14.38599967956543,-22.01300048828125,0.2349999994039535,-7.188000202178955,-2.3829998970031734
1621592511837,-62.790000915527344,-15.890999794006348,-25.974000930786133,0.2349999994039535,-7.80399990081787,-2.7300000190734863
1621592511847,-54.040000915527344,-17.7450008392334,-29.570999145507812,0.1959999948740005,-8.6899995803833,-3.125999927520752
1621592511857,-45.56999969482422,-19.378999710083008,-29.573999404907227,0.0780000016093254,-9.003000259399414,-3.380000114440918
1621592511867,-36.61000061035156,-21.718999862670895,-29.204999923706055,-0.0390000008046627,-8.925999641418457,-3.365999937057495
1621592511877,-26.38999938964844,-24.679000854492188,-31.36199951171875,-0.1959999948740005,-8.739999771118164,-3.2939999103546143
1621592511887,-16.3799991607666,-26.750999450683594,-31.301000595092773,-0.3919999897480011,-8.675999641418457,-3.203000068664551
1621592511897,-7.139999866485596,-27.416000366210938,-29.14299964904785,-0.6669999957084655,-9.147000312805178,-3.246000051498413
1621592511907,1.8899999856948853,-27.975000381469727,-28.388999938964844,-0.9409999847412108,-9.772000312805178,-3.315999984741211
1621592511917,5.355000019073486,-27.66900062561035,-28.51300048828125,-1.0980000495910645,-10.371000289916992,-3.302999973297119
1621592511927,8.819999694824219,-27.363000869750977,-28.636999130249023,-1.2940000295639038,-10.862000465393066,-3.2300000190734863
1621592511937,13.789999961853027,-26.073999404907227,-28.694000244140625,-1.3730000257492063,-11.166999816894531,-3.0840001106262207
1621592511947,17.56999969482422,-23.875999450683594,-28.660999298095703,-1.4119999408721924,-11.109999656677246,-2.9549999237060547
1621592511957,18.690000534057617,-21.531999588012695,-28.24799919128418,-1.2549999952316284,-10.803000450134276,-2.6619999408721924
1621592511967,18.969999313354492,-18.80299949645996,-28.406999588012695,-1.0199999809265137,-10.496000289916992,-2.36899995803833
1621592511977,20.229999542236328,-17.042999267578125,-28.309999465942383,-0.7850000262260437,-10.401000022888184,-2.2320001125335693
1621592511987,22.049999237060547,-15.814000129699709,-28.02199935913086,-0.5099999904632568,-10.402999877929688,-1.99399995803833
1621592511997,24.010000228881836,-14.975000381469728,-27.94499969482422,-0.3529999852180481,-10.145999908447266,-1.86899995803833
1621592512007,26.040000915527344,-14.690999984741213,-28.74799919128418,-0.1959999948740005,-9.9350004196167,-1.712000012397766
1621592512017,27.440000534057617,-14.14799976348877,-30.215999603271484,-0.0390000008046627,-9.833000183105469,-1.6139999628067017
1621592512027,27.09000015258789,-12.553999900817873,-30.788000106811523,0.0780000016093254,-9.871000289916992,-1.6210000514984133
1621592512037,24.010000228881836,-9.913999557495115,-28.829999923706055,0.1570000052452087,-9.86400032043457,-1.6599999666213987
1621592512047,19.11000061035156,-6.374000072479248,-25.930999755859375,0.3140000104904174,-9.741999626159668,-1.6779999732971191
1621592512057,14.489999771118164,-2.2330000400543213,-23.209999084472656,0.5490000247955322,-9.541999816894531,-1.6820000410079956
1621592512067,10.079999923706056,0.7269999980926513,-18.636999130249023,0.8240000009536743,-9.32800006866455,-1.7640000581741333
1621592512077,5.670000076293945,2.265000104904175,-13.248000144958496,1.0590000152587893,-9.152999877929688,-1.8530000448226929
1621592512087,1.3300000429153442,2.3949999809265137,-8.746999740600586,1.2549999952316284,-8.894000053405762,-1.9670000076293943
1621592512097,-2.1700000762939453,1.4099999666213987,-5.579999923706055,1.3730000257492063,-8.583000183105469,-2.1510000228881836
1621592512107,-4.619999885559082,-1.0789999961853027,-3.9579999446868896,1.4509999752044678,-8.298999786376953,-2.180000066757202
1621592512117,-5.355000019073486,-2.753999948501587,-3.9330000877380367,1.4509999752044678,-8.008000373840332,-2.247999906539917
1621592512127,-6.090000152587891,-4.428999900817871,-3.9079999923706055,1.3339999914169312,-7.892000198364258,-2.2279999256134033
1621592512137,-5.949999809265137,-8.788000106811523,-4.178999900817871,1.0199999809265137,-7.801000118255616,-2.2920000553131104
1621592512147,-4.690000057220459,-12.206000328063965,-4.14300012588501,0.7450000047683715,-7.684999942779541,-2.2709999084472656
1621592512157,-3.5,-15.048999786376951,-5.355000019073486,0.4309999942779541,-7.717000007629395,-2.316999912261963
1621592512167,-1.0499999523162842,-16.43199920654297,-7.58900022506714,0.1959999948740005,-7.684999942779541,-2.2709999084472656
1621592512177,1.6100000143051147,-16.70800018310547,-8.845999717712402,-0.0390000008046627,-7.763000011444091,-2.2850000858306885
1621592512187,4.900000095367432,-16.500999450683594,-8.809000015258789,-0.2750000059604644,-7.923999786376954,-2.2739999294281006
1621592512197,8.329999923706055,-16.051000595092773,-7.735000133514405,-0.5490000247955322,-8.163000106811523,-2.2760000228881836
1621592512207,11.550000190734863,-15.406000137329102,-7.763000011444091,-0.7850000262260437,-8.324000358581543,-2.263999938964844
1621592512217,14.630000114440918,-13.861000061035156,-9.267999649047852,-0.9409999847412108,-8.678000450134277,-2.2869999408721924
1621592512227,17.56999969482422,-12.041000366210936,-11.932000160217283,-0.9020000100135804,-8.923999786376953,-2.250999927520752
1621592512237,19.670000076293945,-10.569000244140623,-14.232000350952148,-0.981000006198883,-9.130999565124512,-2.2070000171661377
1621592512247,21.209999084472656,-9.50699996948242,-15.821000099182127,-1.0199999809265137,-9.362000465393066,-2.247999906539917
1621592512257,21.559999465942383,-9.012999534606934,-18.222000122070312,-1.0590000152587893,-9.529999732971191,-2.197999954223633
1621592512267,20.86000061035156,-8.397000312805176,-22.520000457763672,-1.0199999809265137,-9.65999984741211,-2.1410000324249268
1621592512277,19.31999969482422,-8.255999565124512,-27.7549991607666,-0.981000006198883,-9.852999687194824,-2.1760001182556152
1621592512287,16.450000762939453,-7.955999851226807,-32.678001403808594,-0.981000006198883,-10.04599952697754,-2.2100000381469727
1621592512297,12.8100004196167,-7.757999897003175,-36.624000549316406,-0.9409999847412108,-10.284999847412108,-2.211999893188477
1621592512307,9.3100004196167,-7.925000190734864,-39.70899963378906,-0.8629999756813049,-10.407999992370604,-2.194000005722046
1621592512317,6.929999828338623,-7.730999946594238,-42.020999908447266,-0.7850000262260437,-10.491999626159668,-2.1689999103546143
1621592512327,6.230000019073486,-7.158999919891357,-42.23999786376953,-0.7450000047683715,-10.4350004196167,-2.0390000343322754
1621592512337,5.53000020980835,-6.586999893188477,-42.45899963378906,-0.7450000047683715,-10.30799961090088,-1.85699999332428
1621592512347,5.53000020980835,-4.913000106811523,-43.0880012512207,-0.6669999957084655,-10.187000274658203,-1.6369999647140503
1621592512357,6.929999828338623,-2.5239999294281006,-43.733001708984375,-0.5099999904632568,-9.982999801635742,-1.4420000314712524
1621592512367,10.43000030517578,0.5130000114440918,-43.624000549316406,-0.3140000104904174,-9.829999923706056,-1.1759999990463257
1621592512377,15.68000030517578,4.122000217437744,-43.12900161743164,-0.0390000008046627,-9.968999862670898,-0.8420000076293945
1621592512387,21.559999465942383,7.973999977111816,-42.805999755859375,0.1959999948740005,-10.12600040435791,-0.6299999952316284
1621592512397,26.25,11.437000274658203,-42.69300079345703,0.5099999904632568,-11.322999954223633,-0.8410000205039978
1621592512407,26.8799991607666,15.062000274658203,-42.69300079345703,0.981000006198883,-13.54599952697754,-1.1139999628067017
1621592512417,22.469999313354492,18.41200065612793,-41.53400039672851,1.1380000114440918,-13.829999923706056,-1.0839999914169312
1621592512427,17.56999969482422,21.93199920654297,-42.54800033569336,1.4119999408721924,-12.659000396728516,-0.7189999818801879
1621592512437,15.329999923706056,23.285999298095703,-44.58399963378906,1.843999981880188,-11.579999923706056,-0.289000004529953
1621592512447,10.640000343322754,23.496999740600582,-37.722999572753906,2.0789999961853027,-10.33199977874756,0.0900000035762786
1621592512457,5.320000171661377,24.23699951171875,-28.209999084472656,2.000999927520752,-9.682000160217283,0.2440000027418136
1621592512467,3.990000009536743,25.63599967956543,-26.469999313354492,2.0789999961853027,-9.888999938964846,0.2879999876022338
1621592512477,4.480000019073486,28.968999862670895,-30.857999801635746,2.197000026702881,-9.696000099182127,0.3219999969005584
1621592512487,7.8400001525878915,32.67399978637695,-35.749000549316406,2.3929998874664307,-9.607000350952148,0.4970000088214874
1621592512497,13.300000190734863,34.92900085449219,-36.84400177001953,2.549999952316284,-9.40999984741211,0.731000006198883
1621592512507,20.3700008392334,36.762001037597656,-34.74399948120117,2.5889999866485596,-9.321000099182127,0.906000018119812
1621592512517,28.6299991607666,39.2760009765625,-31.67099952697754,2.5889999866485596,-9.45300006866455,1.2009999752044678
1621592512527,35.41999816894531,41.92100143432618,-27.722000122070312,2.628000020980835,-9.630000114440918,1.5279999971389773
1621592512537,37.519996643066406,43.25550079345703,-25.211999893188477,2.628000020980835,-9.979999542236328,1.7059999704360962
1621592512547,39.619998931884766,44.59000015258789,-22.70199966430664,2.628000020980835,-10.284000396728516,1.85099995136261
1621592512557,41.02000045776367,47.944000244140625,-17.135000228881836,2.7070000171661377,-10.517999649047852,2.049000024795532
1621592512567,40.66999816894531,49.987998962402344,-11.798999786376951,2.746000051498413,-10.590999603271484,2.234999895095825
1621592512577,39.83000183105469,51.428001403808594,-7.066999912261963,2.864000082015991,-10.586000442504885,2.434999942779541
1621592512587,38.709999084472656,52.005001068115234,-3.4820001125335693,2.8239998817443848,-10.45199966430664,2.578000068664551
1621592512597,37.45000076293945,51.619998931884766,-0.4939999878406524,2.746000051498413,-10.357000350952148,2.7149999141693115
1621592512607,35.77000045776367,50.86600112915039,2.572000026702881,2.6670000553131104,-10.255000114440918,2.812000036239624
1621592512617,32.970001220703125,49.845001220703125,4.736999988555908,2.549999952316284,-10.17099952697754,2.7869999408721924
1621592512627,28.420000076293945,49.0620002746582,5.949999809265137,2.510999917984009,-10.112000465393066,2.677999973297119
1621592512637,22.190000534057617,48.279998779296875,5.953999996185303,2.3929998874664307,-9.982000350952148,2.621000051498413
1621592512647,15.260000228881836,46.93299865722656,5.929999828338623,2.313999891281128,-9.722999572753906,2.5079998970031734
1621592512657,8.329999923706055,46.345001220703125,4.830999851226807,2.236000061035156,-9.397999763488768,2.246000051498413
1621592512667,1.8200000524520872,46.0369987487793,3.3550000190734863,2.1570000648498535,-9.069000244140623,2.184999942779541
1621592512677,-3.6400001049041744,46.00400161743164,3.135999917984009,2.0789999961853027,-8.654999732971191,2.0989999771118164
1621592512687,-7.559999942779541,45.6879997253418,2.51200008392334,2.0399999618530273,-8.326000213623047,2.0369999408721924
1621592512697,-9.380000114440918,46.069000244140625,2.365999937057495,2.000999927520752,-8.104999542236328,1.9170000553131104
1621592512707,-10.149999618530272,46.51499938964844,2.6579999923706055,2.0399999618530273,-7.97599983215332,1.8600000143051147
1621592512717,-10.5,47.23699951171875,2.997999906539917,2.000999927520752,-7.84600019454956,1.8029999732971191
1621592512727,-9.9399995803833,47.80899810791016,3.3829998970031734,2.000999927520752,-7.748000144958496,1.7009999752044678
1621592512737,-9.100000381469728,48.64400100708008,3.885999917984009,1.9609999656677248,-7.677999973297118,1.753000020980835
1621592512747,-7.489999771118165,49.83599853515625,4.38100004196167,2.000999927520752,-7.818999767303467,1.64900004863739
1621592512757,-6.159999847412109,51.33700180053711,5.14300012588501,2.0399999618530273,-8.01200008392334,1.6139999628067017
1621592512767,-5.355000019073486,52.08100128173828,5.558500289916992,2.0789999961853027,-8.095999717712402,1.6390000581741333
1621592512777,-4.550000190734863,52.82500076293945,5.973999977111816,2.118000030517578,-8.25100040435791,1.6119999885559082
1621592512787,-3.1500000953674316,54.09000015258789,6.054999828338623,2.197000026702881,-8.411999702453613,1.6239999532699585
1621592512797,-2.450000047683716,55.209999084472656,5.754000186920166,2.2750000953674316,-8.53499984741211,1.6419999599456787
1621592512807,-2.5199999809265137,56.766998291015625,5.388999938964844,2.3929998874664307,-8.720999717712402,1.569000005722046
1621592512817,-2.6600000858306885,57.71500015258789,4.8460001945495605,2.431999921798706,-8.843999862670898,1.587000012397766
1621592512827,-3.2899999618530273,58.57500076293945,4.001999855041504,2.4709999561309814,-9.062000274658203,1.468999981880188
1621592512837,-4.760000228881836,59.8849983215332,3.0250000953674316,2.510999917984009,-9.215999603271484,1.4420000314712524
1621592512847,-6.929999828338623,60.88999938964844,2.562000036239624,2.510999917984009,-9.33199977874756,1.4220000505447388
1621592512857,-9.3100004196167,62.16299819946289,1.7920000553131104,2.510999917984009,-9.402999877929688,1.36899995803833
1621592512867,-11.270000457763672,63.84600067138672,0.3109999895095825,2.549999952316284,-9.472999572753906,1.3170000314712524
1621592512877,-12.880000114440918,65.50399780273438,-1.031000018119812,2.510999917984009,-9.465999603271484,1.2779999971389773
1621592512887,-14.06999969482422,68.09500122070312,-2.421999931335449,2.4709999561309814,-9.42099952697754,1.246999979019165
1621592512897,-14.630000114440918,70.93800354003906,-3.627000093460083,2.431999921798706,-9.42099952697754,1.246999979019165
1621592512907,-14.420000076293944,73.82099914550781,-4.25600004196167,2.3929998874664307,-9.329999923706056,1.1829999685287476
1621592512917,-13.579999923706056,76.78900146484375,-5.367000102996826,2.3929998874664307,-9.175999641418455,1.2100000381469729
1621592512927,-13.159999847412108,79.4729995727539,-5.676000118255615,2.3540000915527344,-9.26599979400635,1.27400004863739
1621592512937,-11.970000267028809,81.68699645996094,-6.138000011444092,2.236000061035156,-9.196000099182127,1.3259999752044678
1621592512947,-10.989999771118164,83.87300109863281,-6.0370001792907715,2.1570000648498535,-9.041000366210936,1.3530000448226929
1621592512957,-9.3100004196167,86.3949966430664,-7.440999984741211,2.0399999618530273,-9.21399974822998,1.2029999494552612
1621592512967,-8.470000267028809,88.96099853515625,-8.694000244140625,1.8830000162124632,-9.807000160217283,1.1779999732971191
1621592512977,-7.8400001525878915,91.77899932861328,-9.76099967956543,1.7649999856948853,-10.418999671936035,1.031000018119812
1621592512987,-7.139999866485596,94.43499755859376,-11.92300033569336,1.7649999856948853,-11.281999588012695,0.9580000042915344
1621592512997,-7.070000171661377,96.31199645996092,-13.29800033569336,1.6480000019073486,-11.468000411987305,0.8859999775886535
1621592513007,-6.93000030517578,96.9384994506836,-13.82699966430664,1.5299999713897705,-11.404999732971191,0.9760000109672546
1621592513017,-6.789999961853027,97.56500244140624,-14.355999946594238,1.4509999752044678,-11.23900032043457,1.1649999618530271
1621592513027,-6.579999923706055,98.96800231933594,-15.458999633789064,1.3730000257492063,-11.020999908447266,1.2829999923706057
1621592513037,-6.369999885559082,100.52100372314452,-15.39900016784668,1.3339999914169312,-11.767999649047852,1.2309999465942385
1621592513047,-6.019999980926514,101.1050033569336,-13.87399959564209,1.3339999914169312,-12.625,1.1200000047683716
1621592513057,-5.880000114440918,100.84200286865234,-10.366000175476074,1.1770000457763672,-11.76099967956543,1.1920000314712524
1621592513067,-3.5,97.98799896240232,-9.093000411987305,1.0590000152587893,-10.809000015258787,1.440000057220459
1621592513077,-0.0700000002980232,94.0260009765625,-11.213000297546388,1.0199999809265137,-10.559000015258787,1.6030000448226929
1621592513086,0.1400000005960464,91.76300048828124,-9.26599979400635,0.8629999756813049,-10.328000068664553,1.6440000534057615
1621592513096,-0.5600000023841857,88.99400329589844,-3.6419999599456783,0.6280000209808348,-10.354999542236328,1.7990000247955322
1621592513106,1.6799999475479126,84.76599884033203,1.7970000505447388,0.4309999942779541,-10.23900032043457,1.819000005722046
1621592513116,4.130000114440918,81.25499725341797,6.793000221252441,0.1570000052452087,-10.116000175476074,1.8009999990463257
1621592513126,7.349999904632568,79.03299713134764,11.732000350952148,-0.1570000052452087,-10.059000015258787,1.930999994277954
1621592513136,10.850000381469728,77.19300079345702,15.31700038909912,-0.4709999859333038,-10.149999618530272,1.99399995803833
1621592513146,13.229999542236328,76.27300262451172,17.714000701904297,-0.7850000262260437,-10.234000205993652,2.0190000534057617
1621592513156,14.489999771118164,76.4029998779297,18.59000015258789,-1.0590000152587893,-10.05500030517578,2.13100004196167
1621592513166,13.720000267028809,77.26200103759767,17.746000289916992,-1.2549999952316284,-9.661999702453612,2.1600000858306885
1621592513176,12.039999961853027,79.4720001220703,15.291999816894531,-1.3730000257492063,-9.54599952697754,2.180000066757202
1621592513186,9.380000114440918,82.49199676513672,12.270999908447266,-1.4509999752044678,-9.553000450134276,2.2190001010894775
1621592513196,7.280000209808349,85.29399871826172,8.074000358581543,-1.491000056266785,-9.661999702453612,2.1600000858306885
1621592513206,6.019999980926514,88.1520004272461,3.9579999446868896,-1.3730000257492063,-9.616000175476074,2.128000020980835
1621592513216,4.619999885559082,90.62100219726562,0.8389999866485595,-1.2549999952316284,-9.416000366210936,2.124000072479248
1621592513226,4.199999809265137,91.25150299072264,-0.1159999966621398,-1.1380000114440918,-9.248000144958496,2.0739998817443848
1621592513236,3.7799999713897705,91.88200378417967,-1.0709999799728394,-1.0980000495910645,-9.248000144958496,2.0739998817443848
1621592513246,3.2899999618530273,93.2040023803711,-2.118000030517578,-1.0199999809265137,-9.112000465393066,1.9780000448226929
1621592513256,3.430000066757202,93.71099853515624,-2.1700000762939453,-0.9020000100135804,-9.0600004196167,1.9079999923706057
1621592513266,3.7799999713897705,93.08200073242188,-1.4279999732971191,-0.8240000009536743,-9.0,1.7990000247955322
1621592513276,4.130000114440918,92.08899688720705,-1.0349999666213987,-0.7450000047683715,-9.0,1.7990000247955322
1621592513286,3.9200000762939458,90.27999877929688,-0.856000006198883,-0.6669999957084655,-8.902999877929688,1.6959999799728394
1621592513296,3.849999904632568,88.09100341796875,-0.531000018119812,-0.5490000247955322,-8.9350004196167,1.6510000228881836
1621592513306,3.849999904632568,85.78299713134764,-1.1510000228881836,-0.4309999942779541,-8.920999526977539,1.5740000009536743
1621592513316,3.7100000381469727,82.73799896240233,-1.6169999837875366,-0.3919999897480011,-8.984999656677246,1.4830000400543213
1621592513326,3.990000009536743,79.52999877929688,-1.9700000286102295,-0.3529999852180481,-9.093999862670898,1.4240000247955322
1621592513336,3.9200000762939458,75.90499877929688,-1.968999981880188,-0.2349999994039535,-9.12600040435791,1.378000020980835
1621592513346,3.6400001049041744,72.1989974975586,-1.9119999408721924,-0.2750000059604644,-9.112000465393066,1.3009999990463257
1621592513356,2.940000057220459,68.46399688720703,-1.2910000085830688,-0.2750000059604644,-9.097999572753906,1.2239999771118164
1621592513366,2.380000114440918,64.79900360107422,-0.6579999923706054,-0.3140000104904174,-8.97599983215332,1.2059999704360962
1621592513376,2.0999999046325684,61.071998596191406,0.3199999928474426,-0.3529999852180481,-8.951000213623047,1.2899999618530271
1621592513386,1.6799999475479126,57.40299987792969,1.3789999485015867,-0.4709999859333038,-8.982000350952148,1.24399995803833
1621592513396,1.399999976158142,54.08599853515625,1.6469999551773071,-0.5490000247955322,-9.027999877929688,1.2760000228881836
1621592513406,1.3300000429153442,51.125999450683594,1.906999945640564,-0.7059999704360961,-9.168999671936035,1.1720000505447388
1621592513416,1.2599999904632568,48.867000579833984,2.2190001010894775,-0.8240000009536743,-9.23900032043457,1.11899995803833
1621592513426,0.7699999809265136,47.19599914550781,1.2139999866485596,-0.9020000100135804,-9.387000083923342,1.0529999732971191
1621592513436,-0.0700000002980232,46.16600036621094,0.606000006198883,-0.981000006198883,-9.612000465393066,0.9739999771118164
1621592513446,-0.3849999904632568,45.62699890136719,1.0440000295639038,-1.0590000152587893,-9.79800033569336,0.9010000228881836
1621592513456,-0.699999988079071,45.0880012512207,1.4819999933242798,-1.1380000114440918,-9.977999687194824,0.7900000214576721
1621592513466,-0.4900000095367431,43.39300155639648,1.8229999542236328,-1.1770000457763672,-9.932000160217283,0.7580000162124633
1621592513476,0.699999988079071,42.375,1.1460000276565552,-1.215999960899353,-9.763999938964846,0.7080000042915344
1621592513486,2.380000114440918,41.48600006103515,-1.0720000267028809,-1.1380000114440918,-9.95699977874756,0.6740000247955322
1621592513496,4.059999942779541,41.48199844360352,-3.062999963760376,-1.0590000152587893,-9.803000450134276,0.7009999752044677
1621592513506,6.090000152587891,41.0359992980957,-5.771999835968018,-1.0199999809265137,-9.654999732971191,0.7670000195503234
1621592513516,8.260000228881836,41.03099822998047,-10.18000030517578,-0.9020000100135804,-9.647999763488768,0.7279999852180481
1621592513526,10.149999618530272,41.979000091552734,-15.557000160217283,-0.7850000262260437,-9.637000083923342,0.8899999856948853
1621592513536,11.760000228881836,42.91899871826172,-21.291000366210938,-0.5879999995231628,-9.5600004196167,0.902999997138977
1621592513546,13.159999847412108,43.733001708984375,-27.118000030517575,-0.1570000052452087,-9.347999572753906,1.059999942779541
1621592513556,13.579999923706056,44.88399887084961,-32.03300094604492,0.0390000008046627,-9.586999893188477,1.0579999685287476
1621592513566,13.229999542236328,46.493999481201165,-35.51599884033203,0.2750000059604644,-9.772999763488768,0.9850000143051147
1621592513576,12.8100004196167,48.152000427246094,-38.06700134277344,0.4709999859333038,-9.741000175476074,1.031000018119812
1621592513586,13.579999923706056,49.400001525878906,-39.90800094604492,0.6669999957084655,-9.638999938964846,1.128000020980835
1621592513596,14.909999847412108,50.94499969482422,-41.41299819946289,0.8240000009536743,-9.536999702453612,1.22599995136261
1621592513606,17.219999313354492,53.00899887084961,-43.03900146484375,1.0199999809265137,-9.472999572753906,1.3170000314712524
1621592513616,19.530000686645508,55.55099868774414,-44.15399932861328,1.215999960899353,-9.40999984741211,1.4079999923706057
1621592513626,21.770000457763672,58.5359992980957,-44.551998138427734,1.4119999408721924,-9.404999732971191,1.6080000400543213
1621592513636,23.65999984741211,61.1150016784668,-43.45800018310547,1.6080000400543213,-9.418999671936035,1.684999942779541
1621592513646,25.200000762939453,62.882999420166016,-40.58700180053711,1.8040000200271609,-9.484000205993652,1.8329999446868896
1621592513656,25.760000228881836,63.74299621582031,-38.40950012207031,1.9220000505447388,-9.51900005340576,2.0260000228881836
1621592513666,26.31999969482422,64.60299682617188,-36.23199844360352,2.118000030517578,-9.454999923706056,2.1170001029968266
1621592513676,26.739999771118164,65.18800354003906,-31.082000732421875,2.197000026702881,-9.39099979400635,2.2079999446868896
1621592513686,26.530000686645508,65.11599731445312,-25.834999084472656,2.2750000953674316,-9.404999732971191,2.2850000858306885
1621592513696,25.829999923706055,64.63800048828125,-20.304000854492188,2.313999891281128,-9.496000289916992,2.3489999771118164
1621592513706,24.989999771118164,63.483001708984375,-16.172000885009766,2.2750000953674316,-9.534000396728516,2.3420000076293945
1621592513716,23.520000457763672,62.060001373291016,-12.9399995803833,2.236000061035156,-9.579999923706056,2.374000072479248
1621592513726,21.280000686645508,60.11000061035156,-11.151000022888184,2.1570000648498535,-9.625,2.4049999713897705
1621592513736,18.969999313354492,58.625999450683594,-9.991999626159668,2.000999927520752,-9.748000144958496,2.424000024795532
1621592513746,15.890000343322754,57.66899871826172,-9.80500030517578,1.7649999856948853,-9.779999732971191,2.378000020980835
1621592513756,12.8100004196167,56.7599983215332,-9.89400005340576,1.6080000400543213,-9.888999938964846,2.319000005722046
1621592513766,9.449999809265137,56.64300155639648,-10.83899974822998,1.3730000257492063,-9.80500030517578,2.2939999103546143
1621592513776,6.300000190734863,57.50199890136719,-11.682000160217283,1.1380000114440918,-9.791000366210936,2.2170000076293945
1621592513786,4.059999942779541,59.09199905395508,-13.036999702453612,0.9409999847412108,-9.732000350952148,2.1080000400543213
1621592513796,1.8200000524520872,60.92399978637695,-14.562000274658203,0.7059999704360961,-9.75,1.9850000143051147
1621592513806,0.2800000011920929,64.5250015258789,-15.633000373840332,0.5879999995231628,-9.807000160217283,1.8559999465942385
1621592513816,-1.5399999618530271,68.74600219726562,-16.5939998626709,0.4309999942779541,-9.83199977874756,1.7719999551773071
1621592513826,-2.869999885559082,72.41600036621094,-17.652999877929688,0.4309999942779541,-9.88199996948242,1.6030000448226929
1621592513836,-3.5,76.59200286865236,-18.76499938964844,0.4309999942779541,-9.668999671936035,1.5219999551773071
1621592513846,-4.340000152587891,80.99199676513672,-19.12700080871582,0.4309999942779541,-9.654999732971191,1.444000005722046
1621592513856,-4.96999979019165,85.93900299072266,-18.96500015258789,0.4709999859333038,-10.182000160217283,1.2719999551773071
1621592513866,-4.864999771118164,87.88349914550781,-18.302499771118164,0.5879999995231628,-10.631999969482422,1.1130000352859497
1621592513876,-4.760000228881836,89.8280029296875,-17.639999389648438,0.7059999704360961,-10.394000053405762,1.1150000095367432
1621592513886,-2.380000114440918,92.02200317382812,-15.972999572753906,0.8240000009536743,-9.949999809265137,1.312999963760376
1621592513896,0.9100000262260436,94.03299713134764,-15.6899995803833,0.9409999847412108,-9.57800006866455,1.4579999446868896
1621592513906,3.7799999713897705,96.66899871826172,-14.513999938964844,1.0199999809265137,-9.197999954223633,1.565000057220459
1621592513916,6.300000190734863,98.25499725341795,-11.817999839782717,1.0590000152587893,-8.940999984741211,1.690000057220459
1621592513926,9.380000114440918,98.01200103759764,-8.022000312805176,1.1380000114440918,-8.885000228881836,1.819000005722046
1621592513936,12.109999656677246,96.75599670410156,-2.913000106811523,1.1380000114440918,-9.027999877929688,1.9529999494552612
1621592513946,13.93000030517578,94.53800201416016,2.809000015258789,1.1380000114440918,-9.286999702453612,2.066999912261963
1621592513956,14.5600004196167,91.0279998779297,7.804999828338623,1.0590000152587893,-9.494000434875488,2.109999895095825
1621592513966,13.579999923706056,86.86399841308594,12.472999572753906,0.981000006198883,-9.692999839782717,2.115000009536743
1621592513976,11.340000152587892,81.93699645996094,16.225000381469727,0.8240000009536743,-9.892999649047852,2.11899995803833
1621592513986,8.119999885559082,76.71099853515625,17.64900016784668,0.7059999704360961,-10.04800033569336,2.0920000076293945
1621592513996,4.619999885559082,71.05000305175781,16.295000076293945,0.5099999904632568,-10.04800033569336,2.0920000076293945
1621592514006,2.0299999713897705,65.07599639892578,13.890999794006348,0.3140000104904174,-9.899999618530272,2.1579999923706055
1621592514016,0.4199999868869781,59.6870002746582,10.595000267028809,0.1570000052452087,-9.630000114440918,2.2060000896453857
1621592514026,-0.0700000002980232,54.804000854492195,7.247000217437744,-0.0390000008046627,-9.468999862670898,2.194000005722046
1621592514036,0.2800000011920929,50.25400161743164,4.0279998779296875,-0.1959999948740005,-9.404999732971191,2.2850000858306885
1621592514046,1.6799999475479126,46.304000854492195,1.8389999866485596,-0.4309999942779541,-9.333999633789062,2.336999893188477
1621592514056,3.430000066757202,43.23400115966797,0.3019999861717224,-0.5490000247955322,-9.387000083923342,2.4079999923706055
1621592514066,5.320000171661377,40.66699981689453,-0.8610000014305114,-0.7850000262260437,-9.392999649047852,2.446000099182129
1621592514076,6.230000019073486,39.86199951171875,-1.5360000133514404,-0.9409999847412108,-9.399999618530272,2.484999895095825
1621592514086,7.139999866485596,39.05699920654297,-2.2109999656677246,-1.0590000152587893,-9.458999633789062,2.5940001010894775
1621592514096,8.609999656677246,38.027000427246094,-2.819000005722046,-1.1770000457763672,-9.505000114440918,2.625999927520752
1621592514106,9.380000114440918,38.047000885009766,-3.740000009536743,-1.2940000295639038,-9.58899974822998,2.6510000228881836
1621592514116,8.960000038146973,38.35200119018555,-4.255000114440918,-1.3339999914169312,-9.67300033569336,2.6760001182556152
1621592514126,7.559999942779541,39.15800094604492,-4.396999835968018,-1.4119999408721924,-9.628000259399414,2.6440000534057617
1621592514136,5.320000171661377,40.152000427246094,-4.789999961853027,-1.4509999752044678,-9.54300022125244,2.61899995803833
1621592514146,2.7300000190734863,41.821998596191406,-4.993000030517578,-1.4509999752044678,-9.505000114440918,2.625999927520752
1621592514156,0.6299999952316284,43.027000427246094,-4.567999839782715,-1.3730000257492063,-9.413999557495115,2.562000036239624
1621592514166,-1.0499999523162842,43.84600067138672,-3.569999933242798,-1.2940000295639038,-9.446000099182127,2.5169999599456787
1621592514176,-2.7300000190734863,43.35200119018555,-2.378000020980835,-1.2549999952316284,-9.392999649047852,2.446000099182129
1621592514186,-4.619999885559082,42.90599822998047,-1.462000012397766,-1.1770000457763672,-9.315999984741213,2.4600000381469727
1621592514196,-5.949999809265137,41.737998962402344,-0.8859999775886535,-1.1770000457763672,-9.270999908447264,2.427999973297119
1621592514206,-7.280000209808349,40.14799880981445,-0.740000009536743,-1.2549999952316284,-9.263999938964846,2.390000104904175
1621592514216,-8.329999923706055,38.5260009765625,-0.8119999766349792,-1.215999960899353,-9.347999572753906,2.4149999618530273
1621592514226,-9.100000381469728,37.516998291015625,-1.1330000162124634,-1.1770000457763672,-9.354999542236328,2.453000068664551
1621592514236,-10.079999923706056,36.15399932861328,-0.662000000476837,-1.1770000457763672,-9.46399974822998,2.3940000534057617
1621592514246,-11.0600004196167,35.08399963378906,0.5709999799728394,-1.1770000457763672,-9.380000114440918,2.36899995803833
1621592514256,-11.970000267028809,34.297000885009766,1.0010000467300415,-1.0590000152587893,-9.503000259399414,2.38700008392334
1621592514266,-13.229999542236328,33.30400085449219,1.3940000534057615,-0.9409999847412108,-9.67099952697754,2.437000036239624
1621592514276,-15.75,32.49300003051758,3.1710000038146973,-0.7850000262260437,-9.928000450134276,2.312000036239624
1621592514286,-20.299999237060547,30.996999740600582,5.607999801635742,-0.5490000247955322,-10.307000160217283,2.2060000896453857
1621592514296,-27.229999542236328,28.746999740600582,9.902000427246092,-0.3919999897480011,-10.461999893188477,2.177999973297119
1621592514306,-31.045000076293945,26.829500198364254,13.118000030517578,-0.2349999994039535,-10.475000381469728,2.25600004196167
1621592514316,-34.86000061035156,24.91200065612793,16.333999633789062,-0.1959999948740005,-10.204999923706056,2.302999973297119
1621592514326,-40.880001068115234,19.65399932861328,23.58099937438965,-0.3919999897480011,-9.857000350952148,2.365000009536743
1621592514336,-45.91999816894531,13.63700008392334,30.694000244140625,-0.7059999704360961,-9.727999687194824,2.308000087738037
1621592514346,-49.0,9.128999710083008,36.5099983215332,-1.1380000114440918,-9.57800006866455,2.134999990463257
1621592514356,-49.84000015258789,6.456999778747559,39.16600036621094,-1.6080000400543213,-9.324999809265137,2.059999942779541
1621592514366,-48.439998626708984,5.548999786376953,39.07699966430664,-2.1570000648498535,-9.21399974822998,1.88100004196167
1621592514376,-45.290000915527344,7.210999965667725,36.10100173950195,-2.7070000171661377,-9.135000228881836,1.656000018119812
1621592514386,-41.58000183105469,11.593000411987305,30.191999435424805,-3.138000011444092,-9.138999938964846,1.4559999704360962
1621592514396,-37.72999954223633,17.483999252319336,22.98500061035156,-3.3340001106262207,-9.336999893188477,1.2220000028610227
1621592514406,-34.29999923706055,23.760000228881836,16.415000915527344,-3.4519999027252197,-9.70300006866455,1.037999987602234
1621592514416,-31.290000915527344,30.082000732421875,12.411999702453612,-3.4519999027252197,-9.939000129699709,0.7969999909400939
1621592514426,-28.0,35.32400131225586,9.28499984741211,-3.2950000762939453,-10.220999717712402,0.5879999995231628
1621592514436,-25.1299991607666,39.8489990234375,6.599999904632568,-3.0989999771118164,-10.199999809265137,0.4720000028610229
1621592514446,-22.399999618530273,42.97100067138672,3.809999942779541,-2.8239998817443848,-9.947999954223633,0.3970000147819519
1621592514456,-20.020000457763672,45.49300003051758,-0.0099999997764825,-2.510999917984009,-9.70300006866455,0.3600000143051147
1621592514466,-17.989999771118164,46.98899841308594,-4.863999843597412,-2.1570000648498535,-9.418999671936035,0.3310000002384185
1621592514476,-16.520000457763672,47.52299880981445,-9.105999946594238,-1.7649999856948853,-9.135000228881836,0.3009999990463256
1621592514486,-14.770000457763672,46.257999420166016,-11.604000091552734,-1.3730000257492063,-8.843999862670898,0.2329999953508377
1621592514496,-13.300000190734863,43.12300109863281,-12.369999885559082,-1.0590000152587893,-8.619000434875488,0.3129999935626983
1621592514506,-12.109999656677246,39.040000915527344,-11.383999824523926,-0.8240000009536743,-8.53499984741211,0.2879999876022338
1621592514516,-10.779999732971191,34.74599838256836,-10.008999824523926,-0.6669999957084655,-8.527999877929688,0.248999997973442
1621592514526,-9.869999885559082,30.090999603271484,-8.199000358581543,-0.5879999995231628,-8.567000389099121,0.2419999986886978
1621592514536,-9.380000114440918,25.025999069213867,-6.888999938964844,-0.6669999957084655,-8.682999610900879,0.2220000028610229
1621592514546,-9.204999923706056,23.05749893188477,-6.205499649047852,-0.7059999704360961,-8.767000198364258,0.2469999939203262
1621592514556,-9.029999732971191,21.089000701904297,-5.521999835968018,-0.8240000009536743,-8.85099983215332,0.2720000147819519
1621592514566,-8.75,18.222000122070312,-5.388000011444092,-1.0199999809265137,-8.942000389099121,0.3350000083446502
1621592514576,-8.680000305175781,15.550000190734863,-5.1479997634887695,-1.215999960899353,-9.109999656677246,0.3849999904632568
1621592514586,-8.1899995803833,14.333999633789064,-5.505000114440918,-1.4119999408721924,-9.23900032043457,0.44200000166893
1621592514596,-7.9099998474121085,14.038000106811523,-5.841000080108643,-1.6480000019073486,-9.29800033569336,0.5509999990463256
1621592514606,-7.0,14.269000053405762,-7.151000022888184,-1.8040000200271609,-9.388999938964846,0.615000009536743
1621592514616,-5.320000171661377,15.939000129699709,-8.562000274658203,-1.9220000505447388,-9.40999984741211,0.731000006198883
1621592514626,-3.7799999713897705,17.999000549316406,-10.970999717712402,-2.0399999618530273,-9.43000030517578,0.847000002861023
1621592514636,-2.309999942779541,20.333999633789062,-13.33199977874756,-2.1570000648498535,-9.513999938964846,0.871999979019165
1621592514646,-0.2800000011920929,23.099000930786133,-16.11400032043457,-2.236000061035156,-9.612000465393066,0.9739999771118164
1621592514656,1.1200000047683716,26.309999465942383,-18.604000091552734,-2.313999891281128,-9.812000274658203,0.977999985218048
1621592514666,1.5399999618530271,30.45400047302246,-21.14299964904785,-2.431999921798706,-9.960000038146973,0.9129999876022338
1621592514676,0.4900000095367431,35.270999908447266,-23.06599998474121,-2.510999917984009,-10.152999877929688,0.8790000081062316
1621592514686,-1.1200000047683716,41.25199890136719,-25.138999938964844,-2.549999952316284,-10.345999717712402,0.8439999818801879
1621592514696,-2.940000057220459,47.39099884033203,-26.89900016784668,-2.510999917984009,-10.447999954223633,0.746999979019165
1621592514706,-5.460000038146973,52.47999954223633,-27.138999938964844,-2.3929998874664307,-10.505000114440918,0.6169999837875366
1621592514716,-8.539999961853027,55.88600158691406,-27.10700035095215,-2.2750000953674316,-10.498000144958496,0.5789999961853027
1621592514725,-11.130000114440918,58.457000732421875,-26.3700008392334,-2.0789999961853027,-10.432000160217283,0.4309999942779541
1621592514735,-13.369999885559082,59.8120002746582,-25.98900032043457,-1.8040000200271609,-10.218999862670898,0.3490000069141387
1621592514745,-15.119999885559082,59.847999572753906,-26.19499969482422,-1.5299999713897705,-10.043999671936035,0.2599999904632568
1621592514755,-16.3799991607666,58.875,-26.722000122070312,-1.3339999914169312,-9.791000366210936,0.1850000023841857
1621592514765,-16.729999542236328,56.867000579833984,-27.43199920654297,-1.1380000114440918,-9.57800006866455,0.1040000021457672
1621592514775,-15.81999969482422,54.53200149536133,-28.69700050354004,-0.981000006198883,-9.357000350952148,-0.0170000009238719
1621592514785,-15.119999885559082,53.410499572753906,-29.392000198364254,-0.8240000009536743,-9.151000022888184,-0.0599999986588954
1621592514795,-14.420000076293944,52.28900146484375,-30.086999893188477,-0.7450000047683715,-8.92300033569336,-0.2189999967813491
1621592514805,-12.25,49.499000549316406,-32.000999450683594,-0.7059999704360961,-8.852999687194824,-0.1669999957084655
1621592514815,-9.380000114440918,47.24800109863281,-33.74800109863281,-0.7059999704360961,-8.776000022888184,-0.152999997138977
1621592514825,-6.090000152587891,45.630001068115234,-35.45500183105469,-0.6669999957084655,-8.782999992370605,-0.1150000020861625
1621592514835,-2.940000057220459,44.08100128173828,-37.150001525878906,-0.5879999995231628,-8.782999992370605,-0.1150000020861625
1621592514845,-0.209999993443489,42.75899887084961,-38.52000045776367,-0.5099999904632568,-8.873000144958496,-0.0509999990463256
1621592514855,2.380000114440918,41.13199996948242,-39.375999450683594,-0.4709999859333038,-8.918999671936035,-0.0189999993890523
1621592514865,5.110000133514404,40.256000518798835,-40.45399856567382,-0.4309999942779541,-8.970999717712402,0.0509999990463256
1621592514875,7.559999942779541,40.31700134277344,-40.79899978637695,-0.3529999852180481,-9.069000244140623,0.1539999991655349
1621592514885,10.079999923706056,40.20399856567382,-40.96099853515625,-0.3140000104904174,-9.121000289916992,0.2240000069141387
1621592514895,12.600000381469728,40.54399871826172,-41.68299865722656,-0.3140000104904174,-9.211999893188477,0.2879999876022338
1621592514905,15.1899995803833,41.32699966430664,-41.6870002746582,-0.2349999994039535,-9.347999572753906,0.3829999864101409
1621592514915,17.5,42.368999481201165,-41.14799880981445,-0.1959999948740005,-9.425999641418455,0.3689999878406524
1621592514925,19.38999938964844,43.20399856567382,-40.64500045776367,0.0390000008046627,-9.58199977874756,0.5809999704360961
1621592514935,20.86000061035156,43.35499954223633,-39.48099899291992,0.1570000052452087,-9.635000228881836,0.6510000228881835
1621592514945,21.770000457763672,43.35900115966797,-37.4900016784668,0.2750000059604644,-9.687000274658203,0.722000002861023
1621592514955,22.329999923706055,42.86800003051758,-35.51599884033203,0.4309999942779541,-9.8100004196167,0.740000009536743
1621592514965,22.61000061035156,42.04199981689453,-33.244998931884766,0.5099999904632568,-9.78499984741211,0.8240000009536743
1621592514975,22.540000915527344,41.15399932861328,-30.628999710083008,0.6280000209808348,-9.760000228881836,0.9079999923706054
1621592514985,22.260000228881836,39.4109992980957,-28.804000854492188,0.6669999957084655,-9.753000259399414,0.8690000176429749
1621592514995,21.84000015258789,37.720001220703125,-27.680999755859375,0.7059999704360961,-9.668999671936035,0.8439999818801879
1621592515005,21.559999465942383,35.90299987792969,-26.649999618530273,0.6669999957084655,-9.746000289916992,0.8309999704360961
1621592515015,21.104999542236328,34.875,-26.26300048828125,0.6669999957084655,-9.815999984741213,0.7789999842643737
1621592515025,20.649999618530273,33.84700012207031,-25.875999450683594,0.6280000209808348,-9.8100004196167,0.740000009536743
1621592515035,20.09000015258789,31.68199920654297,-25.68899917602539,0.6669999957084655,-9.96399974822998,0.7129999995231628
1621592515045,19.040000915527344,29.739999771118164,-25.959999084472656,0.6280000209808348,-10.041000366210936,0.6990000009536743
1621592515055,17.5,27.801000595092773,-26.656999588012695,0.7059999704360961,-10.072999954223633,0.6539999842643737
1621592515065,15.260000228881836,26.43899917602539,-27.395000457763672,0.7059999704360961,-10.072999954223633,0.6539999842643737
1621592515075,13.090000152587892,24.698999404907227,-27.20400047302246,0.7059999704360961,-10.041000366210936,0.6990000009536743
1621592515085,11.199999809265137,23.583999633789062,-27.329999923706055,0.7059999704360961,-9.96399974822998,0.7129999995231628
1621592515095,9.520000457763674,22.19700050354004,-26.72100067138672,0.7450000047683715,-9.932000160217283,0.7580000162124633
1621592515105,8.890000343322754,21.099000930786133,-26.132999420166016,0.7850000262260437,-9.822999954223633,0.8169999718666076
1621592515115,8.890000343322754,19.97100067138672,-24.98200035095215,0.7850000262260437,-9.746000289916992,0.8309999704360961
1621592515125,9.170000076293944,19.143999099731445,-23.91900062561035,0.7850000262260437,-9.675000190734863,0.8830000162124633
1621592515135,9.729999542236328,18.34199905395508,-22.993999481201172,0.8240000009536743,-9.637000083923342,0.8899999856948853
1621592515145,10.56999969482422,17.757999420166016,-22.10199928283691,0.7850000262260437,-9.637000083923342,0.8899999856948853
1621592515155,11.0600004196167,17.23900032043457,-20.77199935913086,0.8240000009536743,-9.675000190734863,0.8830000162124633
1621592515165,11.550000190734863,16.687999725341797,-19.660999298095703,0.8240000009536743,-9.668999671936035,0.8439999818801879
1621592515175,11.970000267028809,16.22100067138672,-19.031999588012695,0.7850000262260437,-9.746000289916992,0.8309999704360961
1621592515185,11.970000267028809,15.543999671936035,-18.013999938964844,0.7450000047683715,-9.822999954223633,0.8169999718666076
1621592515195,11.0600004196167,15.024999618530272,-16.68400001525879,0.7450000047683715,-9.899999618530272,0.8040000200271606
1621592515205,9.800000190734863,14.961000442504885,-15.913999557495115,0.7450000047683715,-10.010000228881836,0.7440000176429749
1621592515215,8.609999656677246,15.05799961090088,-15.256999969482422,0.7059999704360961,-10.069000244140623,0.8539999723434448
1621592515225,7.349999904632568,14.961000442504885,-14.704999923706056,0.6280000209808348,-10.05500030517578,0.7760000228881835
1621592515235,6.859999656677246,15.157500267028809,-14.8125,0.6280000209808348,-10.015999794006348,0.7829999923706054
1621592515245,6.369999885559082,15.354000091552734,-14.920000076293944,0.5879999995231628,-9.939000129699709,0.7969999909400939
1621592515255,5.53000020980835,15.491999626159668,-14.895999908447266,0.5879999995231628,-9.815999984741213,0.7789999842643737
1621592515265,5.320000171661377,15.62600040435791,-14.446000099182127,0.5879999995231628,-9.822999954223633,0.8169999718666076
1621592515275,4.96999979019165,15.72700023651123,-14.215000152587892,0.5490000247955322,-9.822999954223633,0.8169999718666076
1621592515285,4.550000190734863,16.31100082397461,-13.89900016784668,0.5490000247955322,-9.815999984741213,0.7789999842643737
1621592515295,4.269999980926514,16.46500015258789,-13.16100025177002,0.5490000247955322,-9.862000465393066,0.8100000023841857
1621592515305,3.7100000381469727,16.770000457763672,-12.467000007629396,0.6280000209808348,-9.906999588012695,0.8420000076293945
1621592515315,2.869999885559082,17.292999267578125,-11.805999755859377,0.6669999957084655,-9.836999893188477,0.8939999938011169
1621592515325,1.8899999856948853,17.2810001373291,-10.529000282287598,0.6669999957084655,-9.80500030517578,0.9399999976158142
1621592515335,1.2599999904632568,17.292999267578125,-9.390000343322754,0.7059999704360961,-9.772999763488768,0.9850000143051147
1621592515345,0.4199999868869781,16.05299949645996,-8.399999618530273,0.7450000047683715,-9.734999656677246,0.9919999837875366
1621592515355,0.5600000023841857,15.496999740600586,-8.071999549865723,0.7450000047683715,-9.656999588012695,1.00600004196167
1621592515365,-0.1400000005960464,14.390000343322754,-7.8400001525878915,0.7850000262260437,-9.600000381469728,1.1349999904632568
1621592515375,0.4199999868869781,13.355999946594238,-8.02299976348877,0.6669999957084655,-9.586999893188477,1.0579999685287476
1621592515385,0.9100000262260436,12.175999641418455,-8.586000442504883,0.6280000209808348,-9.54800033569336,1.065000057220459
1621592515395,1.190000057220459,11.29599952697754,-9.23900032043457,0.6280000209808348,-9.510000228881836,1.0720000267028809
1621592515405,2.0299999713897705,11.043999671936035,-9.425000190734863,0.6280000209808348,-9.51599979400635,1.1100000143051147
1621592515415,2.940000057220459,10.366999626159668,-9.616000175476074,0.5879999995231628,-9.522999763488768,1.14900004863739
1621592515425,3.6400001049041744,10.253999710083008,-9.777999877929688,0.5490000247955322,-9.569000244140623,1.180999994277954
1621592515435,4.235000133514404,10.17300033569336,-9.720999717712402,0.5490000247955322,-9.645999908447264,1.1670000553131104
1621592515445,4.829999923706055,10.092000007629396,-9.663999557495115,0.5099999904632568,-9.715999603271484,1.1150000095367432
1621592515455,5.25,9.774999618530272,-9.079999923706056,0.5099999904632568,-9.762000083923342,1.1469999551773071
1621592515465,4.690000057220459,9.244000434875488,-8.890000343322754,0.4709999859333038,-9.83199977874756,1.093999981880188
1621592515475,3.849999904632568,8.720999717712402,-8.342000007629395,0.4709999859333038,-9.83199977874756,1.093999981880188
1621592515485,2.5199999809265137,8.385000228881836,-8.045999526977539,0.3919999897480011,-9.824999809265137,1.055999994277954
1621592515495,1.4700000286102295,7.739999771118165,-8.017999649047852,0.4709999859333038,-9.824999809265137,1.055999994277954
1621592515505,0.4199999868869781,7.73199987411499,-8.375,0.4309999942779541,-9.812000274658203,0.977999985218048
1621592515515,-0.6299999952316284,7.728000164031982,-9.156999588012695,0.3919999897480011,-9.850000381469728,0.9720000028610228
1621592515525,-1.3300000429153442,7.47599983215332,-10.552000045776367,0.3529999852180481,-9.819000244140623,1.0169999599456787
1621592515535,-2.0999999046325684,7.552999973297118,-11.392000198364258,0.3529999852180481,-9.819000244140623,1.0169999599456787
1621592515545,-3.0799999237060547,7.41099977493286,-12.197999954223633,0.3529999852180481,-9.779999732971191,1.02400004863739
1621592515555,-3.7100000381469727,7.65399980545044,-13.57699966430664,0.3919999897480011,-9.696000099182127,0.9990000128746032
1621592515565,-3.430000066757202,7.767000198364258,-14.623000144958496,0.4709999859333038,-9.663999557495115,1.0440000295639038
1621592515575,-3.009999990463257,7.77899980545044,-14.69200038909912,0.5099999904632568,-9.579999923706056,1.0190000534057615
1621592515585,-2.309999942779541,7.645999908447266,-15.142000198364258,0.6280000209808348,-9.503000259399414,1.0329999923706057
1621592515595,-0.8399999737739563,6.839000225067139,-15.0,0.6669999957084655,-9.46399974822998,1.0399999618530271
1621592515605,0.8399999737739563,5.379000186920166,-13.977999687194824,0.7450000047683715,-9.432000160217283,1.0850000381469729
1621592515615,2.869999885559082,3.7820000648498535,-11.772000312805176,0.8629999756813049,-9.446000099182127,1.1619999408721924
1621592515625,3.3249998092651367,2.8575000762939453,-10.762500762939451,0.8629999756813049,-9.470999717712402,1.0779999494552612
1621592515635,3.7799999713897705,1.9329999685287476,-9.753000259399414,0.8629999756813049,-9.470999717712402,1.0779999494552612
1621592515645,5.179999828338623,0.4729999899864196,-8.729999542236328,0.8629999756813049,-9.477999687194824,1.1169999837875366
1621592515655,6.369999885559082,-0.9990000128746032,-8.847999572753906,0.9020000100135804,-9.477999687194824,1.1169999837875366
1621592515665,6.929999828338623,-2.365000009536743,-9.15999984741211,0.8629999756813049,-9.491000175476074,1.194000005722046
1621592515675,7.769999980926514,-3.9309999942779545,-9.152000427246092,0.8629999756813049,-9.498000144958496,1.2330000400543213
1621592515685,8.470000267028809,-5.864999771118164,-9.065999984741213,0.9020000100135804,-9.536999702453612,1.22599995136261
1621592515695,8.680000305175781,-7.3410000801086435,-8.758000373840332,0.9020000100135804,-9.58199977874756,1.2580000162124634
1621592515705,9.029999732971191,-8.784000396728516,-8.229999542236328,0.9020000100135804,-9.58899974822998,1.2970000505447388
1621592515715,9.65999984741211,-10.366000175476074,-7.7270002365112305,0.9409999847412108,-9.58899974822998,1.2970000505447388
1621592515725,9.59000015258789,-12.039999961853027,-7.098999977111816,0.9409999847412108,-9.550000190734863,1.3029999732971191
1621592515735,9.59000015258789,-13.265000343322754,-6.604000091552734,0.9020000100135804,-9.51900005340576,1.3489999771118164
1621592515745,10.149999618530272,-14.189000129699709,-6.197999954223633,0.9409999847412108,-9.557000160217283,1.3420000076293943
1621592515755,10.079999923706056,-15.656999588012695,-5.5329999923706055,0.9409999847412108,-9.602999687194824,1.3739999532699585
1621592515765,10.010000228881836,-16.825000762939453,-4.956999778747559,0.9409999847412108,-9.647999763488768,1.406000018119812
1621592515775,9.869999885559082,-17.71299934387207,-4.757999897003174,0.9020000100135804,-9.694000244140623,1.437000036239624
1621592515785,9.729999542236328,-18.36199951171875,-4.303999900817871,0.8629999756813049,-9.725000381469728,1.3919999599456787
1621592515795,9.239999771118164,-19.24099922180176,-3.747999906539917,0.8629999756813049,-9.732000350952148,1.430999994277954
1621592515805,8.680000305175781,-19.820999145507812,-3.2820000648498535,0.8629999756813049,-9.732000350952148,1.430999994277954
1621592515815,8.610000610351562,-20.05849838256836,-3.1459999084472656,0.8629999756813049,-9.661999702453612,1.4830000400543213
1621592515825,8.539999961853027,-20.29599952697754,-3.009999990463257,0.8629999756813049,-9.623000144958496,1.4900000095367432
1621592515835,8.329999923706055,-20.819000244140625,-2.4630000591278076,0.8240000009536743,-9.623000144958496,1.4900000095367432
1621592515845,8.470000267028809,-21.24799919128418,-2.0409998893737793,0.7450000047683715,-9.54599952697754,1.503000020980835
1621592515855,8.819999694824219,-21.430999755859375,-2.2149999141693115,0.7059999704360961,-9.553000450134276,1.5420000553131104
1621592515865,9.029999732971191,-21.46299934387207,-2.434000015258789,0.7059999704360961,-9.553000450134276,1.5420000553131104
1621592515875,9.239999771118164,-21.608999252319336,-2.815000057220459,0.6669999957084655,-9.597999572753906,1.5740000009536743
1621592515885,9.800000190734863,-21.434999465942383,-2.997999906539917,0.6280000209808348,-9.597999572753906,1.5740000009536743
1621592515895,9.65999984741211,-21.44700050354004,-2.928999900817871,0.6280000209808348,-9.604999542236328,1.6119999885559082
1621592515905,9.520000457763674,-21.06999969482422,-2.6489999294281006,0.6280000209808348,-9.612000465393066,1.6510000228881836
1621592515915,9.3100004196167,-20.729000091552734,-2.1619999408721924,0.6280000209808348,-9.619000434875488,1.690000057220459
1621592515925,9.380000114440918,-20.52300071716309,-2.125999927520752,0.5490000247955322,-9.586999893188477,1.7350000143051147
1621592515935,9.380000114440918,-19.979000091552734,-2.385999917984009,0.5879999995231628,-9.586999893188477,1.7350000143051147
1621592515945,9.520000457763674,-19.1200008392334,-3.2290000915527344,0.5879999995231628,-9.579999923706056,1.6959999799728394
1621592515955,9.520000457763674,-18.608999252319336,-3.7079999446868896,0.5879999995231628,-9.579999923706056,1.6959999799728394
1621592515965,9.65999984741211,-18.073999404907227,-4.323999881744385,0.6280000209808348,-9.586999893188477,1.7350000143051147
1621592515975,9.729999542236328,-17.3439998626709,-4.835000038146973,0.6280000209808348,-9.54800033569336,1.7419999837875366
1621592515985,9.520000457763674,-16.07900047302246,-4.754000186920166,0.6280000209808348,-9.586999893188477,1.7350000143051147
1621592515995,9.170000076293944,-15.18299961090088,-4.5960001945495605,0.5879999995231628,-9.625,1.7280000448226929
1621592516005,9.100000381469728,-14.774999618530272,-4.488500118255615,0.5879999995231628,-9.63199996948242,1.7669999599456787
1621592516015,9.029999732971191,-14.366999626159668,-4.38100004196167,0.6280000209808348,-9.625,1.7280000448226929
1621592516025,8.680000305175781,-13.345999717712402,-4.130000114440918,0.6280000209808348,-9.612000465393066,1.6510000228881836
1621592516035,8.470000267028809,-12.854999542236328,-3.687999963760376,0.7059999704360961,-9.70300006866455,1.7150000333786013
1621592516045,8.1899995803833,-12.11299991607666,-3.059999942779541,0.6280000209808348,-9.67099952697754,1.7599999904632568
1621592516055,7.980000019073486,-11.269000053405762,-3.4089999198913574,0.6669999957084655,-9.663999557495115,1.7220000028610227
1621592516065,7.070000171661377,-10.506999969482422,-3.700999975204468,0.6669999957084655,-9.67099952697754,1.7599999904632568
1621592516075,6.369999885559082,-9.298999786376951,-3.700999975204468,0.6280000209808348,-9.708999633789062,1.753000020980835
1621592516085,5.460000038146973,-8.734999656677246,-3.67300009727478,0.6280000209808348,-9.755000114440918,1.7849999666213987
1621592516095,4.900000095367432,-8.053999900817871,-3.9079999923706055,0.6280000209808348,-9.748000144958496,1.746999979019165
1621592516105,4.059999942779541,-6.909999847412109,-4.3460001945495605,0.6280000209808348,-9.715999603271484,1.7920000553131104
1621592516115,3.7100000381469727,-6.427999973297119,-4.261000156402588,0.6280000209808348,-9.678000450134276,1.7990000247955322
1621592516125,3.569999933242798,-5.203000068664551,-4.75600004196167,0.5879999995231628,-9.684000015258787,1.837000012397766
1621592516135,3.1500000953674316,-4.330999851226807,-4.460000038146973,0.5879999995231628,-9.652999877929688,1.8830000162124632
1621592516145,2.940000057220459,-3.0299999713897705,-4.585999965667725,0.5879999995231628,-9.652999877929688,1.8830000162124632
1621592516155,2.799999952316284,-2.1659998893737793,-4.646999835968018,0.5879999995231628,-9.652999877929688,1.8830000162124632
1621592516165,2.450000047683716,-1.131999969482422,-4.464000225067139,0.6280000209808348,-9.607000350952148,1.85099995136261
1621592516175,2.309999942779541,-0.7990000247955322,-4.335000038146973,0.6280000209808348,-9.607000350952148,1.85099995136261
1621592516185,2.380000114440918,-0.3980000019073486,-4.192999839782715,0.5879999995231628,-9.607000350952148,1.85099995136261
1621592516195,2.450000047683716,0.003000000026077,-4.051000118255615,0.5879999995231628,-9.574999809265137,1.8960000276565552
1621592516205,2.380000114440918,0.6809999942779541,-3.8599998950958256,0.6280000209808348,-9.574999809265137,1.8960000276565552
1621592516215,2.5199999809265137,0.574999988079071,-3.6659998893737793,0.6669999957084655,-9.621000289916992,1.9279999732971191
1621592516225,2.5199999809265137,0.8389999866485595,-3.5480000972747803,0.6669999957084655,-9.621000289916992,1.9279999732971191
1621592516235,2.5199999809265137,0.9079999923706054,-3.5360000133514404,0.7059999704360961,-9.58899974822998,1.9739999771118164
1621592516245,2.5199999809265137,1.253000020980835,-3.4749999046325684,0.6669999957084655,-9.58199977874756,1.934999942779541
1621592516255,2.0999999046325684,1.2769999504089355,-3.61299991607666,0.6669999957084655,-9.61400032043457,1.8899999856948853
1621592516265,1.8200000524520872,1.0700000524520874,-3.650000095367432,0.6669999957084655,-9.621000289916992,1.9279999732971191
1621592516275,1.6100000143051147,1.0579999685287476,-3.5810000896453857,0.7059999704360961,-9.652999877929688,1.8830000162124632
1621592516285,0.699999988079071,0.7419999837875366,-2.996999979019165,0.6669999957084655,-9.652999877929688,1.8830000162124632
1621592516295,-0.1400000005960464,0.981000006198883,-2.740999937057495,0.6669999957084655,-9.690999984741213,1.8760000467300415
1621592516305,-0.6299999952316284,1.3539999723434448,-3.24399995803833,0.6669999957084655,-9.697999954223633,1.9149999618530271
1621592516315,-0.8399999737739563,1.5529999732971191,-3.565000057220459,0.6280000209808348,-9.659000396728516,1.9210000038146973
1621592516325,-0.9100000262260436,1.378000020980835,-3.381999969482422,0.6280000209808348,-9.61400032043457,1.8899999856948853
1621592516335,-0.9100000262260436,1.8609999418258667,-3.296999931335449,0.6280000209808348,-9.595999717712402,2.01200008392334
1621592516345,-0.4199999868869781,2.13700008392334,-3.247999906539917,0.5879999995231628,-9.550000190734863,1.9809999465942385
1621592516355,-0.2449999898672103,1.9605000019073489,-2.8529999256134033,0.5490000247955322,-9.505000114440918,1.9490000009536743
1621592516364,-0.0700000002980232,1.784000039100647,-2.4579999446868896,0.5490000247955322,-9.505000114440918,1.9490000009536743
1621592516374,0.209999993443489,1.88100004196167,-1.8009999990463257,0.5490000247955322,-9.505000114440918,1.9490000009536743
1621592516384,0.8399999737739563,1.7799999713897705,-2.0320000648498535,0.5099999904632568,-9.498000144958496,1.9099999666213987
1621592516394,1.4700000286102295,1.7640000581741333,-2.744999885559082,0.5099999904632568,-9.465999603271484,1.955999970436096
1621592516404,1.8200000524520872,2.0429999828338623,-3.122999906539917,0.5099999904632568,-9.428000450134276,1.962000012397766
1621592516414,2.0999999046325684,2.4609999656677246,-3.4749999046325684,0.4709999859333038,-9.458999633789062,1.9170000553131104
1621592516424,2.5899999141693115,3.072999954223633,-3.723000049591065,0.3919999897480011,-9.472999572753906,1.99399995803833
1621592516434,2.940000057220459,3.259999990463257,-3.973999977111816,0.3140000104904174,-9.465999603271484,1.955999970436096
1621592516444,3.1500000953674316,4.159999847412109,-4.242000102996826,0.3529999852180481,-9.51900005340576,2.0260000228881836
1621592516454,3.009999990463257,4.748000144958496,-4.3520002365112305,0.3140000104904174,-9.564000129699709,2.058000087738037
1621592516464,2.940000057220459,5.245999813079834,-4.761000156402588,0.3140000104904174,-9.571000099182127,2.0959999561309814
1621592516474,2.7300000190734863,5.927999973297119,-4.997000217437744,0.3140000104904174,-9.571000099182127,2.0959999561309814
1621592516484,2.450000047683716,6.589000225067139,-5.519999980926514,0.3529999852180481,-9.616000175476074,2.128000020980835
1621592516494,1.8899999856948853,7.4120001792907715,-6.1570000648498535,0.3529999852180481,-9.661999702453612,2.1600000858306885
1621592516504,1.0499999523162842,8.255000114440918,-6.505000114440918,0.2750000059604644,-9.699999809265137,2.1530001163482666
1621592516514,0.4899999797344207,9.02549934387207,-6.440500259399414,0.2750000059604644,-9.746000289916992,2.184999942779541
1621592516524,-0.0700000002980232,9.79599952697754,-6.375999927520752,0.2750000059604644,-9.746000289916992,2.184999942779541
1621592516534,-1.3300000429153442,10.814000129699709,-6.9070000648498535,0.3140000104904174,-9.746000289916992,2.184999942779541
1621592516544,-2.240000009536743,11.625,-7.474999904632568,0.2750000059604644,-9.746000289916992,2.184999942779541
1621592516554,-2.940000057220459,12.5,-7.605000019073486,0.2750000059604644,-9.699999809265137,2.1530001163482666
1621592516564,-3.7799999713897705,13.44499969482422,-7.723000049591064,0.2750000059604644,-9.661999702453612,2.1600000858306885
1621592516574,-4.550000190734863,13.97599983215332,-7.913000106811523,0.2349999994039535,-9.687000274658203,2.075999975204468
1621592516584,-4.900000095367432,14.682000160217283,-8.28600025177002,0.3140000104904174,-9.647999763488768,2.0829999446868896
1621592516594,-5.25,15.444000244140623,-8.57800006866455,0.3529999852180481,-9.609000205993652,2.0899999141693115
1621592516604,-5.880000114440918,16.170000076293945,-8.663999557495117,0.3529999852180481,-9.609000205993652,2.0899999141693115
1621592516614,-5.809999942779541,16.53499984741211,-8.3149995803833,0.3919999897480011,-9.609000205993652,2.0899999141693115
1621592516624,-6.650000095367432,16.591999053955078,-8.234000205993652,0.3919999897480011,-9.602999687194824,2.0510001182556152
1621592516634,-6.929999828338623,16.67300033569336,-8.291000366210938,0.3919999897480011,-9.602999687194824,2.0510001182556152
1621592516644,-6.929999828338623,16.506999969482422,-7.750999927520752,0.3919999897480011,-9.564000129699709,2.058000087738037
1621592516654,-6.650000095367432,16.469999313354492,-7.545000076293945,0.4709999859333038,-9.564000129699709,2.058000087738037
1621592516664,-5.599999904632568,16.332000732421875,-7.568999767303467,0.4709999859333038,-9.51900005340576,2.0260000228881836
1621592516674,-5.25,16.12150001525879,-7.7839999198913565,0.5099999904632568,-9.472999572753906,1.99399995803833
1621592516684,-4.900000095367432,15.91100025177002,-7.999000072479248,0.5490000247955322,-9.512000083923342,1.986999988555908
1621592516694,-4.409999847412109,15.659000396728516,-8.1850004196167,0.5099999904632568,-9.550000190734863,1.9809999465942385
1621592516704,-4.409999847412109,15.204999923706056,-8.833999633789062,0.5099999904632568,-9.550000190734863,1.9809999465942385
1621592516714,-4.690000057220459,14.564000129699709,-9.230999946594238,0.4709999859333038,-9.58199977874756,1.934999942779541
1621592516724,-4.96999979019165,14.239999771118164,-9.003999710083008,0.5490000247955322,-9.58199977874756,1.934999942779541
1621592516734,-5.389999866485596,13.928000450134276,-8.845999717712402,0.5099999904632568,-9.61400032043457,1.8899999856948853
1621592516744,-5.949999809265137,13.383999824523926,-8.586000442504883,0.4709999859333038,-9.63199996948242,1.7669999599456787
1621592516754,-6.650000095367432,13.043999671936035,-9.072999954223633,0.4709999859333038,-9.63199996948242,1.7669999599456787
1621592516764,-6.860000133514404,12.711000442504885,-9.20300006866455,0.5099999904632568,-9.67099952697754,1.7599999904632568
1621592516774,-7.139999866485596,12.711000442504885,-9.20300006866455,0.4709999859333038,-9.63199996948242,1.7669999599456787
1621592516784,-7.420000076293945,12.126999855041504,-9.51900005340576,0.4309999942779541,-9.663999557495115,1.7220000028610227
1621592516794,-7.769999980926514,11.831000328063965,-9.854999542236328,0.4309999942779541,-9.656999588012695,1.6829999685287476
1621592516804,-8.050000190734863,11.961000442504885,-10.187999725341797,0.3919999897480011,-9.696000099182127,1.6759999990463257
1621592516814,-8.609999656677246,12.508000373840332,-10.873000144958496,0.3140000104904174,-9.656999588012695,1.6829999685287476
1621592516824,-9.029999732971191,13.420000076293944,-11.210000038146973,0.2750000059604644,-9.612000465393066,1.6510000228881836
1621592516834,-9.029999732971191,13.715999603271484,-11.477499961853027,0.2750000059604644,-9.612000465393066,1.6510000228881836
1621592516844,-9.029999732971191,14.01200008392334,-11.744999885559082,0.2750000059604644,-9.604999542236328,1.6119999885559082
1621592516854,-8.890000343322754,14.67300033569336,-12.267999649047852,0.3140000104904174,-9.565999984741213,1.61899995803833
1621592516864,-8.960000038146973,15.699000358581545,-12.442999839782717,0.3140000104904174,-9.612000465393066,1.6510000228881836
1621592516874,-8.960000038146973,16.902999877929688,-13.22599983215332,0.3140000104904174,-9.572999954223633,1.6579999923706057
1621592516884,-8.890000343322754,18.257999420166016,-14.053000450134276,0.3140000104904174,-9.565999984741213,1.61899995803833
1621592516894,-8.960000038146973,18.700000762939453,-14.543999671936035,0.3529999852180481,-9.534000396728516,1.6649999618530271
1621592516904,-8.890000343322754,19.742000579833984,-15.213000297546388,0.3529999852180481,-9.527999877929688,1.6260000467300415
1621592516914,-8.819999694824219,20.584999084472656,-15.562000274658203,0.3529999852180481,-9.559000015258787,1.5809999704360962
1621592516924,-8.960000038146973,21.107999801635746,-16.108999252319336,0.3529999852180481,-9.559000015258787,1.5809999704360962
1621592516934,-8.819999694824219,22.37700080871582,-16.45400047302246,0.3919999897480011,-9.520999908447264,1.587000012397766
1621592516944,-8.680000305175781,23.013999938964844,-16.84000015258789,0.4709999859333038,-9.482000350952148,1.593999981880188
1621592516954,-7.980000019073486,24.027999877929688,-16.94499969482422,0.5490000247955322,-9.482000350952148,1.593999981880188
1621592516964,-6.929999828338623,24.63599967956543,-16.767000198364258,0.6280000209808348,-9.482000350952148,1.593999981880188
1621592516974,-6.300000190734863,24.701000213623047,-16.32900047302246,0.6669999957084655,-9.482000350952148,1.593999981880188
1621592516984,-5.320000171661377,24.993000030517575,-15.56700038909912,0.7450000047683715,-9.482000350952148,1.593999981880188
1621592516994,-4.96999979019165,24.22699928283691,-14.848999977111816,0.8240000009536743,-9.565999984741213,1.61899995803833
1621592517004,-4.585000038146973,23.946998596191406,-14.471500396728516,0.8629999756813049,-9.520999908447264,1.587000012397766
1621592517014,-4.199999809265137,23.66699981689453,-14.093999862670898,0.8629999756813049,-9.475000381469728,1.555999994277954
1621592517024,-3.569999933242798,22.690000534057617,-12.987000465393066,0.9020000100135804,-9.553000450134276,1.5420000553131104
1621592517034,-2.940000057220459,21.409000396728516,-12.572999954223633,0.9020000100135804,-9.553000450134276,1.5420000553131104
1621592517044,-2.7300000190734863,20.04599952697754,-12.102999687194824,0.981000006198883,-9.553000450134276,1.5420000553131104
1621592517054,-2.450000047683716,18.959999084472656,-11.583999633789064,0.981000006198883,-9.630000114440918,1.5279999971389773
1621592517064,-2.450000047683716,18.13599967956543,-10.946999549865724,1.0199999809265137,-9.623000144958496,1.4900000095367432
1621592517074,-2.309999942779541,16.777999877929688,-9.694000244140623,1.0590000152587893,-9.623000144958496,1.4900000095367432
1621592517084,-2.309999942779541,15.06700038909912,-8.857999801635742,1.0590000152587893,-9.699999809265137,1.47599995136261
1621592517094,-2.450000047683716,12.894000053405762,-7.820000171661377,1.0980000495910645,-9.70699977874756,1.5149999856948853
1621592517104,-3.1500000953674316,11.081000328063965,-7.2150001525878915,1.0590000152587893,-9.70699977874756,1.5149999856948853
1621592517114,-3.5,9.491999626159668,-7.068999767303467,1.0199999809265137,-9.668999671936035,1.5219999551773071
1621592517124,-3.7799999713897705,8.125,-7.381000041961671,1.0199999809265137,-9.668999671936035,1.5219999551773071
1621592517134,-4.130000114440918,6.1579999923706055,-7.514999866485595,1.0199999809265137,-9.661999702453612,1.4830000400543213
1621592517144,-4.619999885559082,4.545000076293945,-7.230999946594238,0.981000006198883,-9.668999671936035,1.5219999551773071
1621592517154,-4.690000057220459,2.9189999103546143,-6.877999782562256,0.9020000100135804,-9.73900032043457,1.468999981880188
1621592517164,-5.039999961853027,1.89300000667572,-6.703000068664551,0.8629999756813049,-9.777999877929688,1.462000012397766
1621592517174,-5.215000152587891,1.4184999465942385,-6.43149995803833,0.7850000262260437,-9.777999877929688,1.462000012397766
1621592517184,-5.389999866485596,0.944000005722046,-6.159999847412109,0.7450000047683715,-9.847999572753906,1.4099999666213987
1621592517194,-6.440000057220459,-0.0489999987185001,-5.765999794006348,0.7450000047683715,-9.89400005340576,1.4420000314712524
1621592517204,-7.420000076293945,-1.2580000162124634,-5.765999794006348,0.7059999704360961,-9.887000083923342,1.4029999971389773
1621592517214,-8.819999694824219,-1.1200000047683716,-5.742000102996826,0.6669999957084655,-9.887000083923342,1.4029999971389773
1621592517224,-10.43000030517578,-0.5320000052452087,-5.85099983215332,0.6280000209808348,-9.887000083923342,1.4029999971389773
1621592517234,-11.550000190734863,-0.4429999887943267,-5.551000118255615,0.5490000247955322,-9.887000083923342,1.4029999971389773
1621592517244,-13.090000152587892,-0.0089999996125698,-5.190000057220459,0.5490000247955322,-9.887000083923342,1.4029999971389773
1621592517254,-14.210000038146973,0.4050000011920929,-5.117000102996826,0.5099999904632568,-9.840999603271484,1.371999979019165
1621592517264,-15.470000267028809,1.7960000038146973,-4.942999839782715,0.5099999904632568,-9.803000450134276,1.378000020980835
1621592517274,-15.890000343322754,2.684000015258789,-5.142000198364258,0.4709999859333038,-9.79599952697754,1.3400000333786013
1621592517284,-16.59000015258789,3.67300009727478,-5.110000133514404,0.4709999859333038,-9.711999893188477,1.315000057220459
1621592517294,-17.290000915527344,4.959000110626221,-4.741000175476074,0.3919999897480011,-9.737000465393066,1.2309999465942385
1621592517304,-17.219999313354492,5.960000038146973,-4.7779998779296875,0.3529999852180481,-9.710000038146973,1.0759999752044678
1621592517314,-17.56999969482422,7.52899980545044,-5.211999893188477,0.3919999897480011,-9.800000190734863,1.1399999856948853
1621592517324,-18.270000457763672,9.119000434875488,-5.357999801635742,0.4309999942779541,-9.83899974822998,1.1330000162124634
1621592517334,-19.040000915527344,10.56700038909912,-5.103000164031982,0.4309999942779541,-9.878000259399414,1.1260000467300415
1621592517344,-19.809999465942383,12.33899974822998,-5.074999809265137,0.3919999897480011,-9.83899974822998,1.1330000162124634
1621592517354,-20.229999542236328,13.040499687194824,-5.021999835968018,0.3919999897480011,-9.83199977874756,1.093999981880188
1621592517364,-20.649999618530273,13.741999626159668,-4.968999862670898,0.4309999942779541,-9.83199977874756,1.093999981880188
1621592517374,-21.489999771118164,15.335000038146973,-4.333000183105469,0.4309999942779541,-9.741000175476074,1.031000018119812
1621592517384,-22.329999923706055,16.64900016784668,-3.319000005722046,0.4309999942779541,-9.656999588012695,1.00600004196167
1621592517394,-22.61000061035156,17.78499984741211,-2.9059998989105225,0.4709999859333038,-9.612000465393066,0.9739999771118164
1621592517404,-22.469999313354492,18.795000076293945,-2.5859999656677246,0.5099999904632568,-9.604999542236328,0.9350000023841856
1621592517414,-22.190000534057617,19.979000091552734,-2.447999954223633,0.5879999995231628,-9.513999938964846,0.871999979019165
1621592517424,-21.700000762939453,20.785999298095703,-2.5899999141693115,0.6280000209808348,-9.50100040435791,0.7940000295639038
1621592517434,-20.93000030517578,21.048999786376953,-2.4719998836517334,0.7059999704360961,-9.531999588012695,0.7490000128746032
1621592517444,-19.809999465942383,21.174999237060547,-2.378999948501587,0.7059999704360961,-9.51900005340576,0.6719999909400939
1621592517454,-18.690000534057617,21.222999572753903,-2.6549999713897705,0.8240000009536743,-9.550999641418455,0.6259999871253967
1621592517464,-17.850000381469727,20.17300033569336,-2.3429999351501465,0.9020000100135804,-9.58899974822998,0.6190000176429749
1621592517474,-17.079999923706055,18.708999633789062,-2.1029999256134033,0.9020000100135804,-9.628000259399414,0.6129999756813049
1621592517484,-16.799999237060547,17.013999938964844,-1.7619999647140503,0.9409999847412108,-9.65999984741211,0.5669999718666076
1621592517494,-16.239999771118164,15.241999626159668,-1.7899999618530271,0.9020000100135804,-9.652999877929688,0.5289999842643737
1621592517504,-15.75,13.0649995803833,-1.5349999666213987,0.9020000100135804,-9.645999908447264,0.4900000095367431
1621592517514,-14.979999542236328,10.78600025177002,-1.5099999904632568,0.9020000100135804,-9.645999908447264,0.4900000095367431
1621592517524,-14.5600004196167,8.276000022888184,-1.383999943733215,0.8240000009536743,-9.6850004196167,0.4830000102519989
1621592517534,-14.489999771118164,6.21999979019165,-1.8179999589920044,0.7850000262260437,-9.793999671936035,0.4239999949932098
1621592517544,-14.699999809265137,4.370999813079834,-2.2149999141693115,0.7850000262260437,-9.793999671936035,0.4239999949932098
1621592517554,-14.875,3.496999740600586,-2.297999858856201,0.7450000047683715,-9.83199977874756,0.4169999957084655
1621592517564,-15.050000190734863,2.622999906539917,-2.38100004196167,0.7059999704360961,-9.762000083923342,0.4690000116825103
1621592517574,-16.239999771118164,1.0700000524520874,-2.440999984741211,0.7059999704360961,-9.729999542236328,0.5149999856948853
1621592517584,-16.59000015258789,-0.4749999940395355,-2.1449999809265137,0.6280000209808348,-9.762000083923342,0.4690000116825103
1621592517594,-16.65999984741211,-1.7400000095367432,-2.2260000705718994,0.5490000247955322,-9.663999557495115,0.367000013589859
1621592517604,-16.8700008392334,-2.819000005722046,-2.558000087738037,0.3919999897480011,-9.62600040435791,0.3740000128746032
1621592517614,-16.729999542236328,-3.369999885559082,-2.6559998989105225,0.4309999942779541,-9.62600040435791,0.3740000128746032
1621592517624,-16.799999237060547,-3.877000093460083,-2.6029999256134033,0.3919999897480011,-9.612000465393066,0.2969999909400939
1621592517634,-16.729999542236328,-3.986999988555908,-3.190999984741211,0.3919999897480011,-9.604999542236328,0.2579999864101409
1621592517644,-16.100000381469727,-4.031000137329102,-3.3410000801086426,0.3919999897480011,-9.5600004196167,0.2259999960660934
1621592517654,-15.68000030517578,-3.961999893188477,-3.3289999961853027,0.3529999852180481,-9.553000450134276,0.1879999935626983
1621592517664,-14.840000152587892,-4.257999897003174,-3.6649999618530273,0.3140000104904174,-9.513999938964846,0.1940000057220459
1621592517674,-13.649999618530272,-3.888999938964844,-3.7420001029968266,0.3140000104904174,-9.54599952697754,0.1490000039339065
1621592517684,-12.529999732971191,-3.4590001106262207,-4.164000034332275,0.3140000104904174,-9.585000038146973,0.1420000046491622
1621592517694,-11.130000114440918,-2.615999937057495,-4.513000011444092,0.3140000104904174,-9.571000099182127,0.0649999976158142
1621592517704,-9.729999542236328,-1.8860000371932983,-5.02400016784668,0.3529999852180481,-9.557000160217283,-0.0120000001043081
1621592517714,-8.1899995803833,-1.5420000553131104,-4.9629998207092285,0.3140000104904174,-9.642000198364256,0.0130000002682209
1621592517724,-6.71999979019165,-0.6899999976158142,-4.954999923706055,0.2349999994039535,-9.58899974822998,-0.0579999983310699
1621592517734,-5.809999942779541,0.3889999985694885,-4.623000144958496,0.2750000059604644,-9.628000259399414,-0.0649999976158142
1621592517744,-5.809999942779541,1.2519999742507937,-4.684000015258789,0.2750000059604644,-9.75100040435791,-0.0460000000894069
1621592517754,-5.880000114440918,2.3510000705718994,-5.271999835968018,0.2750000059604644,-9.82800006866455,-0.0599999986588954
1621592517764,-5.949999809265137,3.203000068664551,-5.263999938964844,0.2349999994039535,-9.835000038146973,-0.0209999997168779
1621592517774,-6.264999866485596,3.7645001411437984,-5.022500038146973,0.2349999994039535,-9.803000450134276,0.0240000002086162
1621592517784,-6.579999923706055,4.326000213623047,-4.781000137329102,0.2750000059604644,-9.803000450134276,0.0240000002086162
1621592517794,-7.210000038146973,4.886000156402588,-4.327000141143799,0.2750000059604644,-9.763999938964846,0.0309999994933605
1621592517804,-7.420000076293945,5.340000152587891,-3.678999900817871,0.3140000104904174,-9.72599983215332,0.0379999987781047
1621592517814,-7.349999904632568,6.171000003814697,-2.75,0.3919999897480011,-9.694000244140623,0.0829999968409538
1621592517824,-7.210000038146973,6.605000019073486,-2.388999938964844,0.4309999942779541,-9.694000244140623,0.0829999968409538
1621592517834,-6.789999961853027,6.609000205993652,-2.815000057220459,0.4709999859333038,-9.687000274658203,0.0450000017881393
1621592517844,-6.71999979019165,6.48799991607666,-3.3340001106262207,0.5099999904632568,-9.73900032043457,0.1150000020861625
1621592517854,-6.510000228881836,5.875,-3.086999893188477,0.5490000247955322,-9.718999862670898,-0.0010000000474974
1621592517864,-6.230000019073486,5.290999889373779,-3.4030001163482666,0.5490000247955322,-9.711999893188477,-0.0399999991059303
1621592517874,-5.949999809265137,4.131999969482422,-3.677999973297119,0.5099999904632568,-9.711999893188477,-0.0399999991059303
1621592517884,-5.599999904632568,3.247999906539917,-3.9049999713897705,0.4309999942779541,-9.75100040435791,-0.0460000000894069
1621592517894,-5.739999771118164,2.2300000190734863,-3.374000072479248,0.4309999942779541,-9.737000465393066,-0.123999997973442
1621592517904,-5.739999771118164,1.8769999742507937,-3.7920000553131104,0.3919999897480011,-9.776000022888184,-0.1299999952316284
1621592517914,-5.739999771118164,1.11899995803833,-3.924999952316284,0.3919999897480011,-9.737000465393066,-0.123999997973442
1621592517924,-5.880000114440918,0.6039999723434448,-4.229000091552734,0.3529999852180481,-9.781999588012695,-0.0920000001788139
1621592517934,-5.599999904632568,0.1289999932050705,-3.9579999446868896,0.3140000104904174,-9.697999954223633,-0.1169999986886978
1621592517944,-5.53000020980835,0.1209999993443489,-4.315000057220459,0.3140000104904174,-9.737000465393066,-0.123999997973442
1621592517954,-5.53000020980835,-0.025000000372529,-4.696000099182129,0.3140000104904174,-9.737000465393066,-0.123999997973442
1621592517964,-5.25,-0.0130000002682209,-4.764999866485596,0.2750000059604644,-9.737000465393066,-0.123999997973442
1621592517974,-4.550000190734863,0.335999995470047,-5.130000114440918,0.3140000104904174,-9.729999542236328,-0.1620000004768371
1621592517984,-3.849999904632568,-0.0089999996125698,-5.190000057220459,0.3140000104904174,-9.729999542236328,-0.1620000004768371
1621592517994,-3.7100000381469727,0.1289999932050705,-5.165999889373779,0.3140000104904174,-9.76900005340576,-0.1689999997615814
1621592518003,-3.5,-0.1949999928474426,-4.939000129699707,0.3140000104904174,-9.729999542236328,-0.1620000004768371
1621592518013,-3.2899999618530273,-0.3449999988079071,-4.894000053405762,0.3529999852180481,-9.729999542236328,-0.1620000004768371
1621592518023,-3.429999828338623,-0.5924999713897705,-4.9019999504089355,0.3140000104904174,-9.762000083923342,-0.2080000042915344
1621592518033,-3.569999933242798,-0.8399999737739563,-4.909999847412109,0.3140000104904174,-9.722999572753906,-0.2010000050067901
1621592518043,-3.359999895095825,-0.8360000252723693,-5.335999965667725,0.3140000104904174,-9.717000007629396,-0.2399999946355819
1621592518053,-3.1500000953674316,-0.609000027179718,-5.01200008392334,0.3140000104904174,-9.729999542236328,-0.1620000004768371
1621592518063,-2.940000057220459,-0.6330000162124633,-4.874000072479248,0.2750000059604644,-9.800999641418455,-0.2150000035762786
1621592518073,-3.009999990463257,-1.3020000457763672,-4.708000183105469,0.2750000059604644,-9.800999641418455,-0.2150000035762786
1621592518083,-2.869999885559082,-1.75600004196167,-4.1479997634887695,0.2750000059604644,-9.793999671936035,-0.2529999911785125
1621592518093,-3.0799999237060547,-2.01200008392334,-3.9089999198913574,0.1959999948740005,-9.793999671936035,-0.2529999911785125
1621592518103,-3.430000066757202,-2.0480000972747803,-3.70199990272522,0.1959999948740005,-9.755000114440918,-0.2460000067949295
1621592518113,-3.359999895095825,-2.38100004196167,-3.8320000171661377,0.2349999994039535,-9.755000114440918,-0.2460000067949295
1621592518123,-3.6400001049041744,-2.5390000343322754,-4.144000053405762,0.1959999948740005,-9.755000114440918,-0.2460000067949295
1621592518133,-3.359999895095825,-2.6649999618530273,-4.236999988555908,0.1570000052452087,-9.755000114440918,-0.2460000067949295
1621592518143,-2.799999952316284,-2.7420001029968266,-4.605999946594238,0.1570000052452087,-9.717000007629396,-0.2399999946355819
1621592518153,-2.5899999141693115,-2.9489998817443848,-4.64300012588501,0.1959999948740005,-9.722999572753906,-0.2010000050067901
1621592518163,-2.5199999809265137,-3.0179998874664307,-4.65500020980835,0.1570000052452087,-9.678000450134276,-0.2329999953508377
1621592518173,-1.75,-3.1640000343322754,-5.035999774932861,0.1959999948740005,-9.67099952697754,-0.2709999978542327
1621592518183,-1.190000057220459,-3.4639999866485596,-4.947000026702881,0.1570000052452087,-9.67099952697754,-0.2709999978542327
1621592518193,-0.7699999809265136,-3.450999975204468,-5.015999794006348,0.1180000007152557,-9.710000038146973,-0.277999997138977
1621592518203,-0.3499999940395355,-3.2769999504089355,-5.197999954223633,0.1570000052452087,-9.755000114440918,-0.2460000067949295
1621592518213,0.209999993443489,-3.7560000419616695,-5.709000110626221,0.1570000052452087,-9.710000038146973,-0.277999997138977
1621592518223,0.0700000002980232,-3.6059999465942383,-5.754000186920166,0.0780000016093254,-9.748000144958496,-0.2849999964237213
1621592518233,0.209999993443489,-3.434999942779541,-5.510000228881836,0.0780000016093254,-9.755000114440918,-0.2460000067949295
1621592518243,0.3499999940395355,-3.249000072479248,-5.76200008392334,0.1180000007152557,-9.786999702453612,-0.2919999957084655
1621592518253,0.209999993443489,-2.9489998817443848,-5.85099983215332,0.0780000016093254,-9.793999671936035,-0.2529999911785125
1621592518263,-0.209999993443489,-2.75,-6.171000003814697,0.0390000008046627,-9.793999671936035,-0.2529999911785125
1621592518273,-0.3499999940395355,-2.7884998321533203,-6.355500221252441,0.0390000008046627,-9.762000083923342,-0.2080000042915344
1621592518283,-0.4900000095367431,-2.8269999027252197,-6.539999961853027,0.0390000008046627,-9.762000083923342,-0.2080000042915344
1621592518293,-0.6299999952316284,-1.9390000104904177,-6.738999843597412,0.0390000008046627,-9.845999717712402,-0.1829999983310699
1621592518303,-0.7699999809265136,-1.753000020980835,-6.991000175476074,0.0390000008046627,-9.859999656677246,-0.1049999967217445
1621592518313,-1.190000057220459,-1.6510000228881836,-6.758999824523926,0.0390000008046627,-9.814000129699709,-0.1369999945163726
1621592518323,-1.5399999618530271,-1.062999963760376,-6.86899995803833,0.0390000008046627,-9.814000129699709,-0.1369999945163726
1621592518333,-1.9600000381469729,-0.6660000085830688,-7.510000228881835,0.0780000016093254,-9.807000160217283,-0.1759999990463256
1621592518343,-2.1700000762939453,-0.4589999914169311,-7.473000049591064,0.0780000016093254,-9.762000083923342,-0.2080000042915344
1621592518353,-2.309999942779541,-0.0659999996423721,-7.688000202178955,0.1180000007152557,-9.76900005340576,-0.1689999997615814
1621592518363,-2.380000114440918,0.1080000028014183,-7.870999813079834,0.0780000016093254,-9.729999542236328,-0.1620000004768371
1621592518373,-1.9600000381469729,0.3269999921321868,-7.902999877929688,0.1180000007152557,-9.76900005340576,-0.1689999997615814
1621592518383,-1.8200000524520872,0.6269999742507933,-7.992000102996825,0.0780000016093254,-9.69200038909912,-0.1550000011920929
1621592518393,-1.5399999618530271,0.6959999799728394,-7.980000019073486,0.1180000007152557,-9.69200038909912,-0.1550000011920929
1621592518403,-1.1200000047683716,0.6480000019073486,-7.704999923706055,0.1180000007152557,-9.729999542236328,-0.1620000004768371
1621592518413,-0.5600000023841857,0.8909999728202819,-7.875,0.0780000016093254,-9.729999542236328,-0.1620000004768371
1621592518423,-0.209999993443489,1.0490000247955322,-7.563000202178955,0.1180000007152557,-9.76900005340576,-0.1689999997615814
1621592518433,-0.1400000005960464,0.9319999814033508,-7.298999786376954,0.1180000007152557,-9.729999542236328,-0.1620000004768371
1621592518443,0.0,0.9229999780654908,-7.656000137329101,0.0780000016093254,-9.722999572753906,-0.2010000050067901
1621592518453,-0.1400000005960464,1.337000012397766,-7.583000183105469,0.0780000016093254,-9.800999641418455,-0.2150000035762786
1621592518463,0.0700000002980232,1.89300000667572,-7.9120001792907715,0.1180000007152557,-9.793999671936035,-0.2529999911785125
1621592518473,-0.0700000002980232,1.912999987602234,-7.624000072479248,0.1180000007152557,-9.800999641418455,-0.2150000035762786
1621592518483,0.0,2.062999963760376,-7.668000221252441,0.0780000016093254,-9.76900005340576,-0.1689999997615814
1621592518493,0.0700000002980232,2.6710000038146973,-7.489999771118165,0.1180000007152557,-9.76900005340576,-0.1689999997615814
1621592518503,0.0,2.4000000953674316,-6.75600004196167,0.1570000052452087,-9.737000465393066,-0.123999997973442
1621592518513,-0.0700000002980232,2.1040000915527344,-5.883999824523926,0.1180000007152557,-9.776000022888184,-0.1299999952316284
1621592518523,0.0,1.8559999465942385,-5.288000106811523,0.1180000007152557,-9.737000465393066,-0.123999997973442
1621592518533,0.209999993443489,1.718999981880188,-5.311999797821045,0.1180000007152557,-9.737000465393066,-0.123999997973442
1621592518543,0.5600000023841857,1.2890000343322754,-6.098999977111816,0.1570000052452087,-9.737000465393066,-0.123999997973442
1621592518553,0.4900000095367431,1.130500078201294,-6.4110002517700195,0.1959999948740005,-9.744000434875488,-0.0850000008940696
1621592518563,0.4199999868869781,0.9720000028610228,-6.7230000495910645,0.1959999948740005,-9.744000434875488,-0.0850000008940696
1621592518573,0.6299999952316284,0.3759999871253967,-6.9710001945495605,0.1570000052452087,-9.781999588012695,-0.0920000001788139
1621592518583,1.0499999523162842,0.0759999975562095,-6.88100004196167,0.1959999948740005,-9.781999588012695,-0.0920000001788139
1621592518593,0.9800000190734864,-0.1190000027418136,-6.986999988555908,0.1570000052452087,-9.800999641418455,-0.2150000035762786
1621592518603,0.699999988079071,-0.3740000128746032,-6.747000217437744,0.1570000052452087,-9.76900005340576,-0.1689999997615814
1621592518613,0.3499999940395355,-0.4749999940395355,-6.979000091552734,0.1570000052452087,-9.82800006866455,-0.0599999986588954
1621592518623,0.4900000095367431,-0.6460000276565551,-7.222000122070312,0.1180000007152557,-9.788999557495115,-0.0529999993741512
1621592518633,0.5600000023841857,-0.5849999785423278,-7.566999912261963,0.1180000007152557,-9.788999557495115,-0.0529999993741512
1621592518643,0.4199999868869781,-0.2160000056028366,-7.644000053405762,0.1180000007152557,-9.788999557495115,-0.0529999993741512
1621592518653,0.209999993443489,0.3149999976158142,-7.834000110626221,0.1180000007152557,-9.788999557495115,-0.0529999993741512
1621592518663,0.1400000005960464,0.6719999909400939,-7.842000007629395,0.1570000052452087,-9.781999588012695,-0.0920000001788139
1621592518673,0.209999993443489,0.9399999976158142,-8.151000022888184,0.1570000052452087,-9.744000434875488,-0.0850000008940696
1621592518683,0.4199999868869781,0.7210000157356262,-8.118000030517578,0.1570000052452087,-9.781999588012695,-0.0920000001788139
1621592518693,0.5600000023841857,0.9639999866485596,-8.288999557495117,0.1570000052452087,-9.788999557495115,-0.0529999993741512
1621592518703,0.5600000023841857,1.284000039100647,-8.09000015258789,0.1570000052452087,-9.75100040435791,-0.0460000000894069
1621592518713,0.4199999868869781,1.3650000095367432,-8.147000312805176,0.1570000052452087,-9.75100040435791,-0.0460000000894069
1621592518723,0.4900000095367431,1.2680000066757202,-7.594999790191651,0.1570000052452087,-9.75100040435791,-0.0460000000894069
1621592518733,0.1400000005960464,1.3250000476837158,-7.513999938964843,0.1959999948740005,-9.82800006866455,-0.0599999986588954
1621592518743,0.0700000002980232,1.3049999475479126,-7.802000045776368,0.1959999948740005,-9.854999542236328,0.0949999988079071
1621592518753,-0.4900000095367431,1.6699999570846558,-7.453000068664551,0.1959999948740005,-9.803000450134276,0.0240000002086162
1621592518763,-0.9800000190734864,1.4709999561309814,-7.132999897003174,0.2349999994039535,-9.840999603271484,0.0170000009238719
1621592518773,-1.399999976158142,1.378000020980835,-7.006999969482422,0.2349999994039535,-9.873000144958496,-0.0280000008642673
1621592518783,-1.5399999618530271,1.2929999828338623,-6.525000095367432,0.2750000059604644,-9.873000144958496,-0.0280000008642673
1621592518793,-1.6799999475479126,1.2239999771118164,-6.5370001792907715,0.2750000059604644,-9.873000144958496,-0.0280000008642673
1621592518803,-2.0299999713897705,1.2799999713897705,-6.455999851226807,0.2349999994039535,-9.859999656677246,-0.1049999967217445
1621592518813,-2.380000114440918,1.5199999809265137,-6.199999809265137,0.1959999948740005,-9.82800006866455,-0.0599999986588954
1621592518823,-2.309999942779541,1.7630000114440918,-6.370999813079834,0.1570000052452087,-9.821000099182127,-0.0989999994635581
1621592518833,-2.4499998092651367,1.7690000534057615,-6.4054999351501465,0.1570000052452087,-9.744000434875488,-0.0850000008940696
1621592518843,-2.5899999141693115,1.774999976158142,-6.440000057220459,0.1570000052452087,-9.781999588012695,-0.0920000001788139
1621592518853,-2.0299999713897705,1.5199999809265137,-6.199999809265137,0.1570000052452087,-9.737000465393066,-0.123999997973442
1621592518863,-1.3300000429153442,2.119999885559082,-6.379000186920166,0.1180000007152557,-9.697999954223633,-0.1169999986886978
1621592518873,-1.3300000429153442,2.431999921798706,-6.5370001792907715,0.1570000052452087,-9.776000022888184,-0.1299999952316284
1621592518883,-1.1200000047683716,2.427999973297119,-6.111000061035156,0.1959999948740005,-9.75699996948242,-0.0080000003799796
1621592518893,-0.9100000262260436,2.796999931335449,-6.188000202178955,0.1570000052452087,-9.744000434875488,-0.0850000008940696
1621592518903,-1.190000057220459,3.1540000438690186,-6.196000099182129,0.1570000052452087,-9.776000022888184,-0.1299999952316284
1621592518913,-1.0499999523162842,3.3489999771118164,-6.091000080108643,0.1570000052452087,-9.76900005340576,-0.1689999997615814
1621592518923,-1.0499999523162842,3.555000066757202,-6.054999828338623,0.1570000052452087,-9.76900005340576,-0.1689999997615814
1621592518933,-1.2599999904632568,3.499000072479248,-6.136000156402588,0.1570000052452087,-9.729999542236328,-0.1620000004768371
1621592518943,-1.3300000429153442,3.8469998836517334,-6.500999927520752,0.1570000052452087,-9.729999542236328,-0.1620000004768371
1621592518953,-1.5399999618530271,3.7339999675750737,-6.663000106811523,0.1570000052452087,-9.814000129699709,-0.1369999945163726
1621592518963,-1.6799999475479126,3.8350000381469727,-6.432000160217285,0.1570000052452087,-9.781999588012695,-0.0920000001788139
1621592518973,-1.5399999618530271,3.811000108718872,-6.294000148773193,0.1570000052452087,-9.776000022888184,-0.1299999952316284
1621592518983,-1.4700000286102295,3.6040000915527344,-6.329999923706055,0.1570000052452087,-9.821000099182127,-0.0989999994635581
1621592518993,-1.75,3.7219998836517334,-6.593999862670898,0.1959999948740005,-9.781999588012695,-0.0920000001788139
1621592519003,-1.75,3.684999942779541,-6.38700008392334,0.1959999948740005,-9.781999588012695,-0.0920000001788139
1621592519013,-1.8200000524520872,4.296999931335449,-6.635000228881836,0.2349999994039535,-9.781999588012695,-0.0920000001788139
1621592519023,-1.6799999475479126,4.51200008392334,-6.241000175476074,0.1959999948740005,-9.776000022888184,-0.1299999952316284
1621592519033,-1.8200000524520872,4.422999858856201,-6.540999889373779,0.1959999948740005,-9.776000022888184,-0.1299999952316284
1621592519043,-1.8200000524520872,4.548999786376953,-6.447999954223633,0.1570000052452087,-9.76900005340576,-0.1689999997615814
1621592519053,-1.9600000381469729,5.031000137329102,-6.36299991607666,0.1570000052452087,-9.814000129699709,-0.1369999945163726
1621592519063,-2.240000009536743,4.86899995803833,-6.249000072479248,0.1570000052452087,-9.776000022888184,-0.1299999952316284
1621592519073,-2.380000114440918,5.019000053405762,-6.294000148773193,0.1570000052452087,-9.776000022888184,-0.1299999952316284
1621592519083,-2.380000114440918,5.099999904632568,-6.35099983215332,0.1959999948740005,-9.821000099182127,-0.0989999994635581
1621592519093,-2.4850001335144043,5.053500175476074,-6.288000106811523,0.1570000052452087,-9.776000022888184,-0.1299999952316284
1621592519103,-2.5899999141693115,5.006999969482422,-6.224999904632568,0.1570000052452087,-9.776000022888184,-0.1299999952316284
1621592519113,-2.6600000858306885,5.132999897003174,-6.131999969482422,0.1959999948740005,-9.737000465393066,-0.123999997973442
1621592519123,-2.799999952316284,5.0269999504089355,-5.936999797821045,0.1959999948740005,-9.762000083923342,-0.2080000042915344
1621592519133,-2.5899999141693115,4.934000015258789,-5.810999870300293,0.2349999994039535,-9.722999572753906,-0.2010000050067901
1621592519143,-2.799999952316284,4.4720001220703125,-5.609000205993652,0.2349999994039535,-9.69200038909912,-0.1550000011920929
1621592519153,-2.7300000190734863,4.114999771118164,-5.60099983215332,0.2349999994039535,-9.744000434875488,-0.0850000008940696
1621592519163,-2.5899999141693115,4.050000190734863,-6.038000106811523,0.1959999948740005,-9.737000465393066,-0.123999997973442
1621592519173,-2.240000009536743,3.9769999980926514,-5.625,0.1959999948740005,-9.729999542236328,-0.1620000004768371
1621592519183,-1.75,3.6649999618530273,-5.4670000076293945,0.1959999948740005,-9.762000083923342,-0.2080000042915344
1621592519193,-1.5399999618530271,3.5390000343322754,-5.559999942779541,0.1570000052452087,-9.76900005340576,-0.1689999997615814
1621592519203,-1.5399999618530271,3.4539999961853027,-6.285999774932861,0.1180000007152557,-9.717000007629396,-0.2399999946355819
1621592519213,-1.8200000524520872,3.365000009536743,-6.585999965667725,0.1570000052452087,-9.762000083923342,-0.2080000042915344
1621592519223,-1.6799999475479126,3.559000015258789,-6.480000019073486,0.1570000052452087,-9.762000083923342,-0.2080000042915344
1621592519233,-1.2599999904632568,3.7339999675750737,-6.663000106811523,0.1180000007152557,-9.717000007629396,-0.2399999946355819
1621592519243,-0.8399999737739563,3.7090001106262207,-6.525000095367432,0.1180000007152557,-9.717000007629396,-0.2399999946355819
1621592519253,-0.7699999809265136,3.2149999141693115,-5.333000183105469,0.1180000007152557,-9.717000007629396,-0.2399999946355819
1621592519263,-0.4199999868869781,3.0,-4.51800012588501,0.1570000052452087,-9.717000007629396,-0.2399999946355819
1621592519273,-0.4199999868869781,2.7809998989105225,-4.485000133514404,0.1570000052452087,-9.717000007629396,-0.2399999946355819
1621592519283,-0.1400000005960464,2.691999912261963,-4.784999847412109,0.1570000052452087,-9.762000083923342,-0.2080000042915344
1621592519293,0.0700000002980232,2.9549999237060547,-5.875999927520752,0.1180000007152557,-9.776000022888184,-0.1299999952316284
1621592519303,-0.2800000011920929,2.821000099182129,-6.326000213623047,0.1570000052452087,-9.722999572753906,-0.2010000050067901
1621592519313,0.1400000005960464,2.8940000534057617,-6.739999771118164,0.1180000007152557,-9.6850004196167,-0.1940000057220459
1621592519323,0.6299999952316284,3.263000011444092,-6.816999912261963,0.0780000016093254,-9.69200038909912,-0.1550000011920929
1621592519333,0.5950000286102294,3.263000011444092,-6.816999912261963,0.0390000008046627,-9.729999542236328,-0.1620000004768371
1621592519343,0.5600000023841857,3.263000011444092,-6.816999912261963,0.0390000008046627,-9.729999542236328,-0.1620000004768371
1621592519353,0.0700000002980232,3.802999973297119,-6.651000022888184,0.0,-9.762000083923342,-0.2080000042915344
1621592519363,-0.3499999940395355,4.264999866485596,-6.854000091552734,0.0,-9.807000160217283,-0.1759999990463256
1621592519373,-0.7699999809265136,5.144999980926514,-7.4089999198913565,0.0390000008046627,-9.807000160217283,-0.1759999990463256
1621592519383,-1.0499999523162842,5.61899995803833,-7.681000232696533,0.0390000008046627,-9.852999687194824,-0.1439999938011169
1621592519393,-1.399999976158142,6.113999843597412,-7.664999961853027,0.0390000008046627,-9.852999687194824,-0.1439999938011169
1621592519403,-1.4700000286102295,6.7829999923706055,-7.830999851226807,0.0780000016093254,-9.814000129699709,-0.1369999945163726
1621592519413,-1.5399999618530271,7.209000110626221,-7.827000141143799,0.0390000008046627,-9.807000160217283,-0.1759999990463256
1621592519423,-1.6799999475479126,7.322000026702882,-7.664999961853027,0.0780000016093254,-9.781999588012695,-0.0920000001788139
1621592519433,-1.3300000429153442,7.804999828338623,-7.579999923706055,0.1570000052452087,-9.781999588012695,-0.0920000001788139
1621592519443,-1.0499999523162842,7.711999893188477,-7.453999996185303,0.1570000052452087,-9.737000465393066,-0.123999997973442
1621592519453,-0.6299999952316284,7.793000221252441,-7.511000156402587,0.1570000052452087,-9.737000465393066,-0.123999997973442
1621592519463,-0.3499999940395355,7.467999935150147,-7.2839999198913565,0.1570000052452087,-9.737000465393066,-0.123999997973442
1621592519473,0.0,7.204999923706055,-7.401000022888184,0.1570000052452087,-9.729999542236328,-0.1620000004768371
1621592519483,-0.1400000005960464,6.978000164031982,-7.72599983215332,0.1570000052452087,-9.722999572753906,-0.2010000050067901
1621592519493,-0.0700000002980232,6.714000225067139,-7.842999935150147,0.1570000052452087,-9.729999542236328,-0.1620000004768371
1621592519503,-0.2800000011920929,6.434000015258789,-7.4660000801086435,0.1959999948740005,-9.762000083923342,-0.2080000042915344
1621592519513,-0.4900000095367431,5.964000225067139,-6.4120001792907715,0.1959999948740005,-9.755000114440918,-0.2460000067949295
1621592519523,-0.4199999868869781,5.656000137329102,-6.678999900817871,0.2349999994039535,-9.762000083923342,-0.2080000042915344
1621592519533,-0.699999988079071,5.49399995803833,-6.565999984741211,0.1959999948740005,-9.800999641418455,-0.2150000035762786
1621592519543,-0.6649999618530273,5.319499969482422,-6.383500099182129,0.2349999994039535,-9.755000114440918,-0.2460000067949295
1621592519553,-0.6299999952316284,5.144999980926514,-6.201000213623047,0.1570000052452087,-9.755000114440918,-0.2460000067949295
1621592519563,-0.7699999809265136,4.836999893188477,-6.4679999351501465,0.1959999948740005,-9.76900005340576,-0.1689999997615814
1621592519573,-0.9800000190734864,4.86899995803833,-6.249000072479248,0.1570000052452087,-9.76900005340576,-0.1689999997615814
1621592519583,-0.699999988079071,4.281000137329102,-6.139999866485596,0.1959999948740005,-9.737000465393066,-0.123999997973442
1621592519593,-0.9100000262260436,4.236999988555908,-6.289999961853027,0.1959999948740005,-9.729999542236328,-0.1620000004768371
1621592519603,-0.8399999737739563,3.8069999217987065,-5.868000030517578,0.1570000052452087,-9.722999572753906,-0.2010000050067901
1621592519613,-0.4900000095367431,3.8310000896453857,-6.00600004196167,0.1180000007152557,-9.729999542236328,-0.1620000004768371
1621592519623,-0.3499999940395355,3.875999927520752,-5.855999946594238,0.1180000007152557,-9.729999542236328,-0.1620000004768371
1621592519632,0.0,3.8310000896453857,-6.00600004196167,0.0780000016093254,-9.722999572753906,-0.2010000050067901
1621592519642,-0.0700000002980232,4.061999797821045,-6.10699987411499,0.1180000007152557,-9.755000114440918,-0.2460000067949295
1621592519652,-0.1400000005960464,4.073999881744385,-6.176000118255615,0.0780000016093254,-9.755000114440918,-0.2460000067949295
1621592519662,-0.1400000005960464,4.249000072479248,-6.359000205993652,0.0780000016093254,-9.762000083923342,-0.2080000042915344
1621592519672,-0.3499999940395355,4.876999855041504,-5.89300012588501,0.0390000008046627,-9.762000083923342,-0.2080000042915344
1621592519682,-0.4900000095367431,5.307000160217285,-6.314000129699707,0.0390000008046627,-9.800999641418455,-0.2150000035762786
1621592519692,-0.5600000023841857,5.550000190734863,-6.485000133514404,0.0390000008046627,-9.762000083923342,-0.2080000042915344
1621592519702,-0.9800000190734864,6.0,-6.61899995803833,0.0780000016093254,-9.793999671936035,-0.2529999911785125
1621592519712,-0.9800000190734864,6.263999938964844,-6.500999927520752,0.0780000016093254,-9.762000083923342,-0.2080000042915344
1621592519722,-0.9100000262260436,6.23199987411499,-6.71999979019165,0.0390000008046627,-9.762000083923342,-0.2080000042915344
1621592519732,-0.9100000262260436,6.835999965667725,-7.323999881744384,0.0,-9.762000083923342,-0.2080000042915344
1621592519742,-1.1200000047683716,6.945000171661377,-6.736000061035156,0.0390000008046627,-9.807000160217283,-0.1759999990463256
1621592519752,-1.190000057220459,7.17650032043457,-6.837500095367432,0.0390000008046627,-9.800999641418455,-0.2150000035762786
1621592519762,-1.2599999904632568,7.407999992370605,-6.939000129699707,0.0390000008046627,-9.793999671936035,-0.2529999911785125
1621592519772,-1.75,7.76800012588501,-7.373000144958496,0.0780000016093254,-9.793999671936035,-0.2529999911785125
1621592519782,-1.9600000381469729,8.218000411987305,-7.506999969482423,0.1180000007152557,-9.807000160217283,-0.1759999990463256
1621592519792,-2.380000114440918,8.640000343322754,-7.077000141143799,0.1180000007152557,-9.793999671936035,-0.2529999911785125
1621592519802,-2.309999942779541,8.972999572753906,-6.947000026702881,0.1180000007152557,-9.793999671936035,-0.2529999911785125
1621592519812,-2.309999942779541,9.42300033569336,-7.080999851226807,0.1180000007152557,-9.755000114440918,-0.2460000067949295
1621592519822,-2.240000009536743,9.38599967956543,-6.875,0.1180000007152557,-9.786999702453612,-0.2919999957084655
1621592519832,-2.309999942779541,9.661999702453612,-6.826000213623047,0.1180000007152557,-9.748000144958496,-0.2849999964237213
1621592519842,-1.75,9.892999649047852,-6.927000045776367,0.1570000052452087,-9.741999626159668,-0.3240000009536743
1621592519852,-1.75,10.201000213623049,-6.659999847412109,0.1959999948740005,-9.748000144958496,-0.2849999964237213
1621592519862,-1.399999976158142,10.050999641418455,-6.614999771118164,0.1570000052452087,-9.741999626159668,-0.3240000009536743
1621592519872,-1.1200000047683716,9.800000190734863,-6.802000045776367,0.1570000052452087,-9.741999626159668,-0.3240000009536743
1621592519882,-1.0499999523162842,9.5,-6.711999893188477,0.1570000052452087,-9.748000144958496,-0.2849999964237213
1621592519892,-0.699999988079071,9.670000076293944,-6.468999862670898,0.1570000052452087,-9.741999626159668,-0.3240000009536743
1621592519902,-0.2800000011920929,10.071999549865724,-6.327000141143799,0.1570000052452087,-9.741999626159668,-0.3240000009536743
1621592519912,-0.1400000005960464,9.508000373840332,-6.355000019073486,0.1570000052452087,-9.741999626159668,-0.3240000009536743
1621592519922,-0.209999993443489,9.395000457763674,-6.51800012588501,0.1570000052452087,-9.734999656677246,-0.3619999885559082
1621592519932,-0.209999993443489,9.25100040435791,-6.507500171661377,0.1570000052452087,-9.734999656677246,-0.3619999885559082
1621592519942,-0.209999993443489,9.107000350952148,-6.497000217437744,0.1570000052452087,-9.741999626159668,-0.3240000009536743
1621592519952,0.2800000011920929,9.223999977111816,-6.761000156402588,0.1180000007152557,-9.786999702453612,-0.2919999957084655
1621592519962,0.0,9.265000343322754,-6.184999942779541,0.1180000007152557,-9.748000144958496,-0.2849999964237213
1621592519972,0.0,9.852999687194824,-6.295000076293945,0.1180000007152557,-9.755000114440918,-0.2460000067949295
1621592519982,0.4199999868869781,9.47599983215332,-6.573999881744385,0.1180000007152557,-9.748000144958496,-0.2849999964237213
1621592519992,0.0,9.840999603271484,-6.22599983215332,0.1570000052452087,-9.70300006866455,-0.31700000166893
1621592520002,0.4199999868869781,9.977999687194824,-6.201000213623047,0.1570000052452087,-9.741999626159668,-0.3240000009536743
