timestamp,gyro_x,gyro_y,gyro_z,acc_x,acc_y,acc_z
1621851074728,0.0,0.0,0.0,0.0,0.0,0.0
1621851074737,2.5199999809265137,-101.26799774169922,-17.856000900268555,1.4509999752044678,-10.026000022888184,-0.2939999997615814
1621851074747,2.0999999046325684,-108.39700317382812,-19.753000259399418,1.3730000257492063,-10.29599952697754,-0.3420000076293945
1621851074757,0.9100000262260436,-114.61699676513672,-20.35199928283691,1.215999960899353,-10.572999954223633,-0.3510000109672546
1621851074767,-0.7699999809265136,-119.11799621582033,-21.43000030517578,1.0590000152587893,-10.753000259399414,-0.4620000123977661
1621851074777,-2.5899999141693115,-122.5780029296875,-24.38599967956543,0.9409999847412108,-10.984999656677246,-0.5030000209808348
1621851074787,-4.619999885559082,-124.84100341796876,-27.27300071716309,0.7850000262260437,-11.131999969482422,-0.5690000057220459
1621851074797,-6.860000133514404,-125.73699951171876,-28.638999938964844,0.5879999995231628,-11.062000274658203,-0.5170000195503234
1621851074807,-8.680000305175781,-125.9280014038086,-30.378999710083008,0.4309999942779541,-10.791000366210938,-0.4690000116825103
1621851074817,-9.204999923706056,-125.77400207519533,-30.8489990234375,0.3140000104904174,-10.444000244140623,-0.4079999923706054
1621851074827,-9.729999542236328,-125.62000274658205,-31.319000244140625,0.1570000052452087,-10.135000228881836,-0.3529999852180481
1621851074837,-10.5,-124.10299682617188,-32.2599983215332,0.1180000007152557,-9.772999763488768,-0.3689999878406524
1621851074847,-11.409999847412108,-122.06400299072266,-31.332000732421875,0.0390000008046627,-9.604999542236328,-0.4189999997615814
1621851074857,-11.899999618530272,-119.01000213623048,-29.301000595092773,-0.0390000008046627,-9.482999801635742,-0.4370000064373016
1621851074867,-12.18000030517578,-115.78199768066406,-27.45199966430664,-0.0780000016093254,-9.371000289916992,-0.6169999837875366
1621851074877,-11.970000267028809,-111.88099670410156,-26.195999145507812,-0.0780000016093254,-9.416999816894531,-0.5849999785423278
1621851074887,-11.199999809265137,-107.93099975585936,-25.21500015258789,-0.0780000016093254,-9.454999923706056,-0.5920000076293945
1621851074897,-10.5,-104.44000244140624,-23.249000549316406,-0.1180000007152557,-9.532999992370604,-0.6050000190734863
1621851074907,-9.3100004196167,-100.51399993896484,-20.92200088500977,-0.1180000007152557,-9.526000022888184,-0.6439999938011169
1621851074917,-8.680000305175781,-97.0019989013672,-17.458999633789062,-0.1180000007152557,-9.454999923706056,-0.5920000076293945
1621851074927,-7.489999771118165,-93.45700073242188,-14.986000061035156,-0.1959999948740005,-9.40999984741211,-0.6240000128746032
1621851074937,-5.809999942779541,-90.03099822998047,-13.458000183105469,-0.1959999948740005,-9.286999702453612,-0.6420000195503234
1621851074947,-3.359999895095825,-86.76599884033203,-11.815999984741213,-0.2349999994039535,-9.217000007629396,-0.5899999737739563
1621851074957,-1.0499999523162842,-83.51799774169922,-10.887999534606934,-0.1959999948740005,-9.178000450134276,-0.5830000042915344
1621851074967,1.1200000047683716,-80.33100128173828,-9.614999771118164,-0.2349999994039535,-9.1850004196167,-0.5440000295639038
1621851074977,3.6400001049041744,-77.82499694824219,-8.107000350952148,-0.2349999994039535,-9.300999641418455,-0.5649999976158142
1621851074987,5.110000133514404,-74.45500183105469,-6.659999847412109,-0.2750000059604644,-9.454999923706056,-0.5920000076293945
1621851074997,5.460000038146973,-73.21600341796875,-6.228499889373779,-0.3140000104904174,-9.616999626159668,-0.5799999833106994
1621851075007,5.809999942779541,-71.97699737548828,-5.796999931335449,-0.3529999852180481,-9.770999908447264,-0.6079999804496765
1621851075017,6.440000057220459,-69.06900024414062,-5.355000019073486,-0.4309999942779541,-9.932000160217283,-0.5960000157356262
1621851075027,5.670000076293945,-66.2959976196289,-4.15500020980835,-0.4709999859333038,-10.017000198364258,-0.5709999799728394
1621851075037,4.480000019073486,-63.176998138427734,-2.8949999809265137,-0.5490000247955322,-10.05500030517578,-0.578000009059906
1621851075047,3.569999933242798,-60.26599884033203,-1.6699999570846558,-0.6280000209808348,-10.093999862670898,-0.5849999785423278
1621851075057,2.5899999141693115,-56.88800048828125,-2.2829999923706055,-0.6669999957084655,-10.10099983215332,-0.5460000038146972
1621851075067,1.6100000143051147,-52.922000885009766,-3.005000114440918,-0.7059999704360961,-10.04800033569336,-0.6169999837875366
1621851075077,0.1400000005960464,-48.91600036621094,-3.1519999504089355,-0.7059999704360961,-10.003000259399414,-0.6480000019073486
1621851075087,-0.8399999737739563,-44.77199935913086,-3.2739999294281006,-0.7450000047683715,-9.96399974822998,-0.6420000195503234
1621851075097,-1.8200000524520872,-40.63999938964844,-3.328000068664551,-0.7059999704360961,-9.925999641418455,-0.6349999904632568
1621851075107,-2.309999942779541,-37.26599884033203,-3.515000104904175,-0.7450000047683715,-9.925999641418455,-0.6349999904632568
1621851075117,-3.2200000286102295,-33.9370002746582,-3.8519999980926514,-0.7450000047683715,-9.951000213623049,-0.7189999818801879
1621851075127,-3.849999904632568,-30.75,-3.786999940872192,-0.7450000047683715,-9.951000213623049,-0.7189999818801879
1621851075137,-3.849999904632568,-27.590999603271484,-4.367000102996826,-0.7850000262260437,-9.880000114440918,-0.6669999957084655
1621851075147,-3.990000009536743,-24.14800071716309,-5.750999927520752,-0.7450000047683715,-9.803000450134276,-0.652999997138977
1621851075157,-3.849999904632568,-21.163999557495117,-7.35699987411499,-0.7059999704360961,-9.72599983215332,-0.6389999985694885
1621851075167,-3.7799999713897705,-19.689998626708984,-8.056499481201172,-0.7059999704360961,-9.718999862670898,-0.6779999732971191
1621851075177,-3.7100000381469727,-18.215999603271484,-8.755999565124512,-0.6669999957084655,-9.79599952697754,-0.6919999718666076
1621851075187,-3.430000066757202,-15.515999794006348,-9.5600004196167,-0.6669999957084655,-9.835000038146973,-0.6990000009536743
1621851075197,-3.5,-13.013999938964844,-10.041999816894531,-0.6280000209808348,-9.873000144958496,-0.7049999833106994
1621851075207,-3.2200000286102295,-10.682000160217283,-10.769000053405762,-0.5879999995231628,-9.873000144958496,-0.7049999833106994
1621851075217,-3.1500000953674316,-8.727999687194824,-10.565999984741213,-0.5490000247955322,-9.880000114440918,-0.6669999957084655
1621851075227,-3.2899999618530273,-7.2150001525878915,-9.873000144958496,-0.4709999859333038,-9.842000007629396,-0.6600000262260437
1621851075237,-3.359999895095825,-5.293000221252441,-8.680999755859375,-0.4709999859333038,-9.803000450134276,-0.652999997138977
1621851075247,-3.430000066757202,-3.869999885559082,-8.288000106811523,-0.4309999942779541,-9.763999938964846,-0.6460000276565551
1621851075257,-3.6400001049041744,-2.3489999771118164,-8.446000099182129,-0.4309999942779541,-9.79599952697754,-0.6919999718666076
1621851075267,-3.990000009536743,-1.319000005722046,-7.8379998207092285,-0.4309999942779541,-9.788999557495115,-0.7300000190734863
1621851075277,-4.619999885559082,-0.4709999859333038,-7.40399980545044,-0.4709999859333038,-9.782999992370604,-0.7689999938011169
1621851075287,-5.739999771118164,0.4740000069141387,-6.314000129699707,-0.4309999942779541,-9.737000465393066,-0.8009999990463256
1621851075297,-7.0,1.008999943733215,-5.7220001220703125,-0.4309999942779541,-9.65999984741211,-0.787000000476837
1621851075307,-7.559999942779541,1.9459999799728391,-6.196000099182129,-0.4709999859333038,-9.576000213623049,-0.8119999766349792
1621851075317,-8.470000267028809,2.809000015258789,-6.256999969482422,-0.4309999942779541,-9.562000274658203,-0.8889999985694885
1621851075327,-9.380000114440918,3.700999975204468,-5.672999858856201,-0.4309999942779541,-9.593999862670898,-0.9350000023841856
1621851075337,-10.149999618530272,5.107999801635742,-5.99399995803833,-0.4709999859333038,-9.510000228881836,-0.9599999785423278
1621851075347,-10.395000457763672,5.744999885559082,-6.379499912261963,-0.4709999859333038,-9.503000259399414,-0.9990000128746032
1621851075357,-10.640000343322754,6.381999969482422,-6.764999866485596,-0.4709999859333038,-9.503000259399414,-0.9990000128746032
1621851075367,-10.640000343322754,7.127999782562256,-7.769999980926514,-0.5099999904632568,-9.468999862670898,-1.1920000314712524
1621851075377,-10.359999656677246,7.7839999198913565,-7.868000030517577,-0.4709999859333038,-9.520999908447264,-1.1210000514984133
1621851075387,-10.149999618530272,8.704999923706055,-7.848000049591064,-0.5099999904632568,-9.48900032043457,-1.0759999752044678
1621851075397,-9.520000457763674,9.442999839782717,-8.001999855041504,-0.5490000247955322,-9.48900032043457,-1.0759999752044678
1621851075407,-8.960000038146973,10.034999847412108,-8.536999702453613,-0.5099999904632568,-9.53499984741211,-1.0440000295639038
1621851075417,-8.960000038146973,11.081000328063965,-9.63199996948242,-0.4309999942779541,-9.48900032043457,-1.0759999752044678
1621851075427,-8.75,12.366000175476074,-10.472000122070312,-0.3529999852180481,-9.56700038909912,-1.0889999866485596
1621851075437,-8.329999923706055,13.204999923706056,-11.602999687194824,-0.2750000059604644,-9.604999542236328,-1.0959999561309814
1621851075447,-8.260000228881836,13.866000175476074,-12.12600040435791,-0.2349999994039535,-9.598999977111816,-1.1349999904632568
1621851075457,-8.260000228881836,14.583999633789064,-12.567999839782717,-0.1959999948740005,-9.604999542236328,-1.0959999561309814
1621851075467,-8.329999923706055,14.633000373840332,-12.843999862670898,-0.1180000007152557,-9.637000083923342,-1.1419999599456787
1621851075477,-8.260000228881836,14.628999710083008,-12.41800022125244,-0.0780000016093254,-9.630000114440918,-1.1799999475479126
1621851075487,-8.329999923706055,14.303999900817873,-12.190999984741213,-0.0390000008046627,-9.54599952697754,-1.2050000429153442
1621851075497,-8.050000190734863,14.060999870300291,-12.020999908447266,0.0,-9.592000007629396,-1.1729999780654907
1621851075507,-7.280000209808349,14.060999870300291,-12.020999908447266,0.0,-9.630000114440918,-1.1799999475479126
1621851075517,-6.579999923706055,14.083499908447266,-11.946000099182127,-0.0390000008046627,-9.637000083923342,-1.1419999599456787
1621851075527,-5.880000114440918,14.105999946594238,-11.871000289916992,0.0,-9.468999862670898,-1.1920000314712524
1621851075537,-4.760000228881836,13.501999855041504,-11.267000198364258,0.0390000008046627,-9.54599952697754,-1.2050000429153442
1621851075547,-3.7100000381469727,13.614999771118164,-11.104000091552734,0.0390000008046627,-9.689000129699709,-1.0709999799728394
1621851075557,-1.8200000524520872,13.076000213623049,-11.270999908447266,-0.0390000008046627,-9.803000450134276,-0.652999997138977
1621851075567,-0.699999988079071,13.180999755859377,-11.465000152587892,-0.0780000016093254,-9.536999702453612,-0.8050000071525573
1621851075577,-1.4700000286102295,13.13700008392334,-11.614999771118164,0.0,-9.303000450134276,-1.003000020980835
1621851075587,-0.9100000262260436,13.05500030517578,-11.559000015258787,0.0390000008046627,-9.46399974822998,-0.9919999837875366
1621851075597,0.3499999940395355,12.357999801635742,-12.036999702453612,0.0390000008046627,-9.657999992370604,-1.0260000228881836
1621851075607,2.0999999046325684,12.166999816894531,-11.359999656677246,0.0,-9.64400005340576,-1.1030000448226929
1621851075617,2.450000047683716,11.920000076293944,-9.55500030517578,0.0390000008046627,-9.651000022888184,-1.0640000104904177
1621851075627,2.5899999141693115,11.86400032043457,-9.63599967956543,0.0780000016093254,-9.657999992370604,-1.0260000228881836
1621851075637,3.2200000286102295,11.73799991607666,-10.937999725341797,0.0390000008046627,-9.696000099182127,-1.0329999923706057
1621851075647,4.130000114440918,11.612000465393066,-11.031000137329102,0.0780000016093254,-9.689000129699709,-1.0709999799728394
1621851075657,3.990000009536743,11.680999755859377,-9.810999870300291,0.0780000016093254,-9.70300006866455,-0.9940000176429749
1621851075667,4.340000152587891,11.340999603271484,-9.08899974822998,0.1180000007152557,-9.734999656677246,-1.0390000343322754
1621851075677,4.760000228881836,10.76099967956543,-8.621999740600586,0.1180000007152557,-9.734999656677246,-1.0390000343322754
1621851075687,4.829999923706055,10.35099983215332,-7.913000106811523,0.0780000016093254,-9.651000022888184,-1.0640000104904177
1621851075697,4.760000228881836,9.616999626159668,-6.97599983215332,0.0780000016093254,-9.619000434875488,-1.0190000534057615
1621851075707,4.864999771118164,9.39449977874756,-6.517499923706055,0.0780000016093254,-9.62600040435791,-0.9800000190734864
1621851075717,4.96999979019165,9.171999931335447,-6.059000015258789,0.0,-9.62600040435791,-0.9800000190734864
1621851075727,4.900000095367432,8.652999877929688,-4.729000091552734,0.0,-9.541999816894531,-1.0049999952316284
1621851075737,5.179999828338623,8.319999694824219,-3.651000022888184,0.0390000008046627,-9.418999671936035,-1.02400004863739
1621851075747,5.880000114440918,7.861999988555909,-3.874000072479248,0.0390000008046627,-9.303000450134276,-1.003000020980835
1621851075757,6.929999828338623,7.5339999198913565,-4.428999900817871,0.0780000016093254,-9.14900016784668,-0.9760000109672546
1621851075767,9.239999771118164,7.209000110626221,-5.409999847412109,0.1959999948740005,-8.902999877929688,-1.0119999647140503
1621851075777,12.039999961853027,6.539999961853027,-5.24399995803833,0.2750000059604644,-8.70300006866455,-1.0169999599456787
1621851075787,15.609999656677246,4.909999847412109,-4.465000152587891,0.3140000104904174,-8.541999816894531,-1.0279999971389773
1621851075797,20.719999313354492,2.615000009536743,-2.736999988555908,0.4309999942779541,-8.46500015258789,-1.0149999856948853
1621851075807,26.950000762939453,0.5389999747276306,-1.0420000553131104,0.4309999942779541,-8.317000389099121,-0.9490000009536744
1621851075817,33.31999969482422,-1.9459999799728391,0.1539999991655349,0.4309999942779541,-8.130999565124512,-0.8759999871253967
1621851075827,40.7400016784668,-5.0320000648498535,0.3210000097751617,0.4709999859333038,-8.015000343322754,-0.856000006198883
1621851075837,48.369998931884766,-7.736999988555909,-0.8669999837875366,0.5490000247955322,-7.82100009918213,-0.8209999799728394
1621851075847,57.04999923706055,-10.23900032043457,-1.5920000076293943,0.5879999995231628,-7.72599983215332,-0.6850000023841857
1621851075857,65.37999725341797,-13.406000137329102,-2.5769999027252197,0.5879999995231628,-7.631000041961671,-0.5490000247955322
1621851075867,74.05999755859375,-16.565000534057617,-4.414000034332275,0.6669999957084655,-7.605999946594238,-0.4650000035762786
1621851075877,83.2300033569336,-19.78499984741211,-5.90500020980835,0.6669999957084655,-7.60099983215332,-0.2649999856948852
1621851075887,92.12000274658205,-23.224000930786133,-7.364999771118165,0.6669999957084655,-7.565000057220459,-0.0189999993890523
1621851075897,101.08000183105467,-26.683000564575195,-7.90399980545044,0.6280000209808348,-7.5349998474121085,0.2649999856948852
1621851075907,105.55999755859376,-28.274499893188477,-8.14900016784668,0.6280000209808348,-7.505000114440918,0.5490000247955322
1621851075917,110.04000091552734,-29.86599922180176,-8.394000053405762,0.5879999995231628,-7.605000019073486,0.8899999856948853
1621851075927,119.0,-32.93199920654297,-9.147999763488768,0.5879999995231628,-7.736999988555909,1.184999942779541
1621851075937,127.40000152587892,-35.79100036621094,-9.864999771118164,0.6280000209808348,-7.914000034332275,1.5119999647140503
1621851075947,135.02999877929688,-38.2239990234375,-10.578000068664553,0.5879999995231628,-8.187000274658203,1.7029999494552612
1621851075957,141.39999389648435,-40.85200119018555,-11.397000312805176,0.5099999904632568,-8.498000144958496,1.8869999647140503
1621851075967,145.6699981689453,-43.020999908447266,-11.993000030517578,0.4309999942779541,-9.03499984741211,1.9919999837875368
1621851075977,147.2100067138672,-44.176998138427734,-12.694000244140623,0.4709999859333038,-9.770999908447264,2.1010000705718994
1621851075987,144.41000366210935,-45.46200180053711,-13.062999725341797,0.4709999859333038,-10.32699966430664,2.321000099182129
1621851075997,136.42999267578125,-46.301998138427734,-13.140000343322754,0.5099999904632568,-10.413999557495115,2.5850000381469727
1621851076007,125.79000091552734,-47.327999114990234,-14.173999786376951,0.5099999904632568,-10.317999839782717,2.7209999561309814
1621851076017,115.77999877929688,-49.11199951171875,-16.549999237060547,0.5490000247955322,-10.197999954223633,2.941999912261963
1621851076027,107.8000030517578,-50.28799819946289,-17.538999557495117,0.5490000247955322,-9.942999839782717,3.305000066757202
1621851076037,101.70999908447266,-51.59000015258789,-16.204999923706055,0.5099999904632568,-9.534000396728516,3.696000099182129
1621851076047,98.27999877929688,-52.36399841308594,-14.635000228881836,0.5099999904632568,-9.310999870300291,4.013999938964844
1621851076057,97.37000274658205,-52.09199905395508,-14.16100025177002,0.4309999942779541,-9.72700023651123,4.339000225067139
1621851076067,95.33999633789062,-51.487998962402344,-14.765000343322754,0.3140000104904174,-10.465999603271484,4.686999797821045
1621851076077,89.45999908447266,-50.125999450683594,-14.027000427246094,0.2349999994039535,-11.130999565124512,4.8480000495910645
1621851076087,80.36000061035156,-48.6619987487793,-13.05799961090088,0.2349999994039535,-11.527000427246094,5.058000087738037
1621851076097,69.2300033569336,-46.26100158691406,-12.564000129699709,0.1180000007152557,-11.739999771118164,5.138999938964844
1621851076107,57.189998626708984,-44.229000091552734,-11.993000030517578,0.0390000008046627,-11.637999534606934,5.236999988555908
1621851076117,45.709999084472656,-42.31100082397461,-10.375,0.0390000008046627,-11.489999771118164,5.302999973297119
1621851076127,40.70500183105469,-40.92399978637695,-9.17099952697754,0.0390000008046627,-11.220000267028809,5.35099983215332
1621851076137,35.70000076293945,-39.5369987487793,-7.967000007629395,0.0,-10.942999839782717,5.360000133514404
1621851076147,26.950000762939453,-36.58100128173828,-5.383999824523926,-0.0390000008046627,-10.645000457763672,5.252999782562256
1621851076157,19.809999465942383,-33.551998138427734,-4.422999858856201,-0.0390000008046627,-10.361000061035156,5.2230000495910645
1621851076167,14.350000381469728,-30.513999938964844,-4.314000129699707,-0.0780000016093254,-10.062999725341797,5.116000175476074
1621851076177,10.149999618530272,-26.79199981689453,-4.866000175476074,-0.0390000008046627,-9.843000411987305,4.995999813079834
1621851076187,6.510000228881836,-23.174999237060547,-5.223999977111816,-0.0390000008046627,-9.628999710083008,4.914000034332275
1621851076197,3.6400001049041744,-19.496999740600582,-5.926000118255615,-0.0390000008046627,-9.409000396728516,4.794000148773193
1621851076207,1.4700000286102295,-15.729999542236328,-7.53599977493286,0.0,-9.234000205993652,4.704999923706055
1621851076217,-0.5600000023841857,-11.812999725341797,-9.190999984741213,0.0780000016093254,-9.020999908447264,4.623000144958496
1621851076227,-1.5399999618530271,-8.131999969482422,-10.319000244140623,0.1959999948740005,-8.824999809265137,4.419000148773193
1621851076237,-2.450000047683716,-4.627999782562256,-10.838000297546388,0.1959999948740005,-8.786999702453613,4.425000190734863
1621851076247,-2.6600000858306885,-1.3320000171661377,-11.394000053405762,0.2750000059604644,-8.850000381469727,4.335000038146973
1621851076257,-3.1500000953674316,1.3279999494552612,-11.5649995803833,0.3140000104904174,-8.805000305175781,4.302999973297119
1621851076267,-4.269999980926514,2.9630000591278076,-10.352999687194824,0.3529999852180481,-8.746000289916992,4.193999767303467
1621851076277,-5.670000076293945,4.638000011444092,-9.772999763488768,0.4309999942779541,-8.661999702453613,4.169000148773193
1621851076287,-7.280000209808349,5.716000080108643,-9.440999984741213,0.5099999904632568,-8.571000099182129,4.105000019073486
1621851076296,-7.980000019073486,6.361000061035156,-8.26099967956543,0.5490000247955322,-8.531999588012695,4.111999988555908
1621851076306,-7.9099998474121085,7.27400016784668,-7.388999938964843,0.5099999904632568,-8.517999649047852,4.034999847412109
1621851076316,-7.769999980926514,7.613999843597413,-6.9029998779296875,0.5099999904632568,-8.557000160217285,4.0279998779296875
1621851076326,-8.050000190734863,8.10099983215332,-7.243000030517577,0.5879999995231628,-8.557000160217285,4.0279998779296875
1621851076336,-8.119999885559082,8.404999732971191,-7.757999897003175,0.5490000247955322,-8.517999649047852,4.034999847412109
1621851076346,-7.8400001525878915,8.510000228881836,-7.953000068664551,0.5879999995231628,-8.479999542236328,4.040999889373779
1621851076356,-7.070000171661377,8.835000038146973,-8.180000305175781,0.6280000209808348,-8.447999954223633,4.086999893188477
1621851076366,-6.159999847412109,9.07800006866455,-8.350000381469727,0.6280000209808348,-8.447999954223633,4.086999893188477
1621851076376,-5.355000019073486,8.976499557495117,-8.581500053405762,0.6669999957084655,-8.416000366210938,4.131999969482422
1621851076386,-4.550000190734863,8.875,-8.812999725341797,0.6280000209808348,-8.371000289916992,4.099999904632568
1621851076396,-2.869999885559082,8.675999641418457,-9.701000213623049,0.7059999704360961,-8.409000396728516,4.093999862670898
1621851076406,-1.399999976158142,8.310999870300293,-10.048999786376951,0.7059999704360961,-8.557000160217285,4.0279998779296875
1621851076416,-0.209999993443489,7.876999855041504,-10.409999847412108,0.7059999704360961,-8.633999824523926,4.013999938964844
1621851076426,0.3499999940395355,7.492000102996825,-11.046999931335447,0.7450000047683715,-8.666000366210938,3.9690001010894775
1621851076436,0.0,6.923999786376953,-10.64900016784668,0.7450000047683715,-8.711999893188477,4.000999927520752
1621851076446,-0.3499999940395355,6.5269999504089355,-11.217000007629396,0.7059999704360961,-8.680000305175781,4.046000003814697
1621851076456,-0.9100000262260436,5.485000133514404,-11.755999565124512,0.7450000047683715,-8.654999732971191,4.130000114440918
1621851076466,-0.699999988079071,4.770999908447266,-11.739999771118164,0.7850000262260437,-8.57699966430664,4.144000053405762
1621851076476,0.0,4.4629998207092285,-12.006999969482422,0.8240000009536743,-8.545999526977539,4.189000129699707
1621851076486,0.7699999809265136,3.453000068664551,-12.328000068664553,0.7850000262260437,-8.552000045776367,4.228000164031982
1621851076496,1.6799999475479126,2.6500000953674316,-12.611000061035156,0.7850000262260437,-8.552000045776367,4.228000164031982
1621851076506,3.2200000286102295,2.322000026702881,-13.166999816894531,0.7850000262260437,-8.590999603271484,4.2210001945495605
1621851076516,4.059999942779541,2.3380000591278076,-13.661999702453612,0.7450000047683715,-8.71399974822998,4.238999843597412
1621851076526,4.550000190734863,2.427000045776367,-14.56999969482422,0.7850000262260437,-8.71399974822998,4.238999843597412
1621851076536,4.340000152587891,2.750999927520752,-14.796999931335447,0.7059999704360961,-8.805000305175781,4.302999973297119
1621851076546,3.849999904632568,3.193000078201294,-15.288000106811523,0.7059999704360961,-8.850000381469727,4.335000038146973
1621851076556,3.7799999713897705,3.861999988555908,-15.45400047302246,0.7059999704360961,-8.888999938964844,4.328000068664551
1621851076566,3.359999895095825,4.348999977111816,-14.586000442504885,0.7059999704360961,-8.927000045776367,4.321000099182129
1621851076576,2.309999942779541,4.629000186920166,-13.755000114440918,0.6669999957084655,-8.934000015258789,4.360000133514404
1621851076586,1.399999976158142,5.326000213623047,-13.277000427246094,0.6669999957084655,-9.017999649047852,4.385000228881836
1621851076596,0.209999993443489,6.004000186920166,-13.086000442504885,0.6280000209808348,-9.10200023651123,4.409999847412109
1621851076606,-1.8899999856948853,7.349999904632568,-13.062000274658203,0.5879999995231628,-9.232000350952148,4.466000080108643
1621851076616,-3.6400001049041744,8.534000396728516,-12.923999786376951,0.5879999995231628,-9.277000427246092,4.498000144958496
1621851076626,-5.809999942779541,9.722000122070312,-13.213000297546388,0.5490000247955322,-9.315999984741213,4.491000175476074
1621851076636,-8.119999885559082,10.878000259399414,-13.720000267028809,0.5490000247955322,-9.347999572753906,4.446000099182129
1621851076646,-9.9399995803833,12.255999565124512,-13.47599983215332,0.5099999904632568,-9.309000015258787,4.453000068664551
1621851076656,-10.885000228881836,12.947500228881836,-13.567500114440918,0.5490000247955322,-9.270999908447264,4.460000038146973
1621851076666,-11.829999923706056,13.638999938964844,-13.659000396728516,0.4709999859333038,-9.277000427246092,4.498000144958496
1621851076676,-13.4399995803833,15.366000175476074,-13.781000137329102,0.3919999897480011,-9.277000427246092,4.498000144958496
1621851076686,-14.909999847412108,17.325000762939453,-14.003999710083008,0.3529999852180481,-9.309000015258787,4.453000068664551
1621851076696,-16.729999542236328,19.284000396728516,-14.227999687194824,0.2750000059604644,-9.38599967956543,4.439000129699707
1621851076706,-18.969999313354492,21.77300071716309,-14.642000198364258,0.2750000059604644,-9.425000190734863,4.432000160217285
1621851076716,-21.350000381469727,24.586999893188477,-15.282999992370604,0.2750000059604644,-9.494999885559082,4.380000114440918
1621851076726,-23.8700008392334,27.54700088500977,-15.54300022125244,0.3140000104904174,-9.45699977874756,4.38700008392334
1621851076736,-26.530000686645508,30.243999481201172,-15.920000076293944,0.3529999852180481,-9.48900032043457,4.341000080108643
1621851076746,-28.979999542236328,32.85499954223633,-15.8149995803833,0.3919999897480011,-9.527000427246092,4.335000038146973
1621851076756,-31.219999313354492,34.790000915527344,-14.69200038909912,0.3919999897480011,-9.435999870300291,4.270999908447266
1621851076766,-33.31999969482422,36.98400115966797,-13.026000022888184,0.3919999897480011,-9.442999839782717,4.309999942779541
1621851076776,-35.560001373291016,38.42300033569336,-11.918999671936035,0.4309999942779541,-9.345999717712402,4.206999778747559
1621851076786,-37.310001373291016,40.32099914550781,-10.58899974822998,0.4309999942779541,-9.163999557495115,4.079999923706055
1621851076796,-38.290000915527344,41.89899826049805,-9.458000183105469,0.4309999942779541,-9.149999618530272,4.002999782562256
1621851076806,-39.130001068115234,43.26499938964844,-9.145999908447264,0.4709999859333038,-9.137000083923342,3.9260001182556152
1621851076816,-39.54999923706055,44.862998962402344,-8.9350004196167,0.5099999904632568,-9.090999603271484,3.8940000534057617
1621851076826,-39.970001220703125,45.94599914550781,-9.029000282287598,0.5490000247955322,-9.031999588012695,3.785000085830689
1621851076836,-40.11000061035156,46.72800064086914,-9.032999992370604,0.5879999995231628,-9.057000160217283,3.700999975204468
1621851076846,-40.459999084472656,47.54399871826172,-8.817999839782715,0.6280000209808348,-9.08899974822998,3.6549999713897705
1621851076856,-40.810001373291016,47.62099838256836,-8.449000358581543,0.6669999957084655,-9.11400032043457,3.571000099182129
1621851076866,-40.599998474121094,47.25199890136719,-8.371999740600586,0.7059999704360961,-9.067999839782717,3.5390000343322754
1621851076876,-40.529998779296875,46.28300094604492,-8.116000175476074,0.7850000262260437,-9.04800033569336,3.4230000972747803
1621851076886,-39.54999923706055,45.60900115966797,-7.52400016784668,0.8240000009536743,-8.996000289916992,3.3529999256134033
1621851076896,-38.43000030517578,43.915000915527344,-7.183000087738037,0.8629999756813049,-8.89799976348877,3.250999927520752
1621851076906,-36.61000061035156,42.35699844360352,-6.817999839782715,0.9020000100135804,-8.821000099182129,3.263999938964844
1621851076916,-34.439998626708984,40.88999938964844,-6.1529998779296875,0.9020000100135804,-8.755000114440918,3.1170001029968266
1621851076926,-33.040000915527344,39.222999572753906,-5.166999816894531,0.8629999756813049,-8.786999702453613,3.071000099182129
1621851076936,-32.23500061035156,38.51350021362305,-4.972499847412109,0.8629999756813049,-8.812000274658203,2.986999988555908
1621851076946,-31.43000030517578,37.804000854492195,-4.7779998779296875,0.7850000262260437,-8.843999862670898,2.941999912261963
1621851076956,-30.3799991607666,36.59600067138672,-4.7779998779296875,0.7450000047683715,-8.946000099182129,2.8440001010894775
1621851076966,-29.1200008392334,35.2859992980957,-5.008999824523926,0.7059999704360961,-9.05500030517578,2.7850000858306885
1621851076976,-28.209999084472656,34.145999908447266,-4.995999813079834,0.6280000209808348,-9.17099952697754,2.763999938964844
1621851076986,-28.0,32.79199981689453,-5.376999855041504,0.6280000209808348,-9.163999557495115,2.7260000705718994
1621851076996,-27.790000915527344,31.71299934387207,-5.710000038146973,0.5879999995231628,-9.196000099182127,2.680000066757202
1621851077006,-27.3700008392334,30.86199951171875,-5.7179999351501465,0.5099999904632568,-9.20300006866455,2.7190001010894775
1621851077016,-26.739999771118164,30.124000549316406,-5.564000129699707,0.5099999904632568,-9.241000175476074,2.711999893188477
1621851077026,-26.38999938964844,29.479000091552734,-5.534999847412109,0.4709999859333038,-9.312000274658203,2.6600000858306885
1621851077036,-26.600000381469727,28.785999298095703,-5.230999946594238,0.4309999942779541,-9.375,2.569000005722046
1621851077046,-26.739999771118164,28.48200035095215,-4.716000080108643,0.3529999852180481,-9.38199996948242,2.6080000400543213
1621851077056,-26.8799991607666,27.917999267578125,-4.74399995803833,0.3140000104904174,-9.439000129699709,2.4779999256134033
1621851077066,-26.950000762939453,27.479999542236328,-4.678999900817871,0.2750000059604644,-9.54800033569336,2.4189999103546143
1621851077076,-26.950000762939453,27.917999267578125,-4.74399995803833,0.1570000052452087,-9.586999893188477,2.4119999408721924
1621851077086,-27.86000061035156,28.424999237060547,-4.796999931335449,0.0780000016093254,-9.572999954223633,2.3350000381469727
1621851077096,-28.770000457763672,29.150999069213867,-4.881999969482422,0.0390000008046627,-9.597999572753906,2.250999927520752
1621851077106,-29.75,30.31800079345703,-5.458000183105469,0.0390000008046627,-9.597999572753906,2.250999927520752
1621851077116,-30.3799991607666,30.854000091552734,-6.074999809265137,0.0780000016093254,-9.553000450134276,2.2190001010894775
1621851077126,-30.940000534057617,31.29199981689453,-6.139999866485596,0.1180000007152557,-9.54599952697754,2.180000066757202
1621851077136,-31.149999618530273,31.347999572753903,-6.058000087738037,0.1570000052452087,-9.5,2.1489999294281006
1621851077146,-30.729999542236328,31.209999084472656,-6.083000183105469,0.1570000052452087,-9.454999923706056,2.1170001029968266
1621851077156,-30.8700008392334,31.445999145507812,-6.610000133514404,0.1570000052452087,-9.434000015258787,2.000999927520752
1621851077166,-30.729999542236328,31.628000259399418,-7.644000053405762,0.1180000007152557,-9.472999572753906,1.99399995803833
1621851077176,-30.8700008392334,31.940000534057617,-7.802000045776368,0.1959999948740005,-9.472999572753906,1.99399995803833
1621851077186,-30.450000762939453,31.854999542236328,-8.527999877929688,0.1570000052452087,-9.491000175476074,1.8710000514984133
1621851077196,-30.100000381469727,32.025001525878906,-8.888999938964844,0.1959999948740005,-9.529999732971191,1.8650000095367432
1621851077206,-29.75,32.19499969482422,-9.25,0.2349999994039535,-9.586999893188477,1.7350000143051147
1621851077216,-29.88999938964844,31.886999130249023,-9.517000198364256,0.2349999994039535,-9.579999923706056,1.6959999799728394
1621851077226,-29.959999084472656,31.805999755859375,-9.461000442504885,0.2349999994039535,-9.579999923706056,1.6959999799728394
1621851077236,-29.81999969482422,31.85099983215332,-9.310999870300291,0.2349999994039535,-9.572999954223633,1.6579999923706057
1621851077246,-29.540000915527344,31.63599967956543,-9.70400047302246,0.2349999994039535,-9.604999542236328,1.6119999885559082
1621851077256,-29.190000534057617,31.624000549316406,-9.635000228881836,0.3140000104904174,-9.559000015258787,1.5809999704360962
1621851077266,-28.770000457763672,31.22599983215332,-10.203000068664553,0.3140000104904174,-9.590999603271484,1.5349999666213987
1621851077276,-28.420000076293945,30.731000900268555,-10.218999862670898,0.3529999852180481,-9.661999702453612,1.4830000400543213
1621851077286,-28.209999084472656,30.548999786376953,-10.392999649047852,0.3529999852180481,-9.725000381469728,1.3919999599456787
1621851077296,-28.6299991607666,30.249000549316406,-10.303999900817873,0.3919999897480011,-9.75,1.3079999685287476
1621851077306,-29.190000534057617,29.39699935913086,-10.312000274658203,0.3919999897480011,-9.859000205993652,1.2489999532699585
1621851077316,-29.68000030517578,28.724000930786133,-9.720000267028809,0.3529999852180481,-9.866000175476074,1.287999987602234
1621851077326,-30.729999542236328,28.43199920654297,-9.27400016784668,0.3919999897480011,-9.821000099182127,1.25600004196167
1621851077336,-30.940000534057617,27.95400047302246,-8.576000213623047,0.3529999852180481,-9.774999618530272,1.2239999771118164
1621851077346,-30.3799991607666,27.14699935913086,-8.434000015258789,0.3919999897480011,-9.729999542236328,1.1920000314712524
1621851077356,-30.100000381469727,26.69300079345703,-7.874000072479248,0.3919999897480011,-9.6850004196167,1.1599999666213987
1621851077366,-29.75,26.055999755859375,-7.488999843597413,0.3529999852180481,-9.715999603271484,1.1150000095367432
1621851077376,-29.959999084472656,25.500999450683594,-7.160999774932861,0.3529999852180481,-9.70300006866455,1.037999987602234
1621851077386,-29.81999969482422,25.339000701904297,-7.046999931335449,0.3140000104904174,-9.727999687194824,0.953000009059906
1621851077396,-29.88999938964844,25.261999130249023,-7.415999889373779,0.3140000104904174,-9.79800033569336,0.9010000228881836
1621851077406,-29.959999084472656,24.81100082397461,-7.282000064849853,0.3140000104904174,-9.753000259399414,0.8690000176429749
1621851077416,-30.100000381469727,24.320999145507812,-7.723999977111816,0.3140000104904174,-9.699999809265137,0.7990000247955322
1621851077426,-29.924999237060547,24.16699981689453,-7.857999801635742,0.3140000104904174,-9.654999732971191,0.7670000195503234
1621851077436,-29.75,24.01300048828125,-7.992000102996825,0.3140000104904174,-9.51900005340576,0.6719999909400939
1621851077446,-29.260000228881836,23.700000762939453,-7.833000183105469,0.3919999897480011,-9.505000114440918,0.5939999818801879
1621851077456,-28.489999771118164,23.20599937438965,-7.849999904632568,0.3529999852180481,-9.460000038146973,0.5630000233650208
1621851077466,-27.86000061035156,22.511999130249023,-7.545000076293945,0.3529999852180481,-9.498000144958496,0.5559999942779541
1621851077476,-27.510000228881836,21.656999588012695,-7.127999782562256,0.3529999852180481,-9.529999732971191,0.5099999904632568
1621851077486,-27.229999542236328,20.934999465942383,-6.260000228881836,0.3140000104904174,-9.54800033569336,0.3880000114440918
1621851077496,-27.15999984741211,20.70400047302246,-6.1579999923706055,0.2750000059604644,-9.579999923706056,0.3420000076293945
1621851077506,-26.670000076293945,20.56599998474121,-6.183000087738037,0.1959999948740005,-9.565999984741213,0.2649999856948852
1621851077516,-26.31999969482422,20.47699928283691,-6.482999801635742,0.1959999948740005,-9.47599983215332,0.2010000050067901
1621851077526,-25.40999984741211,20.54199981689453,-7.252999782562256,0.1959999948740005,-9.437000274658203,0.2080000042915344
1621851077536,-23.8700008392334,20.663000106811523,-7.942999839782715,0.1959999948740005,-9.385000228881836,0.1379999965429306
1621851077546,-22.68000030517578,20.70800018310547,-9.00100040435791,0.2750000059604644,-9.371000289916992,0.0599999986588954
1621851077556,-21.209999084472656,20.724000930786133,-9.496000289916992,0.3140000104904174,-9.395999908447264,-0.0240000002086162
1621851077566,-20.15999984741211,20.225000381469727,-9.086000442504885,0.3529999852180481,-9.479999542236328,0.0010000000474974
1621851077576,-19.459999084472656,19.482999801635746,-8.505999565124512,0.3529999852180481,-9.531999588012695,0.0719999969005584
1621851077586,-18.479999542236328,18.549999237060547,-8.456999778747559,0.3140000104904174,-9.58899974822998,-0.0579999983310699
1621851077596,-17.290000915527344,18.08799934387207,-8.253999710083008,0.3140000104904174,-9.58899974822998,-0.0579999983310699
1621851077606,-16.65999984741211,17.253000259399414,-8.756999969482422,0.3140000104904174,-9.628000259399414,-0.0649999976158142
1621851077616,-15.81999969482422,16.843000411987305,-9.255999565124512,0.2750000059604644,-9.621000289916992,-0.1030000001192092
1621851077626,-14.699999809265137,16.299999237060547,-10.204999923706056,0.2750000059604644,-9.58199977874756,-0.096000000834465
1621851077636,-14.244999885559082,16.147499084472656,-10.55150032043457,0.3140000104904174,-9.529999732971191,-0.1669999957084655
1621851077646,-13.789999961853027,15.994999885559082,-10.89799976348877,0.3140000104904174,-9.446000099182127,-0.19200000166893
1621851077656,-12.880000114440918,15.711999893188477,-11.303000450134276,0.3140000104904174,-9.484999656677246,-0.1990000009536743
1621851077666,-11.550000190734863,15.041999816894531,-11.13700008392334,0.3529999852180481,-9.517000198364256,-0.2440000027418136
1621851077676,-10.640000343322754,14.758999824523926,-11.54300022125244,0.3529999852180481,-9.63199996948242,-0.2649999856948852
1621851077686,-10.640000343322754,14.178999900817873,-11.076000213623049,0.3529999852180481,-9.710000038146973,-0.277999997138977
1621851077696,-10.149999618530272,13.914999961853027,-11.194000244140623,0.3140000104904174,-9.710000038146973,-0.277999997138977
1621851077706,-10.149999618530272,13.45699977874756,-11.416999816894531,0.3140000104904174,-9.748000144958496,-0.2849999964237213
1621851077716,-10.289999961853027,13.496999740600586,-12.048999786376951,0.3140000104904174,-9.748000144958496,-0.2849999964237213
1621851077726,-10.220000267028809,13.152999877929688,-12.109999656677246,0.2750000059604644,-9.720999717712402,-0.4390000104904174
1621851077736,-10.43000030517578,13.493000030517578,-12.83199977874756,0.2750000059604644,-9.727999687194824,-0.4009999930858612
1621851077746,-9.9399995803833,13.354999542236328,-12.855999946594238,0.2750000059604644,-9.663999557495115,-0.3100000023841857
1621851077756,-9.380000114440918,13.298999786376951,-12.937000274658203,0.2750000059604644,-9.663999557495115,-0.3100000023841857
1621851077766,-9.029999732971191,13.69200038909912,-13.152000427246094,0.2750000059604644,-9.612000465393066,-0.3799999952316284
1621851077776,-8.399999618530273,14.255999565124512,-13.12399959564209,0.2750000059604644,-9.64400005340576,-0.4259999990463256
1621851077786,-8.329999923706055,14.892000198364258,-13.508999824523926,0.2349999994039535,-9.720999717712402,-0.4390000104904174
1621851077796,-8.680000305175781,15.20400047302246,-13.666999816894531,0.2349999994039535,-9.720999717712402,-0.4390000104904174
1621851077806,-9.100000381469728,15.909999847412108,-14.041000366210936,0.2349999994039535,-9.79800033569336,-0.453000009059906
1621851077816,-9.800000190734863,16.68000030517578,-13.97599983215332,0.2349999994039535,-9.791999816894531,-0.492000013589859
1621851077826,-10.43000030517578,17.183000564575195,-13.602999687194824,0.2750000059604644,-9.862000465393066,-0.5440000295639038
1621851077836,-10.56999969482422,17.274499893188477,-13.515500068664553,0.2750000059604644,-9.822999954223633,-0.537000000476837
1621851077846,-10.710000038146973,17.365999221801758,-13.428000450134276,0.3529999852180481,-9.777999877929688,-0.5690000057220459
1621851077856,-10.850000381469728,17.584999084472656,-13.461000442504885,0.3919999897480011,-9.746000289916992,-0.5239999890327453
1621851077866,-10.5,17.961999893188477,-13.180999755859377,0.3140000104904174,-9.70699977874756,-0.5170000195503234
1621851077876,-10.149999618530272,18.375,-13.107999801635742,0.3529999852180481,-9.701000213623049,-0.5550000071525573
1621851077886,-9.729999542236328,18.84199905395508,-13.737000465393066,0.3919999897480011,-9.701000213623049,-0.5550000071525573
1621851077896,-9.449999809265137,18.992000579833984,-13.781999588012695,0.3919999897480011,-9.694000244140623,-0.5939999818801879
1621851077906,-8.890000343322754,18.812999725341797,-14.381999969482422,0.4309999942779541,-9.72599983215332,-0.6389999985694885
1621851077916,-8.260000228881836,18.739999771118164,-13.968000411987305,0.4309999942779541,-9.732000350952148,-0.6010000109672546
1621851077926,-7.769999980926514,18.66699981689453,-13.553999900817873,0.4309999942779541,-9.732000350952148,-0.6010000109672546
1621851077936,-7.630000114440918,18.881999969482425,-13.16100025177002,0.4309999942779541,-9.732000350952148,-0.6010000109672546
1621851077946,-7.769999980926514,19.194000244140625,-13.319000244140623,0.3919999897480011,-9.72599983215332,-0.6389999985694885
1621851077956,-7.420000076293945,19.218999862670895,-13.45699977874756,0.3919999897480011,-9.687000274658203,-0.6330000162124633
1621851077966,-6.789999961853027,19.72599983215332,-13.510000228881836,0.4309999942779541,-9.68000030517578,-0.6710000038146972
1621851077975,-6.440000057220459,20.33799934387207,-13.756999969482422,0.4709999859333038,-9.72599983215332,-0.6389999985694885
1621851077985,-6.300000190734863,20.85300064086914,-13.453000068664553,0.4309999942779541,-9.635000228881836,-0.703000009059906
1621851077995,-6.090000152587891,21.424999237060547,-13.067999839782717,0.3919999897480011,-9.621000289916992,-0.7799999713897705
1621851078005,-5.460000038146973,22.082000732421875,-13.166000366210936,0.4709999859333038,-9.628000259399414,-0.7419999837875366
1621851078015,-5.179999828338623,22.714000701904297,-13.125,0.4709999859333038,-9.635000228881836,-0.703000009059906
1621851078025,-5.110000133514404,23.229000091552734,-12.821000099182127,0.5099999904632568,-9.628000259399414,-0.7419999837875366
1621851078035,-5.005000114440918,23.381000518798828,-12.47450065612793,0.5879999995231628,-9.666999816894531,-0.7490000128746032
1621851078045,-4.900000095367432,23.53300094604492,-12.128000259399414,0.6669999957084655,-9.711999893188477,-0.7170000076293945
1621851078055,-5.110000133514404,23.788999557495117,-11.159000396728516,0.6669999957084655,-9.782999992370604,-0.7689999938011169
1621851078065,-4.900000095367432,23.70400047302246,-10.675999641418455,0.7059999704360961,-9.75100040435791,-0.7239999771118164
1621851078075,-5.460000038146973,23.295000076293945,-9.965999603271484,0.7450000047683715,-9.788999557495115,-0.7300000190734863
1621851078085,-5.670000076293945,22.527999877929688,-9.24899959564209,0.7450000047683715,-9.788999557495115,-0.7300000190734863
1621851078095,-6.510000228881836,21.67300033569336,-8.831000328063965,0.7450000047683715,-9.744000434875488,-0.762000024318695
1621851078105,-7.210000038146973,20.638999938964844,-9.012999534606934,0.7850000262260437,-9.782999992370604,-0.7689999938011169
1621851078115,-7.630000114440918,19.604999542236328,-9.19499969482422,0.8240000009536743,-9.814000129699709,-0.8140000104904174
1621851078125,-7.980000019073486,17.95800018310547,-9.130000114440918,0.9409999847412108,-9.80799961090088,-0.8529999852180481
1621851078135,-8.329999923706055,16.3439998626709,-8.845999717712402,0.9020000100135804,-9.755000114440918,-0.9229999780654908
1621851078145,-8.680000305175781,14.803999900817873,-8.97599983215332,0.981000006198883,-9.722999572753906,-0.8780000209808348
1621851078155,-8.680000305175781,12.987000465393066,-9.154000282287598,1.0980000495910645,-9.657999992370604,-1.0260000228881836
1621851078165,-8.399999618530273,11.324000358581545,-9.802000045776367,1.0590000152587893,-9.70300006866455,-0.9940000176429749
1621851078175,-8.539999961853027,9.223999977111816,-10.38599967956543,1.0590000152587893,-9.741999626159668,-1.0010000467300415
1621851078185,-8.1899995803833,7.033999919891357,-10.060999870300291,1.0980000495910645,-9.772999763488768,-1.0460000038146973
1621851078195,-8.1899995803833,4.617000102996826,-8.852999687194824,1.1380000114440918,-9.748000144958496,-0.962000012397766
1621851078205,-7.630000114440918,2.424000024795532,-8.10200023651123,1.1380000114440918,-9.70300006866455,-0.9940000176429749
1621851078215,-6.71999979019165,0.5460000038146972,-7.935999870300293,1.1380000114440918,-9.67099952697754,-0.9480000138282776
1621851078225,-5.880000114440918,-1.2300000190734863,-8.746000289916992,1.0980000495910645,-9.593999862670898,-0.9350000023841856
1621851078235,-5.320000171661377,-1.8665000200271609,-8.96500015258789,1.0980000495910645,-9.586999893188477,-0.9729999899864196
1621851078245,-4.760000228881836,-2.503000020980835,-9.184000015258787,1.0199999809265137,-9.55500030517578,-0.9279999732971193
1621851078255,-3.7100000381469727,-4.140999794006348,-8.76200008392334,1.0199999809265137,-9.562000274658203,-0.8889999985694885
1621851078265,-3.009999990463257,-6.079999923706055,-8.25100040435791,0.981000006198883,-9.593999862670898,-0.9350000023841856
1621851078275,-2.799999952316284,-7.368999958038329,-8.194000244140625,0.9409999847412108,-9.579999923706056,-1.0119999647140503
1621851078285,-2.309999942779541,-8.597999572753906,-8.482000350952148,0.9409999847412108,-9.541999816894531,-1.0049999952316284
1621851078295,-1.9600000381469729,-9.781999588012695,-8.619999885559082,0.9409999847412108,-9.586999893188477,-0.9729999899864196
1621851078305,-1.4700000286102295,-10.85200023651123,-8.595000267028809,0.9409999847412108,-9.710000038146973,-0.9549999833106994
1621851078315,-1.8899999856948853,-11.951000213623049,-8.006999969482422,0.8629999756813049,-9.70300006866455,-0.9940000176429749
1621851078325,-2.0999999046325684,-13.010000228881836,-8.050999641418457,0.9020000100135804,-9.70300006866455,-0.9940000176429749
1621851078335,-1.9600000381469729,-13.642000198364258,-8.092000007629395,0.8629999756813049,-9.70300006866455,-0.9940000176429749
1621851078345,-2.380000114440918,-13.99899959564209,-8.083999633789062,0.8629999756813049,-9.710000038146973,-0.9549999833106994
1621851078355,-2.240000009536743,-14.472999572753906,-7.811999797821045,0.8240000009536743,-9.67099952697754,-0.9480000138282776
1621851078365,-1.5399999618530271,-14.380000114440918,-7.938000202178955,0.7450000047683715,-9.663999557495115,-0.9869999885559082
1621851078375,-1.1200000047683716,-14.598999977111816,-7.905000209808349,0.7450000047683715,-9.67099952697754,-0.9480000138282776
1621851078385,-0.8399999737739563,-14.574999809265137,-8.043000221252441,0.7450000047683715,-9.638999938964846,-0.902999997138977
1621851078395,-0.8399999737739563,-14.392000198364258,-7.868999958038329,0.6669999957084655,-9.633000373840332,-0.9419999718666076
1621851078405,-1.0499999523162842,-13.958000183105469,-7.507999897003175,0.6280000209808348,-9.657999992370604,-1.0260000228881836
1621851078415,-1.6100000143051147,-13.38700008392334,-7.123000144958496,0.6280000209808348,-9.675999641418455,-1.1480000019073486
1621851078425,-1.8550000190734863,-13.210500717163086,-6.914000034332275,0.6669999957084655,-9.689000129699709,-1.0709999799728394
1621851078435,-2.0999999046325684,-13.034000396728516,-6.704999923706055,0.6280000209808348,-9.696000099182127,-1.0329999923706057
1621851078445,-2.1700000762939453,-12.449999809265137,-6.388999938964844,0.6280000209808348,-9.741999626159668,-1.0010000467300415
1621851078455,-2.6600000858306885,-12.08899974822998,-5.613999843597412,0.5879999995231628,-9.70300006866455,-0.9940000176429749
1621851078465,-2.799999952316284,-11.590000152587892,-6.02400016784668,0.5490000247955322,-9.663999557495115,-0.9869999885559082
1621851078475,-2.799999952316284,-10.583999633789064,-6.486999988555908,0.5099999904632568,-9.657999992370604,-1.0260000228881836
1621851078485,-3.009999990463257,-10.336999893188477,-7.083000183105469,0.4709999859333038,-9.619000434875488,-1.0190000534057615
1621851078495,-2.799999952316284,-9.11299991607666,-7.578000068664551,0.4709999859333038,-9.579999923706056,-1.0119999647140503
1621851078505,-2.309999942779541,-7.933000087738037,-8.222000122070312,0.4709999859333038,-9.579999923706056,-1.0119999647140503
1621851078515,-1.8899999856948853,-6.9720001220703125,-8.835000038146973,0.4309999942779541,-9.612000465393066,-1.0579999685287476
1621851078525,-1.4700000286102295,-6.164999961853027,-8.97700023651123,0.4709999859333038,-9.604999542236328,-1.0959999561309814
1621851078535,-0.9100000262260436,-5.070000171661377,-9.138999938964846,0.4709999859333038,-9.663999557495115,-0.9869999885559082
1621851078545,-1.2599999904632568,-4.080999851226807,-9.107000350952148,0.4709999859333038,-9.689000129699709,-1.0709999799728394
1621851078555,-0.9100000262260436,-3.313999891281128,-9.824999809265137,0.4309999942779541,-9.696000099182127,-1.0329999923706057
1621851078565,-0.9100000262260436,-2.125999927520752,-10.11299991607666,0.4309999942779541,-9.651000022888184,-1.0640000104904177
1621851078575,-0.8399999737739563,-0.5040000081062316,-10.039999961853027,0.4309999942779541,-9.56700038909912,-1.0889999866485596
1621851078585,-0.5600000023841857,0.7969999909400939,-10.166000366210936,0.3919999897480011,-9.527999877929688,-1.0829999446868896
1621851078595,0.0700000002980232,1.8389999866485596,-10.835000038146973,0.3529999852180481,-9.527999877929688,-1.0829999446868896
1621851078605,0.699999988079071,3.3559999465942383,-11.776000022888184,0.3529999852180481,-9.53499984741211,-1.0440000295639038
1621851078615,1.2599999904632568,4.605000019073486,-12.409000396728516,0.3919999897480011,-9.541999816894531,-1.0049999952316284
1621851078625,1.6799999475479126,5.31850004196167,-12.425500869750977,0.4709999859333038,-9.541999816894531,-1.0049999952316284
1621851078635,2.0999999046325684,6.0320000648498535,-12.44200038909912,0.4709999859333038,-9.579999923706056,-1.0119999647140503
1621851078645,2.799999952316284,7.090000152587891,-12.397000312805176,0.5099999904632568,-9.586999893188477,-0.9729999899864196
1621851078655,3.2200000286102295,8.196999549865723,-12.628000259399414,0.5879999995231628,-9.62600040435791,-0.9800000190734864
1621851078665,3.569999933242798,9.284000396728516,-11.939000129699709,0.6280000209808348,-9.70300006866455,-0.9940000176429749
1621851078675,3.5,10.241000175476074,-10.916999816894531,0.6669999957084655,-9.741999626159668,-1.0010000467300415
1621851078685,3.2899999618530273,10.800999641418455,-10.463000297546388,0.6669999957084655,-9.819000244140623,-1.0140000581741333
1621851078695,2.799999952316284,11.708999633789064,-10.37399959564209,0.6669999957084655,-9.826000213623049,-0.9760000109672546
1621851078705,2.380000114440918,12.730999946594238,-10.123000144958496,0.7059999704360961,-9.786999702453612,-0.968999981880188
1621851078715,2.309999942779541,13.498000144958496,-9.63199996948242,0.7059999704360961,-9.755000114440918,-0.9229999780654908
1621851078725,1.8899999856948853,14.312999725341797,-9.41800022125244,0.6669999957084655,-9.762000083923342,-0.8849999904632568
1621851078735,1.6100000143051147,14.986000061035156,-8.800999641418457,0.6669999957084655,-9.722999572753906,-0.8780000209808348
1621851078745,1.3300000429153442,15.343000411987305,-8.8100004196167,0.7059999704360961,-9.6850004196167,-0.8709999918937683
1621851078755,0.8399999737739563,15.927000045776367,-8.493000030517578,0.7059999704360961,-9.67099952697754,-0.9480000138282776
1621851078765,0.6299999952316284,16.66900062561035,-9.072999954223633,0.7450000047683715,-9.678000450134276,-0.9100000262260436
1621851078775,0.4199999868869781,17.56100082397461,-9.697999954223633,0.7059999704360961,-9.717000007629396,-0.9169999957084656
1621851078785,0.0700000002980232,18.554000854492188,-10.090999603271484,0.7059999704360961,-9.717000007629396,-0.9169999957084656
1621851078795,-0.209999993443489,19.11400032043457,-9.637000083923342,0.6669999957084655,-9.729999542236328,-0.8389999866485595
1621851078805,0.0,19.121999740600582,-9.279999732971191,0.7450000047683715,-9.652999877929688,-0.8259999752044677
1621851078815,0.3499999940395355,19.11999893188477,-9.0674991607666,0.7450000047683715,-9.645999908447264,-0.8640000224113464
1621851078825,0.699999988079071,19.118000030517575,-8.854999542236328,0.7850000262260437,-9.652999877929688,-0.8259999752044677
1621851078835,1.399999976158142,19.38599967956543,-9.163000106811523,0.8240000009536743,-9.652999877929688,-0.8259999752044677
1621851078845,1.75,19.722000122070312,-9.458999633789062,0.7850000262260437,-9.729999542236328,-0.8389999866485595
1621851078855,1.9600000381469729,19.665000915527344,-9.53999996185303,0.7450000047683715,-9.729999542236328,-0.8389999866485595
1621851078865,1.75,20.42799949645996,-8.62399959564209,0.6669999957084655,-9.729999542236328,-0.8389999866485595
1621851078875,1.6100000143051147,21.52300071716309,-7.578000068664551,0.6669999957084655,-9.729999542236328,-0.8389999866485595
1621851078885,0.9800000190734864,22.893999099731445,-6.482999801635742,0.5490000247955322,-9.76900005340576,-0.8460000157356262
1621851078895,0.2800000011920929,24.54400062561035,-5.765999794006348,0.5099999904632568,-9.776000022888184,-0.8080000281333923
1621851078905,-0.0700000002980232,26.819000244140625,-5.363999843597412,0.4709999859333038,-9.821000099182127,-0.7760000228881835
1621851078915,-0.2800000011920929,29.597000122070312,-4.590000152587891,0.3919999897480011,-9.776000022888184,-0.8080000281333923
1621851078925,-0.6299999952316284,32.04199981689453,-3.946000099182129,0.3529999852180481,-9.814000129699709,-0.8140000104904174
1621851078935,-1.6799999475479126,34.73899841308594,-3.115000009536743,0.2750000059604644,-9.852999687194824,-0.8209999799728394
1621851078945,-2.5199999809265137,37.93000030517578,-2.2679998874664307,0.1570000052452087,-9.859999656677246,-0.7829999923706054
1621851078955,-3.5,41.71799850463867,-1.1740000247955322,0.0780000016093254,-9.859999656677246,-0.7829999923706054
1621851078965,-4.199999809265137,45.75199890136719,-0.675000011920929,0.0,-9.904999732971191,-0.7509999871253967
1621851078975,-5.25,50.45600128173828,-0.3440000116825103,-0.0780000016093254,-9.911999702453612,-0.7120000123977661
1621851078985,-6.369999885559082,55.902000427246094,0.6169999837875366,-0.1180000007152557,-9.873000144958496,-0.7049999833106994
1621851078995,-7.699999809265136,61.266998291015625,1.633999943733215,-0.1180000007152557,-9.866999626159668,-0.7440000176429749
1621851079005,-8.539999961853027,66.91200256347656,2.2739999294281006,-0.1180000007152557,-9.859999656677246,-0.7829999923706054
1621851079015,-9.100000381469728,69.63700103759766,2.5409998893737793,-0.1180000007152557,-9.911999702453612,-0.7120000123977661
1621851079025,-9.65999984741211,72.36199951171875,2.808000087738037,-0.1570000052452087,-9.951000213623049,-0.7189999818801879
1621851079035,-10.779999732971191,77.25199890136719,2.888999938964844,-0.1570000052452087,-9.95699977874756,-0.6800000071525573
1621851079045,-12.31999969482422,82.57599639892578,3.3299999237060547,-0.1959999948740005,-9.918999671936035,-0.6740000247955322
1621851079055,-13.510000228881836,88.23300170898438,3.901000022888184,-0.1180000007152557,-9.887000083923342,-0.6280000209808348
1621851079065,-14.699999809265137,93.7239990234375,5.011000156402588,0.0780000016093254,-9.89400005340576,-0.5889999866485595
1621851079075,-15.260000228881836,98.13200378417967,6.215000152587891,0.1570000052452087,-9.89400005340576,-0.5889999866485595
1621851079085,-15.68000030517578,101.58699798583984,7.178999900817871,0.2349999994039535,-9.803000450134276,-0.652999997138977
1621851079095,-15.75,103.62999725341795,7.682000160217285,0.3919999897480011,-9.79599952697754,-0.6919999718666076
1621851079105,-15.260000228881836,105.552001953125,7.664999961853027,0.5490000247955322,-9.788999557495115,-0.7300000190734863
1621851079115,-15.329999923706056,106.39199829101562,7.742000102996825,0.6669999957084655,-9.75100040435791,-0.7239999771118164
1621851079125,-15.1899995803833,106.35900115966795,7.5229997634887695,0.7450000047683715,-9.744000434875488,-0.762000024318695
1621851079135,-14.840000152587892,105.66200256347656,7.045000076293945,0.9020000100135804,-9.697999954223633,-0.7940000295639038
1621851079145,-14.210000038146973,104.95200347900392,6.636000156402588,0.981000006198883,-9.69200038909912,-0.8330000042915344
1621851079155,-13.93000030517578,103.3550033569336,6.425000190734863,1.0980000495910645,-9.729999542236328,-0.8389999866485595
1621851079165,-13.579999923706056,101.61100006103516,5.833000183105469,1.1770000457763672,-9.652999877929688,-0.8259999752044677
1621851079175,-12.8100004196167,99.0199966430664,6.015999794006348,1.2549999952316284,-9.638999938964846,-0.902999997138977
1621851079185,-12.039999961853027,95.88099670410156,5.676000118255615,1.3730000257492063,-9.55500030517578,-0.9279999732971193
1621851079195,-11.0600004196167,92.11000061035156,5.295000076293945,1.491000056266785,-9.510000228881836,-0.9599999785423278
1621851079205,-10.149999618530272,87.52400207519531,4.699999809265137,1.6080000400543213,-9.541999816894531,-1.0049999952316284
1621851079215,-9.625,85.37649536132812,4.178999900817871,1.687000036239624,-9.527999877929688,-1.0829999446868896
1621851079225,-9.100000381469728,83.22899627685547,3.6579999923706055,1.7649999856948853,-9.48900032043457,-1.0759999752044678
1621851079235,-8.119999885559082,78.01799774169922,3.378999948501587,1.687000036239624,-9.50100040435791,-1.2369999885559082
1621851079245,-7.0,72.8239974975586,2.6050000190734863,1.72599995136261,-9.494000434875488,-1.2760000228881836
1621851079255,-6.159999847412109,67.625,2.256999969482422,1.72599995136261,-9.538999557495115,-1.24399995803833
1621851079265,-6.019999980926514,62.99100112915039,1.937999963760376,1.687000036239624,-9.538999557495115,-1.24399995803833
1621851079275,-6.159999847412109,58.78099822998047,1.621999979019165,1.6080000400543213,-9.57800006866455,-1.2510000467300415
1621851079285,-6.159999847412109,54.952999114990234,1.1599999666213987,1.569000005722046,-9.616999626159668,-1.2580000162124634
1621851079295,-6.230000019073486,50.87799835205078,1.2949999570846558,1.5299999713897705,-9.609999656677246,-1.2960000038146973
1621851079305,-6.159999847412109,46.98899841308594,1.1779999732971191,1.5299999713897705,-9.64900016784668,-1.3029999732971191
1621851079315,-5.739999771118164,42.994998931884766,1.2549999952316284,1.491000056266785,-9.602999687194824,-1.3350000381469729
1621851079325,-5.599999904632568,39.5,0.9229999780654908,1.491000056266785,-9.526000022888184,-1.3209999799728394
1621851079335,-5.179999828338623,36.13399887084961,0.2590000033378601,1.4119999408721924,-9.526000022888184,-1.3209999799728394
1621851079345,-4.760000228881836,33.02000045776367,-0.2199999988079071,1.3339999914169312,-9.564000129699709,-1.3279999494552612
1621851079355,-4.760000228881836,30.86199951171875,-0.8840000033378601,1.1380000114440918,-9.526000022888184,-1.3209999799728394
1621851079365,-4.550000190734863,28.61599922180176,-1.8489999771118164,1.0980000495910645,-9.532999992370604,-1.2829999923706057
1621851079375,-3.990000009536743,27.163999557495117,-2.88700008392334,1.0199999809265137,-9.473999977111816,-1.3919999599456787
1621851079385,-3.7799999713897705,25.461000442504883,-4.111000061035156,0.981000006198883,-9.550999641418455,-1.4049999713897705
1621851079395,-3.430000066757202,23.777999877929688,-5.047999858856201,0.981000006198883,-9.628000259399414,-1.4190000295639038
1621851079405,-3.0799999237060547,22.55299949645996,-5.761000156402588,0.9409999847412108,-9.666999816894531,-1.4259999990463257
1621851079415,-2.8350000381469727,21.816999435424805,-5.820000171661377,0.9409999847412108,-9.65999984741211,-1.4639999866485596
1621851079425,-2.5899999141693115,21.08099937438965,-5.879000186920166,0.981000006198883,-9.628000259399414,-1.4190000295639038
1621851079435,-2.5199999809265137,19.187000274658203,-5.2170000076293945,0.9409999847412108,-9.564000129699709,-1.3279999494552612
1621851079445,-1.6799999475479126,17.760000228881836,-5.184999942779541,0.9409999847412108,-9.512000083923342,-1.3980000019073486
1621851079455,-0.7699999809265136,16.226999282836914,-6.165999889373779,0.9020000100135804,-9.51900005340576,-1.3600000143051147
1621851079465,0.0700000002980232,14.093999862670898,-6.9679999351501465,0.8629999756813049,-9.479999542236328,-1.3530000448226929
1621851079475,0.9100000262260436,13.076000213623049,-7.644999980926514,0.8240000009536743,-9.473999977111816,-1.3919999599456787
1621851079485,1.3300000429153442,12.229000091552734,-8.079000473022461,0.8240000009536743,-9.51900005340576,-1.3600000143051147
1621851079495,1.8200000524520872,11.425999641418455,-8.36299991607666,0.8240000009536743,-9.473999977111816,-1.3919999599456787
1621851079505,2.380000114440918,10.87399959564209,-9.668999671936035,0.8240000009536743,-9.532999992370604,-1.2829999923706057
1621851079515,2.5199999809265137,10.536999702453612,-10.581000328063965,0.8240000009536743,-9.571000099182127,-1.2890000343322754
1621851079525,2.869999885559082,9.998000144958496,-10.746999740600586,0.8629999756813049,-9.571000099182127,-1.2890000343322754
1621851079535,3.430000066757202,9.491000175476074,-10.694000244140623,0.8240000009536743,-9.532999992370604,-1.2829999923706057
1621851079545,3.849999904632568,9.074000358581545,-10.340999603271484,0.8629999756813049,-9.494000434875488,-1.2760000228881836
1621851079555,4.340000152587891,8.206000328063965,-11.062999725341797,0.8629999756813049,-9.494000434875488,-1.2760000228881836
1621851079565,4.760000228881836,7.565000057220459,-11.460000038146973,0.8240000009536743,-9.50100040435791,-1.2369999885559082
1621851079575,5.599999904632568,6.6570000648498535,-11.550000190734863,0.8240000009536743,-9.538999557495115,-1.24399995803833
1621851079585,6.230000019073486,6.35699987411499,-11.460000038146973,0.7450000047683715,-9.616999626159668,-1.2580000162124634
1621851079595,6.230000019073486,6.361000061035156,-11.88599967956543,0.7450000047683715,-9.609999656677246,-1.2960000038146973
1621851079605,5.670000076293945,6.571000099182129,-12.274999618530272,0.7450000047683715,-9.654999732971191,-1.2640000581741333
1621851079614,5.355000019073486,6.820500373840332,-12.479999542236328,0.7059999704360961,-9.701000213623049,-1.2330000400543213
1621851079624,5.039999961853027,7.070000171661377,-12.6850004196167,0.7059999704360961,-9.760000228881836,-1.1230000257492063
1621851079634,4.199999809265137,8.322999954223633,-13.744000434875488,0.7450000047683715,-9.753000259399414,-1.1619999408721924
1621851079644,3.569999933242798,9.479000091552734,-14.25100040435791,0.7850000262260437,-9.746000289916992,-1.2009999752044678
1621851079654,3.009999990463257,10.171999931335447,-14.55500030517578,0.7850000262260437,-9.701000213623049,-1.2330000400543213
1621851079664,2.380000114440918,10.79599952697754,-14.871000289916992,0.7850000262260437,-9.78499984741211,-1.2079999446868896
1621851079674,2.7300000190734863,11.298999786376951,-14.498000144958496,0.7450000047683715,-9.753000259399414,-1.1619999408721924
1621851079684,2.799999952316284,12.045000076293944,-14.29599952697754,0.7850000262260437,-9.760000228881836,-1.1230000257492063
1621851079694,2.869999885559082,12.722999572753906,-14.104999542236328,0.7850000262260437,-9.760000228881836,-1.1230000257492063
1621851079704,3.2899999618530273,13.432000160217283,-13.696000099182127,0.7850000262260437,-9.720999717712402,-1.1169999837875366
1621851079714,3.5,14.696999549865724,-13.614999771118164,0.8240000009536743,-9.68299961090088,-1.1100000143051147
1621851079724,3.359999895095825,15.687000274658203,-13.58199977874756,0.8629999756813049,-9.68299961090088,-1.1100000143051147
1621851079734,3.5,16.209999084472656,-14.130000114440918,0.8629999756813049,-9.720999717712402,-1.1169999837875366
1621851079744,3.7100000381469727,17.097999572753906,-14.32900047302246,0.9409999847412108,-9.720999717712402,-1.1169999837875366
1621851079754,3.990000009536743,18.184999465942383,-14.847999572753906,1.0199999809265137,-9.68299961090088,-1.1100000143051147
1621851079764,4.199999809265137,18.524999618530273,-15.56999969482422,1.0590000152587893,-9.727999687194824,-1.0779999494552612
1621851079774,4.900000095367432,18.56599998474121,-16.20199966430664,1.0590000152587893,-9.760000228881836,-1.1230000257492063
1621851079784,4.690000057220459,18.66699981689453,-15.970999717712402,1.0980000495910645,-9.812000274658203,-1.0529999732971191
1621851079794,5.179999828338623,18.99099922180176,-16.197999954223633,1.1380000114440918,-9.772999763488768,-1.0460000038146973
1621851079804,5.53000020980835,19.14900016784668,-17.0939998626709,1.215999960899353,-9.779999732971191,-1.0080000162124634
1621851079814,5.599999904632568,19.356000900268555,-17.058000564575195,1.215999960899353,-9.779999732971191,-1.0080000162124634
1621851079824,5.355000019073486,19.117000579833984,-17.313499450683594,1.2549999952316284,-9.741999626159668,-1.0010000467300415
1621851079834,5.110000133514404,18.878000259399418,-17.569000244140625,1.3730000257492063,-9.70300006866455,-0.9940000176429749
1621851079844,4.340000152587891,19.132999420166016,-17.808000564575195,1.3730000257492063,-9.70300006866455,-0.9940000176429749
1621851079854,3.430000066757202,19.003000259399418,-18.68400001525879,1.3730000257492063,-9.696000099182127,-1.0329999923706057
1621851079864,2.309999942779541,18.85300064086914,-19.847999572753903,1.4119999408721924,-9.619000434875488,-1.0190000534057615
1621851079874,1.4700000286102295,18.17200088500977,-20.820999145507812,1.4509999752044678,-9.612000465393066,-1.0579999685287476
1621851079884,1.0499999523162842,18.301000595092773,-21.152999877929688,1.4509999752044678,-9.586999893188477,-0.9729999899864196
1621851079894,0.0700000002980232,18.20400047302246,-20.60199928283691,1.4509999752044678,-9.619000434875488,-1.0190000534057615
1621851079904,-0.5600000023841857,18.33799934387207,-20.152000427246097,1.4119999408721924,-9.62600040435791,-0.9800000190734864
1621851079914,-0.7699999809265136,19.141000747680664,-19.868000030517575,1.3730000257492063,-9.579999923706056,-1.0119999647140503
1621851079924,-0.9800000190734864,19.48200035095215,-19.381999969482425,1.3730000257492063,-9.53499984741211,-1.0440000295639038
1621851079934,-1.190000057220459,20.073999404907227,-18.70800018310547,1.4509999752044678,-9.503000259399414,-0.9990000128746032
1621851079944,-1.4700000286102295,20.98200035095215,-17.410999298095703,1.491000056266785,-9.503000259399414,-0.9990000128746032
1621851079954,-1.9600000381469729,21.73200035095215,-16.426000595092773,1.491000056266785,-9.458000183105469,-1.0299999713897705
1621851079964,-1.9600000381469729,22.25200080871582,-15.33899974822998,1.569000005722046,-9.387000083923342,-0.977999985218048
1621851079974,-1.6799999475479126,22.78700065612793,-14.746999740600586,1.6480000019073486,-9.425999641418455,-0.9850000143051147
1621851079984,-1.6100000143051147,22.746999740600582,-14.114999771118164,1.72599995136261,-9.458000183105469,-1.0299999713897705
1621851079994,-1.2599999904632568,22.613000869750977,-13.355999946594238,1.7649999856948853,-9.503000259399414,-0.9990000128746032
1621851080004,-0.7699999809265136,22.555999755859375,-12.229000091552734,1.7649999856948853,-9.572999954223633,-1.0509999990463257
1621851080014,-0.2800000011920929,21.766000747680664,-11.373000144958496,1.8040000200271609,-9.579999923706056,-1.0119999647140503
1621851080024,-0.209999993443489,21.371999740600582,-9.949999809265137,1.72599995136261,-9.586999893188477,-0.9729999899864196
1621851080034,-0.0699999928474426,21.169498443603516,-9.20400047302246,1.687000036239624,-9.569000244140623,-0.8510000109672546
1621851080044,0.0700000002980232,20.96699905395508,-8.458000183105469,1.687000036239624,-9.522999763488768,-0.8830000162124633
1621851080054,0.8399999737739563,20.208999633789062,-7.382999897003175,1.72599995136261,-9.522999763488768,-0.8830000162124633
1621851080064,1.2599999904632568,19.413999557495117,-6.10099983215332,1.72599995136261,-9.576000213623049,-0.8119999766349792
1621851080074,1.6799999475479126,19.36199951171875,-4.191999912261963,1.6480000019073486,-9.607999801635742,-0.8579999804496765
1621851080084,1.8200000524520872,19.249000549316406,-1.937000036239624,1.6080000400543213,-9.645999908447264,-0.8640000224113464
1621851080094,2.0299999713897705,19.249000549316406,-0.7289999723434448,1.6080000400543213,-9.722999572753906,-0.8780000209808348
1621851080104,2.309999942779541,19.04599952697754,0.0179999992251396,1.6080000400543213,-9.722999572753906,-0.8780000209808348
1621851080114,2.309999942779541,18.795000076293945,-0.1689999997615814,1.6480000019073486,-9.762000083923342,-0.8849999904632568
1621851080124,1.8899999856948853,18.59600067138672,0.1509999930858612,1.6480000019073486,-9.762000083923342,-0.8849999904632568
1621851080134,1.6799999475479126,17.73699951171875,-0.2129999995231628,1.6480000019073486,-9.69200038909912,-0.8330000042915344
1621851080144,1.0499999523162842,16.496000289916992,-0.4320000112056732,1.687000036239624,-9.645999908447264,-0.8640000224113464
1621851080154,0.7699999809265136,15.56700038909912,-0.809000015258789,1.687000036239624,-9.607999801635742,-0.8579999804496765
1621851080164,0.6299999952316284,14.36299991607666,-1.2350000143051147,1.72599995136261,-9.607999801635742,-0.8579999804496765
1621851080174,0.6299999952316284,13.015999794006348,-1.258999943733215,1.6480000019073486,-9.61400032043457,-0.8190000057220459
1621851080184,0.4900000095367431,11.921999931335447,-1.0970000028610227,1.6480000019073486,-9.61400032043457,-0.8190000057220459
1621851080194,0.699999988079071,10.859000205993652,-0.7149999737739563,1.6080000400543213,-9.543999671936035,-0.7670000195503234
1621851080204,0.7699999809265136,9.593999862670898,-0.7960000038146972,1.569000005722046,-9.536999702453612,-0.8050000071525573
1621851080214,0.4199999868869781,8.072999954223633,-0.6380000114440918,1.5299999713897705,-9.498000144958496,-0.7990000247955322
1621851080224,0.4900000095367431,7.0920000076293945,-0.3129999935626983,1.491000056266785,-9.536999702453612,-0.8050000071525573
1621851080234,0.2800000011920929,6.357999801635742,-0.5849999785423278,1.4509999752044678,-9.569000244140623,-0.8510000109672546
1621851080244,0.0,5.416999816894531,-0.8930000066757202,1.4509999752044678,-9.60099983215332,-0.8960000276565551
1621851080254,-0.7699999809265136,4.824999809265137,-1.5659999847412107,1.4509999752044678,-9.60099983215332,-0.8960000276565551
1621851080264,-0.9800000190734864,4.609999656677246,-1.9594999551773071,1.4119999408721924,-9.67099952697754,-0.9480000138282776
1621851080274,-1.190000057220459,4.394999980926514,-2.3529999256134033,1.4119999408721924,-9.748000144958496,-0.962000012397766
1621851080284,-1.2599999904632568,3.5230000019073486,-2.6480000019073486,1.3730000257492063,-9.793999671936035,-0.9300000071525572
1621851080294,-1.0499999523162842,2.9070000648498535,-3.184000015258789,1.3339999914169312,-9.800999641418455,-0.8920000195503234
1621851080304,-0.699999988079071,2.5739998817443848,-3.312999963760376,1.2940000295639038,-9.76900005340576,-0.8460000157356262
1621851080314,0.1400000005960464,2.2339999675750732,-3.799999952316284,1.2549999952316284,-9.722999572753906,-0.8780000209808348
1621851080324,1.2599999904632568,1.6660000085830688,-3.4019999504089355,1.1770000457763672,-9.67300033569336,-0.7099999785423278
1621851080334,2.5899999141693115,1.2000000476837158,-2.7739999294281006,1.1380000114440918,-9.666999816894531,-0.7490000128746032
1621851080344,3.6400001049041744,1.1469999551773071,-3.2809998989105225,1.0980000495910645,-9.697999954223633,-0.7940000295639038
1621851080354,4.480000019073486,1.5160000324249268,-4.565999984741211,1.0590000152587893,-9.737000465393066,-0.8009999990463256
1621851080364,4.550000190734863,2.0959999561309814,-6.241000175476074,1.0980000495910645,-9.782999992370604,-0.7689999938011169
1621851080374,4.480000019073486,3.128999948501587,-8.475000381469727,1.0590000152587893,-9.821000099182127,-0.7760000228881835
1621851080384,3.430000066757202,3.9800000190734863,-10.883999824523926,1.0980000495910645,-9.80799961090088,-0.8529999852180481
1621851080394,1.8899999856948853,4.831999778747559,-13.29300022125244,1.1770000457763672,-9.845999717712402,-0.8600000143051147
1621851080404,0.0,5.824999809265137,-14.895000457763672,1.1770000457763672,-9.845999717712402,-0.8600000143051147
1621851080414,-1.5399999618530271,7.171000003814697,-16.07900047302246,1.215999960899353,-9.814000129699709,-0.8140000104904174
1621851080424,-3.2899999618530273,8.17199993133545,-17.323999404907227,1.2940000295639038,-9.776000022888184,-0.8080000281333923
1621851080434,-4.480000019073486,9.067999839782717,-18.374000549316406,1.3339999914169312,-9.704999923706056,-0.7549999952316284
1621851080444,-5.53000020980835,9.121000289916992,-19.076000213623047,1.4119999408721924,-9.666999816894531,-0.7490000128746032
1621851080454,-6.159999847412109,9.440999984741213,-18.87700080871582,1.491000056266785,-9.576000213623049,-0.8119999766349792
1621851080464,-6.440000057220459,9.489999771118164,-19.152999877929688,1.491000056266785,-9.536999702453612,-0.8050000071525573
1621851080474,-6.230000019073486,9.020000457763674,-19.30699920654297,1.569000005722046,-9.491999626159668,-0.8370000123977661
1621851080484,-5.110000133514404,8.92199993133545,-18.756000518798828,1.6480000019073486,-9.491999626159668,-0.8370000123977661
1621851080494,-5.110000133514404,8.61400032043457,-17.815000534057617,1.72599995136261,-9.55500030517578,-0.9279999732971193
1621851080504,-5.074999809265137,8.342500686645508,-17.08100128173828,1.72599995136261,-9.55500030517578,-0.9279999732971193
1621851080514,-5.039999961853027,8.071000099182129,-16.347000122070312,1.7649999856948853,-9.510000228881836,-0.9599999785423278
1621851080524,-5.110000133514404,7.336999893188477,-15.409999847412108,1.7649999856948853,-9.510000228881836,-0.9599999785423278
1621851080534,-5.25,6.408999919891357,-14.57900047302246,1.72599995136261,-9.503000259399414,-0.9990000128746032
1621851080544,-5.110000133514404,5.994999885559082,-13.442999839782717,1.72599995136261,-9.503000259399414,-0.9990000128746032
1621851080554,-4.690000057220459,6.01200008392334,-12.729000091552734,1.72599995136261,-9.54800033569336,-0.9670000076293944
1621851080564,-4.199999809265137,5.666999816894531,-12.789999961853027,1.72599995136261,-9.586999893188477,-0.9729999899864196
1621851080574,-3.6400001049041744,5.35099983215332,-12.206000328063965,1.687000036239624,-9.579999923706056,-1.0119999647140503
1621851080584,-2.940000057220459,5.232999801635742,-11.942999839782717,1.7649999856948853,-9.503000259399414,-0.9990000128746032
1621851080594,-2.799999952316284,4.916999816894531,-11.359000205993652,1.7649999856948853,-9.619000434875488,-1.0190000534057615
1621851080604,-2.309999942779541,4.321000099182129,-11.605999946594238,1.8040000200271609,-9.689000129699709,-1.0709999799728394
1621851080614,-2.240000009536743,4.559999942779541,-11.35099983215332,1.843999981880188,-9.727999687194824,-1.0779999494552612
1621851080624,-2.309999942779541,4.26800012588501,-10.904000282287598,1.8830000162124632,-9.696000099182127,-1.0329999923706057
1621851080634,-2.6600000858306885,3.611000061035156,-10.807000160217283,1.843999981880188,-9.657999992370604,-1.0260000228881836
1621851080644,-2.6600000858306885,3.1570000648498535,-10.246999740600586,1.9220000505447388,-9.612000465393066,-1.0579999685287476
1621851080654,-2.450000047683716,2.378999948501587,-9.461000442504885,1.9220000505447388,-9.503000259399414,-0.9990000128746032
1621851080664,-2.0999999046325684,1.5970000028610227,-8.248000144958496,1.9609999656677248,-9.470999717712402,-0.953000009059906
1621851080674,-1.5399999618530271,0.3600000143051147,-7.684000015258789,2.000999927520752,-9.425999641418455,-0.9850000143051147
1621851080684,-0.699999988079071,-0.9459999799728392,-7.132999897003174,2.000999927520752,-9.380000114440918,-1.0169999599456787
1621851080694,0.0700000002980232,-3.1429998874664307,-5.955999851226807,2.000999927520752,-9.387000083923342,-0.977999985218048
1621851080704,0.7699999809265136,-5.502999782562256,-4.666999816894531,2.000999927520752,-9.348999977111816,-0.9710000157356262
1621851080714,1.190000057220459,-7.604000091552734,-4.041999816894531,1.9609999656677248,-9.348999977111816,-0.9710000157356262
1621851080724,1.1549999713897705,-8.439000129699707,-3.940499782562256,1.9220000505447388,-9.303000450134276,-1.003000020980835
1621851080734,1.1200000047683716,-9.27400016784668,-3.83899998664856,1.843999981880188,-9.335000038146973,-1.0490000247955322
1621851080744,1.4700000286102295,-10.425999641418455,-3.7579998970031734,1.8040000200271609,-9.348999977111816,-0.9710000157356262
1621851080754,1.75,-11.744000434875488,-3.13700008392334,1.8040000200271609,-9.411999702453612,-1.062000036239624
1621851080764,1.75,-12.802000045776367,-3.180999994277954,1.7649999856948853,-9.39900016784668,-1.1390000581741333
1621851080774,1.9600000381469729,-13.904999732971191,-3.375999927520752,1.72599995136261,-9.411999702453612,-1.062000036239624
1621851080784,2.869999885559082,-14.91100025177002,-2.913000106811523,1.72599995136261,-9.411999702453612,-1.062000036239624
1621851080794,3.2899999618530273,-16.472000122070312,-2.122999906539917,1.72599995136261,-9.418999671936035,-1.02400004863739
1621851080804,3.849999904632568,-17.27899932861328,-1.9800000190734863,1.687000036239624,-9.425999641418455,-0.9850000143051147
1621851080814,4.829999923706055,-18.441999435424805,-1.830000042915344,1.6480000019073486,-9.470999717712402,-0.953000009059906
1621851080824,5.949999809265137,-19.066999435424805,-1.5140000581741333,1.6080000400543213,-9.46399974822998,-0.9919999837875366
1621851080834,7.139999866485596,-19.80500030517578,-1.3600000143051147,1.6080000400543213,-9.46399974822998,-0.9919999837875366
1621851080844,8.329999923706055,-20.684999465942383,-2.01200008392334,1.6480000019073486,-9.54800033569336,-0.9670000076293944
1621851080854,9.800000190734863,-21.909000396728516,-2.7260000705718994,1.569000005722046,-9.579999923706056,-1.0119999647140503
1621851080864,10.640000343322754,-23.02899932861328,-2.4260001182556152,1.569000005722046,-9.710000038146973,-0.9549999833106994
1621851080874,11.130000114440918,-24.541000366210938,-1.9110000133514404,1.569000005722046,-9.793999671936035,-0.9300000071525572
1621851080884,11.199999809265137,-25.45299911499023,-1.5740000009536743,1.569000005722046,-9.833000183105469,-0.9369999766349792
1621851080894,10.850000381469728,-26.496000289916992,-2.11299991607666,1.5299999713897705,-9.83899974822998,-0.8980000019073486
1621851080904,10.220000267028809,-27.423999786376953,-2.490000009536743,1.569000005722046,-9.845999717712402,-0.8600000143051147
1621851080914,10.289999961853027,-28.774999618530273,-3.296999931335449,1.6080000400543213,-9.852999687194824,-0.8209999799728394
1621851080924,9.65999984741211,-29.979000091552734,-3.7219998836517334,1.569000005722046,-9.82800006866455,-0.7369999885559082
1621851080934,8.75,-31.451000213623047,-3.839999914169311,1.569000005722046,-9.873000144958496,-0.7049999833106994
1621851080944,8.399999618530273,-32.76499938964844,-4.853000164031982,1.5299999713897705,-9.904999732971191,-0.7509999871253967
1621851080954,8.329999923706055,-33.239501953125,-5.185500144958496,1.5299999713897705,-9.842000007629396,-0.6600000262260437
1621851080964,8.260000228881836,-33.7140007019043,-5.51800012588501,1.6080000400543213,-9.842000007629396,-0.6600000262260437
1621851080974,7.630000114440918,-34.75199890136719,-6.482999801635742,1.72599995136261,-9.95699977874756,-0.6800000071525573
1621851080984,6.860000133514404,-36.47600173950195,-6.7870001792907715,1.8830000162124632,-9.996000289916992,-0.6869999766349792
1621851080994,5.949999809265137,-39.006000518798835,-6.948999881744385,2.000999927520752,-10.0600004196167,-0.777999997138977
1621851081004,4.340000152587891,-42.042999267578125,-7.058000087738037,2.118000030517578,-10.0600004196167,-0.777999997138977
1621851081014,2.0299999713897705,-45.834999084472656,-7.72599983215332,2.236000061035156,-10.097999572753906,-0.7850000262260437
1621851081024,-0.2800000011920929,-49.90599822998047,-9.22599983215332,2.313999891281128,-10.053000450134276,-0.8169999718666076
1621851081034,-2.0999999046325684,-54.39099884033203,-10.798999786376951,2.3929998874664307,-9.937000274658203,-0.7960000038146972
1621851081044,-3.990000009536743,-59.42399978637695,-12.895000457763672,2.5889999866485596,-9.833000183105469,-0.9369999766349792
1621851081054,-4.96999979019165,-65.63999938964844,-15.128000259399414,2.8239998817443848,-9.744000434875488,-0.762000024318695
1621851081064,-6.019999980926514,-73.40599822998047,-16.639999389648438,2.9809999465942383,-9.711999893188477,-0.7170000076293945
1621851081074,-6.650000095367432,-82.55000305175781,-17.18600082397461,3.177000045776367,-9.72599983215332,-0.6389999985694885
1621851081084,-7.280000209808349,-92.61799621582033,-17.326000213623047,3.25600004196167,-9.763999938964846,-0.6460000276565551
1621851081094,-8.609999656677246,-102.97499847412108,-17.445999145507812,3.3340001106262207,-9.8100004196167,-0.6140000224113464
1621851081104,-9.9399995803833,-112.96299743652344,-18.85199928283691,3.413000106811523,-9.777999877929688,-0.5690000057220459
1621851081114,-11.0600004196167,-123.46099853515624,-20.988000869750977,3.4519999027252197,-9.701000213623049,-0.5550000071525573
1621851081124,-12.039999961853027,-134.1790008544922,-23.090999603271484,3.4519999027252197,-9.597999572753906,-0.4580000042915344
1621851081134,-13.090000152587892,-144.7830047607422,-25.031999588012695,3.413000106811523,-9.53499984741211,-0.367000013589859
1621851081144,-13.229999542236328,-155.0709991455078,-26.347999572753903,3.177000045776367,-9.46399974822998,-0.3149999976158142
1621851081154,-13.300000190734863,-164.41299438476562,-27.781999588012695,2.941999912261963,-9.439000129699709,-0.2300000041723251
1621851081164,-13.159999847412108,-171.94000244140625,-29.038000106811523,2.6670000553131104,-9.401000022888184,-0.2240000069141387
1621851081174,-12.949999809265137,-174.77450561523435,-29.89350128173828,2.3540000915527344,-9.369000434875488,-0.1780000030994415
1621851081184,-12.739999771118164,-177.60899353027344,-30.749000549316406,2.0399999618530273,-9.28499984741211,-0.2029999941587448
1621851081194,-12.739999771118164,-181.69200134277344,-32.17900085449219,1.7649999856948853,-9.354999542236328,-0.2549999952316284
1621851081204,-13.020000457763672,-183.4810028076172,-32.92100143432617,1.4509999752044678,-9.39400005340576,-0.2619999945163726
1621851081214,-12.739999771118164,-183.73199462890625,-33.108001708984375,1.1380000114440918,-9.496000289916992,-0.3600000143051147
1621851081224,-12.460000038146973,-182.572998046875,-34.04100036621094,0.9020000100135804,-9.444000244140623,-0.4300000071525573
1621851081234,-11.760000228881836,-180.43600463867188,-34.87200164794922,0.7059999704360961,-9.444000244140623,-0.4300000071525573
1621851081244,-10.5,-177.1959991455078,-35.50899887084961,0.5490000247955322,-9.385000228881836,-0.5400000214576721
1621851081254,-8.960000038146973,-173.6439971923828,-35.09600067138672,0.3919999897480011,-9.345999717712402,-0.5329999923706054
1621851081264,-6.71999979019165,-168.95599365234375,-35.47800064086914,0.1570000052452087,-9.279999732971191,-0.6800000071525573
1621851081274,-4.269999980926514,-163.1739959716797,-36.02199935913086,0.0,-9.30500030517578,-0.7639999985694885
1621851081283,-2.450000047683716,-156.8159942626953,-36.60699844360352,-0.1570000052452087,-9.246000289916992,-0.8740000128746032
1621851081293,-0.0700000002980232,-149.44400024414062,-37.297000885009766,-0.3140000104904174,-9.28499984741211,-0.8799999952316284
1621851081304,2.450000047683716,-141.96200561523435,-37.400001525878906,-0.4309999942779541,-9.324000358581545,-0.887000024318695
1621851081313,4.690000057220459,-132.8350067138672,-37.56700134277344,-0.5490000247955322,-9.387000083923342,-0.977999985218048
1621851081323,6.369999885559082,-123.3219985961914,-37.097999572753906,-0.6280000209808348,-9.458000183105469,-1.0299999713897705
1621851081333,8.050000190734863,-113.63400268554688,-36.8120002746582,-0.6669999957084655,-9.451000213623049,-1.069000005722046
1621851081343,9.65999984741211,-103.30999755859376,-36.90999984741211,-0.7059999704360961,-9.444000244140623,-1.1080000400543213
1621851081353,11.409999847412108,-93.09100341796876,-36.81399917602539,-0.7059999704360961,-9.47599983215332,-1.1529999971389773
1621851081363,12.880000114440918,-83.59100341796875,-36.2760009765625,-0.6669999957084655,-9.468999862670898,-1.1920000314712524
1621851081373,14.350000381469728,-73.61499786376953,-36.0099983215332,-0.5490000247955322,-9.50100040435791,-1.2369999885559082
1621851081383,15.015000343322754,-68.95999908447266,-36.006500244140625,-0.4709999859333038,-9.57800006866455,-1.2510000467300415
1621851081393,15.68000030517578,-64.30500030517578,-36.00299835205078,-0.3529999852180481,-9.64900016784668,-1.3029999732971191
1621851081403,16.520000457763672,-55.74100112915039,-36.19900131225586,-0.2349999994039535,-9.72599983215332,-1.3170000314712524
1621851081413,16.799999237060547,-47.41600036621094,-36.6510009765625,0.0,-9.687000274658203,-1.309999942779541
1621851081423,16.729999542236328,-39.756000518798835,-36.15299987792969,0.0390000008046627,-9.758000373840332,-1.3619999885559082
1621851081433,16.729999542236328,-32.733001708984375,-35.27000045776367,0.2349999994039535,-9.79599952697754,-1.36899995803833
1621851081443,15.890000343322754,-26.04599952697754,-34.090999603271484,0.3140000104904174,-9.758000373840332,-1.3619999885559082
1621851081453,15.260000228881836,-19.695999145507812,-32.61600112915039,0.5099999904632568,-9.803000450134276,-1.3300000429153442
1621851081463,14.350000381469728,-14.635000228881836,-31.083999633789062,0.6669999957084655,-9.842000007629396,-1.337000012397766
1621851081473,13.720000267028809,-9.98799991607666,-29.624000549316406,0.8240000009536743,-9.842000007629396,-1.337000012397766
1621851081483,13.090000152587892,-5.769999980926514,-27.743000030517575,0.9409999847412108,-9.873000144958496,-1.381999969482422
1621851081493,12.18000030517578,-2.1489999294281006,-26.11000061035156,1.0980000495910645,-9.911999702453612,-1.3890000581741333
1621851081503,10.779999732971191,0.9129999876022338,-24.93000030517578,1.2549999952316284,-9.880000114440918,-1.343999981880188
1621851081513,10.359999656677246,3.503999948501587,-23.905000686645508,1.3339999914169312,-9.842000007629396,-1.337000012397766
1621851081523,9.59000015258789,5.928999900817871,-22.34000015258789,1.4509999752044678,-9.880000114440918,-1.343999981880188
1621851081533,8.050000190734863,7.705999851226807,-20.320999145507812,1.569000005722046,-9.89400005340576,-1.2669999599456787
1621851081543,7.0,9.336000442504885,-18.683000564575195,1.6080000400543213,-9.869000434875488,-1.1829999685287476
1621851081553,6.090000152587891,10.51200008392334,-16.485000610351562,1.72599995136261,-9.862000465393066,-1.2209999561309814
1621851081563,5.460000038146973,11.66800022125244,-14.574999809265137,1.7649999856948853,-9.822999954223633,-1.2139999866485596
1621851081573,4.550000190734863,12.557000160217283,-12.357000350952148,1.8040000200271609,-9.770999908447264,-1.2849999666213987
1621851081583,4.130000114440918,12.975000381469728,-10.29300022125244,1.8830000162124632,-9.777999877929688,-1.2460000514984133
1621851081593,3.9200000762939458,13.228500366210938,-9.715499877929688,1.9220000505447388,-9.732999801635742,-1.2779999971389773
1621851081603,3.7100000381469727,13.482000350952148,-9.137999534606934,1.9609999656677248,-9.73900032043457,-1.2389999628067017
1621851081613,3.0799999237060547,13.453000068664553,-7.366000175476073,1.9609999656677248,-9.694000244140623,-1.2710000276565552
1621851081623,2.5199999809265137,13.859000205993652,-6.440999984741211,2.000999927520752,-9.694000244140623,-1.2710000276565552
1621851081633,1.6100000143051147,13.586999893188477,-5.706999778747559,2.000999927520752,-9.694000244140623,-1.2710000276565552
1621851081643,1.0499999523162842,13.63599967956543,-4.775000095367432,2.0789999961853027,-9.64900016784668,-1.3029999732971191
1621851081653,-0.209999993443489,13.559000015258787,-3.934999942779541,2.0399999618530273,-9.571000099182127,-1.2890000343322754
1621851081663,-0.699999988079071,13.312000274658203,-3.3389999866485596,2.000999927520752,-9.571000099182127,-1.2890000343322754
1621851081673,-1.6799999475479126,12.902999877929688,-2.628999948501587,2.000999927520752,-9.609999656677246,-1.2960000038146973
1621851081683,-2.450000047683716,12.164999961853027,-2.4749999046325684,1.9609999656677248,-9.532999992370604,-1.2829999923706057
1621851081693,-3.5,11.876999855041504,-2.4549999237060547,2.000999927520752,-9.526000022888184,-1.3209999799728394
1621851081703,-3.7100000381469727,11.604999542236328,-2.928999900817871,1.8830000162124632,-9.402999877929688,-1.3389999866485596
1621851081713,-3.569999933242798,11.20400047302246,-3.071000099182129,1.9220000505447388,-9.40999984741211,-1.3009999990463257
1621851081723,-3.6400001049041744,10.781999588012695,-3.500999927520752,1.8830000162124632,-9.371000289916992,-1.2940000295639038
1621851081733,-3.6400001049041744,10.371999740600586,-4.0,1.843999981880188,-9.40999984741211,-1.3009999990463257
1621851081743,-3.9200000762939458,10.006999969482422,-4.3480000495910645,1.8830000162124632,-9.40999984741211,-1.3009999990463257
1621851081753,-3.7799999713897705,9.560999870300291,-4.639999866485596,1.843999981880188,-9.449000358581545,-1.3079999685287476
1621851081763,-3.7100000381469727,9.666000366210936,-4.835000038146973,1.8040000200271609,-9.44200038909912,-1.3459999561309814
1621851081773,-3.5,9.711000442504885,-4.684999942779541,1.7649999856948853,-9.402999877929688,-1.3389999866485596
1621851081783,-3.2899999618530273,10.121000289916992,-5.394999980926514,1.8040000200271609,-9.40999984741211,-1.3009999990463257
1621851081793,-3.009999990463257,10.331000328063965,-5.783999919891357,1.8040000200271609,-9.40999984741211,-1.3009999990463257
1621851081803,-3.115000009536743,10.25200080871582,-5.940000057220459,1.8040000200271609,-9.40999984741211,-1.3009999990463257
1621851081813,-3.2200000286102295,10.17300033569336,-6.0960001945495605,1.8040000200271609,-9.44200038909912,-1.3459999561309814
1621851081823,-3.2899999618530273,10.156999588012695,-6.809999942779541,1.843999981880188,-9.51900005340576,-1.3600000143051147
1621851081833,-3.0799999237060547,10.598999977111816,-7.300000190734864,1.7649999856948853,-9.505000114440918,-1.437000036239624
1621851081843,-2.869999885559082,11.085000038146973,-7.640999794006347,1.843999981880188,-9.467000007629396,-1.4299999475479126
1621851081853,-2.1700000762939453,10.753000259399414,-7.770999908447266,1.843999981880188,-9.44200038909912,-1.3459999561309814
1621851081863,-1.5399999618530271,10.972000122070312,-7.802999973297118,1.8830000162124632,-9.44200038909912,-1.3459999561309814
1621851081873,-0.699999988079071,10.951000213623049,-8.090999603271484,1.8830000162124632,-9.402999877929688,-1.3389999866485596
1621851081883,-0.209999993443489,11.003999710083008,-8.793000221252441,1.9220000505447388,-9.402999877929688,-1.3389999866485596
1621851081893,1.0499999523162842,10.593999862670898,-9.291000366210936,1.9220000505447388,-9.40999984741211,-1.3009999990463257
1621851081903,1.8899999856948853,10.97599983215332,-9.437000274658203,1.9220000505447388,-9.449000358581545,-1.3079999685287476
1621851081913,2.5199999809265137,10.951000213623049,-9.300000190734863,1.9609999656677248,-9.494000434875488,-1.2760000228881836
1621851081923,2.6600000858306885,10.878000259399414,-8.88599967956543,2.000999927520752,-9.532999992370604,-1.2829999923706057
1621851081933,2.799999952316284,11.166000366210938,-8.906000137329102,2.000999927520752,-9.532999992370604,-1.2829999923706057
1621851081943,2.799999952316284,11.045000076293944,-8.217000007629395,2.000999927520752,-9.494000434875488,-1.2760000228881836
1621851081953,2.7300000190734863,11.0649995803833,-7.92899990081787,2.000999927520752,-9.526000022888184,-1.3209999799728394
1621851081963,2.240000009536743,11.276000022888184,-7.110000133514404,2.0399999618530273,-9.532999992370604,-1.2829999923706057
1621851081973,1.75,11.020999908447266,-6.870999813079834,2.0399999618530273,-9.532999992370604,-1.2829999923706057
1621851081983,1.2599999904632568,10.529999732971191,-6.104000091552734,2.118000030517578,-9.592000007629396,-1.1729999780654907
1621851081993,1.399999976158142,10.229999542236328,-6.014999866485596,2.118000030517578,-9.54599952697754,-1.2050000429153442
1621851082003,1.399999976158142,10.088000297546388,-5.613999843597412,2.0399999618530273,-9.585000038146973,-1.212000012397766
1621851082013,0.9800000190734864,9.892999649047852,-5.718999862670898,2.0399999618530273,-9.585000038146973,-1.212000012397766
1621851082023,0.7699999809265136,9.534500122070312,-5.498000144958496,2.0399999618530273,-9.54599952697754,-1.2050000429153442
1621851082033,0.5600000023841857,9.175999641418455,-5.2769999504089355,2.000999927520752,-9.538999557495115,-1.24399995803833
1621851082043,0.699999988079071,9.050000190734863,-5.369999885559082,1.9609999656677248,-9.616999626159668,-1.2580000162124634
1621851082053,-0.1400000005960464,8.583999633789062,-4.741000175476074,1.9609999656677248,-9.654999732971191,-1.2640000581741333
1621851082063,-0.9800000190734864,8.741999626159668,-4.428999900817871,1.9609999656677248,-9.616999626159668,-1.2580000162124634
1621851082073,-1.6100000143051147,8.352999687194824,-4.639999866485596,1.9220000505447388,-9.654999732971191,-1.2640000581741333
1621851082083,-2.309999942779541,8.121999740600586,-4.539000034332275,1.9220000505447388,-9.57800006866455,-1.2510000467300415
1621851082093,-2.5199999809265137,8.32800006866455,-4.501999855041504,1.9220000505447388,-9.57800006866455,-1.2510000467300415
1621851082103,-2.450000047683716,7.951000213623046,-4.7820000648498535,1.8830000162124632,-9.51900005340576,-1.3600000143051147
1621851082113,-2.6600000858306885,7.497000217437744,-5.431000232696533,1.843999981880188,-9.487000465393066,-1.3140000104904177
1621851082123,-2.7300000190734863,7.869999885559082,-5.934000015258789,1.8830000162124632,-9.487000465393066,-1.3140000104904177
1621851082133,-2.5199999809265137,7.756000041961671,-6.0960001945495605,1.843999981880188,-9.532999992370604,-1.2829999923706057
1621851082143,-2.380000114440918,7.55399990081787,-6.558000087738037,1.8830000162124632,-9.526000022888184,-1.3209999799728394
1621851082153,-2.1700000762939453,7.763999938964843,-6.947000026702881,1.8830000162124632,-9.449000358581545,-1.3079999685287476
1621851082163,-2.1700000762939453,7.236999988555909,-7.182000160217285,1.8830000162124632,-9.40999984741211,-1.3009999990463257
1621851082173,-2.0999999046325684,7.046999931335449,-6.505000114440918,1.8830000162124632,-9.449000358581545,-1.3079999685287476
1621851082183,-2.0299999713897705,6.921000003814697,-6.5980000495910645,1.9220000505447388,-9.454999923706056,-1.2690000534057615
1621851082193,-1.8899999856948853,6.406000137329102,-6.9019999504089355,1.9609999656677248,-9.416999816894531,-1.2619999647140503
1621851082203,-1.4700000286102295,6.218999862670898,-6.651000022888184,1.843999981880188,-9.454999923706056,-1.2690000534057615
1621851082213,-0.9800000190734864,6.025000095367432,-6.75600004196167,1.9220000505447388,-9.40999984741211,-1.3009999990463257
1621851082223,-0.4199999868869781,6.118000030517578,-6.881999969482422,1.9220000505447388,-9.454999923706056,-1.2690000534057615
1621851082233,-0.1399999856948852,5.935500144958496,-7.05649995803833,1.8830000162124632,-9.454999923706056,-1.2690000534057615
1621851082243,0.1400000005960464,5.752999782562256,-7.230999946594238,1.8830000162124632,-9.357999801635742,-1.3710000514984133
1621851082253,0.7699999809265136,5.420000076293945,-7.361000061035157,1.8830000162124632,-9.44200038909912,-1.3459999561309814
1621851082263,1.2599999904632568,5.181000232696533,-7.616000175476073,1.9220000505447388,-9.479999542236328,-1.3530000448226929
1621851082273,1.6799999475479126,5.124000072479248,-7.697000026702882,1.9220000505447388,-9.473999977111816,-1.3919999599456787
1621851082283,1.8899999856948853,5.056000232696533,-7.709000110626221,1.8830000162124632,-9.526000022888184,-1.3209999799728394
1621851082293,2.309999942779541,5.172999858856201,-7.973000049591064,1.9220000505447388,-9.487000465393066,-1.3140000104904177
1621851082303,2.1700000762939453,5.104000091552734,-7.985000133514405,1.9609999656677248,-9.494000434875488,-1.2760000228881836
1621851082313,2.380000114440918,4.682000160217285,-8.414999961853027,1.9220000505447388,-9.50100040435791,-1.2369999885559082
1621851082323,2.309999942779541,4.90500020980835,-8.873000144958496,1.9220000505447388,-9.50100040435791,-1.2369999885559082
1621851082333,2.5899999141693115,5.1570000648498535,-8.687000274658203,1.9220000505447388,-9.50100040435791,-1.2369999885559082
1621851082343,2.309999942779541,4.901000022888184,-8.446999549865723,1.9220000505447388,-9.538999557495115,-1.24399995803833
1621851082353,2.240000009536743,4.703000068664551,-8.126999855041504,1.9220000505447388,-9.57800006866455,-1.2510000467300415
1621851082363,2.0299999713897705,4.715000152587891,-8.196000099182129,1.9220000505447388,-9.57800006866455,-1.2510000467300415
1621851082373,1.2599999904632568,4.5279998779296875,-7.943999767303467,1.9609999656677248,-9.616999626159668,-1.2580000162124634
1621851082383,0.1400000005960464,4.633999824523926,-6.931000232696533,1.9220000505447388,-9.673999786376951,-1.3869999647140503
1621851082393,-1.8200000524520872,4.7270002365112305,-5.8480000495910645,1.9609999656677248,-9.758000373840332,-1.3619999885559082
1621851082403,-3.569999933242798,4.176000118255615,-4.736999988555908,1.9609999656677248,-9.803000450134276,-1.3300000429153442
1621851082413,-5.53000020980835,4.136000156402588,-4.104000091552734,1.9609999656677248,-9.842000007629396,-1.337000012397766
1621851082423,-7.630000114440918,4.001999855041504,-3.3459999561309814,1.9609999656677248,-9.835000038146973,-1.3760000467300415
1621851082433,-9.520000457763674,4.09499979019165,-2.263000011444092,1.9609999656677248,-9.911999702453612,-1.3890000581741333
1621851082443,-10.56999969482422,3.9774999618530273,-1.3954999446868896,1.9609999656677248,-9.944000244140623,-1.434999942779541
1621851082453,-11.619999885559082,3.8599998950958256,-0.527999997138977,1.9609999656677248,-9.982999801635742,-1.4420000314712524
1621851082463,-13.090000152587892,3.755000114440918,0.875,1.9609999656677248,-10.06700038909912,-1.4170000553131104
1621851082473,-14.630000114440918,3.686000108718872,2.072000026702881,2.000999927520752,-10.027999877929688,-1.4099999666213987
1621851082483,-15.68000030517578,3.839999914169311,2.809999942779541,2.000999927520752,-9.911999702453612,-1.3890000581741333
1621851082493,-16.239999771118164,4.046999931335449,2.8459999561309814,1.9609999656677248,-9.814000129699709,-1.4919999837875366
1621851082503,-16.450000762939453,4.315000057220459,3.7460000514984126,1.8040000200271609,-9.69200038909912,-1.5099999904632568
1621851082513,-16.450000762939453,5.482999801635742,4.379000186920166,1.6480000019073486,-9.31700038909912,-1.6030000448226929
1621851082523,-15.399999618530272,6.192999839782715,5.995999813079834,1.569000005722046,-9.071000099182127,-1.6390000581741333
1621851082533,-13.300000190734863,7.235000133514405,7.743999958038329,1.4119999408721924,-8.821000099182129,-1.47599995136261
1621851082543,-10.289999961853027,8.690999984741211,9.5649995803833,1.215999960899353,-8.555999755859375,-1.628000020980835
1621851082553,-5.949999809265137,11.003000259399414,10.967000007629396,0.8629999756813049,-8.317000389099121,-1.6260000467300415
1621851082563,0.2800000011920929,14.081000328063965,12.859999656677246,0.5099999904632568,-7.955999851226807,-1.6419999599456787
1621851082573,8.1899995803833,18.801000595092773,13.906000137329102,0.1959999948740005,-7.60099983215332,-1.61899995803833
1621851082583,16.8700008392334,25.150999069213867,14.17300033569336,-0.1180000007152557,-7.169000148773193,-1.5829999446868896
1621851082593,27.229999542236328,33.47200012207031,12.939000129699709,-0.3140000104904174,-6.919000148773193,-1.4190000295639038
1621851082603,38.43000030517578,43.000999450683594,10.496000289916992,-0.5490000247955322,-6.771999835968018,-1.3530000448226929
1621851082613,49.4900016784668,52.987998962402344,8.277000427246094,-0.5879999995231628,-6.688000202178955,-1.378000020980835
1621851082623,60.40999984741211,62.88600158691406,6.966000080108643,-0.5099999904632568,-6.663000106811523,-1.2940000295639038
1621851082633,71.05000305175781,72.43099975585938,5.236999988555908,-0.3919999897480011,-6.708000183105469,-1.2619999647140503
1621851082643,81.76000213623047,79.58399963378906,3.371000051498413,-0.2349999994039535,-6.651000022888184,-1.1330000162124634
1621851082653,87.04499816894531,82.78700256347656,2.940500020980835,0.0,-6.6539998054504395,-0.8939999938011169
1621851082663,92.33000183105467,85.98999786376953,2.509999990463257,0.1180000007152557,-6.48799991607666,-0.7059999704360961
1621851082673,103.18000030517578,91.36699676513672,2.25,0.2750000059604644,-6.264999866485596,-0.3880000114440918
1621851082683,115.01000213623048,95.41799926757812,1.0449999570846558,0.4709999859333038,-6.13100004196167,-0.2450000047683715
1621851082693,128.4499969482422,98.15899658203124,-0.3910000026226043,0.8629999756813049,-6.02400016784668,0.0529999993741512
1621851082703,140.55999755859375,99.45700073242188,-1.2990000247955322,1.1770000457763672,-5.828000068664551,0.5260000228881835
1621851082713,154.13999938964844,99.29799652099608,-1.6109999418258667,1.491000056266785,-5.414999961853027,1.116000056266785
1621851082723,169.1199951171875,96.53299713134764,-2.4549999237060547,1.7649999856948853,-5.000999927520752,1.7070000171661377
1621851082733,185.2899932861328,91.14800262451172,-2.5510001182556152,2.0789999961853027,-5.083000183105469,2.1710000038146973
1621851082743,200.47999572753903,83.65899658203125,0.8199999928474426,2.313999891281128,-6.1529998779296875,2.1410000324249268
1621851082753,207.33999633789065,74.38999938964844,8.638999938964844,2.1570000648498535,-7.919000148773193,2.6670000553131104
1621851082763,205.94000244140625,64.66300201416016,17.444000244140625,1.843999981880188,-8.300000190734863,3.4760000705718994
1621851082773,198.72999572753903,58.292999267578125,19.305999755859375,1.72599995136261,-7.638999938964843,3.7909998893737793
1621851082783,196.4199981689453,51.62200164794922,12.79800033569336,1.72599995136261,-7.550000190734864,3.9660000801086426
1621851082793,198.3800048828125,46.95000076293945,9.0600004196167,1.569000005722046,-8.071000099182129,4.432000160217285
1621851082803,196.13999938964844,45.99300003051758,10.454999923706056,1.4509999752044678,-9.001999855041504,4.745999813079834
1621851082813,186.47999572753903,45.178001403808594,9.031999588012695,1.1770000457763672,-10.109000205993652,5.1479997634887695
1621851082823,173.32000732421875,44.243999481201165,3.0390000343322754,1.0980000495910645,-11.046999931335447,5.500999927520752
1621851082833,159.11000061035156,43.444000244140625,-4.921000003814697,1.1380000114440918,-11.593000411987305,5.881999969482422
1621851082843,144.69000244140625,41.87900161743164,-9.746000289916992,1.2549999952316284,-11.758000373840332,6.370999813079834
1621851082853,131.6699981689453,39.3849983215332,-10.114999771118164,1.3730000257492063,-11.741999626159668,6.73199987411499
1621851082863,125.68499755859376,37.53199768066406,-9.482000350952148,1.3730000257492063,-11.597000122070312,7.0370001792907715
1621851082873,119.6999969482422,35.67900085449219,-8.848999977111816,1.2940000295639038,-11.44499969482422,7.302999973297118
1621851082883,109.12999725341795,31.871000289916992,-7.814000129699707,1.1770000457763672,-11.111000061035156,7.440999984741211
1621851082893,99.8199996948242,28.156999588012695,-8.11400032043457,1.0199999809265137,-10.70400047302246,7.39300012588501
1621851082903,91.83999633789062,25.90999984741211,-9.07900047302246,0.9409999847412108,-10.310999870300291,7.422999858856201
1621851082912,85.33000183105469,24.38999938964844,-8.920000076293945,0.9409999847412108,-10.11299991607666,7.657000064849853
1621851082922,80.01000213623047,23.599000930786133,-8.0649995803833,0.7450000047683715,-9.880999565124512,7.697999954223632
1621851082933,74.83000183105469,22.861000061035156,-7.9099998474121085,0.7450000047683715,-9.684000015258787,7.932000160217285
1621851082943,68.94999694824219,21.701000213623047,-8.185999870300293,0.8629999756813049,-9.656000137329102,7.776999950408936
1621851082952,62.720001220703125,19.628999710083008,-8.125,0.9020000100135804,-9.802000045776367,7.473000049591064
1621851082962,55.439998626708984,17.517000198364258,-6.2230000495910645,0.9020000100135804,-10.16800022125244,7.289000034332275
1621851082972,47.040000915527344,15.79800033569336,-3.3269999027252197,0.8240000009536743,-9.88599967956543,7.498000144958496
1621851082982,39.34000015258789,13.531000137329102,-3.371999979019165,0.8629999756813049,-9.380999565124512,7.348000049591064
1621851082992,32.40999984741211,10.833999633789064,-5.410999774932861,0.8629999756813049,-9.41800022125244,7.1020002365112305
1621851083002,24.989999771118164,9.46399974822998,-4.089000225067139,0.8629999756813049,-9.887999534606934,7.059000015258789
1621851083012,14.699999809265137,8.645000457763672,-1.4609999656677246,0.7059999704360961,-9.9399995803833,7.130000114440918
1621851083022,5.599999904632568,7.423999786376954,-2.5999999046325684,0.5490000247955322,-9.456000328063965,7.0960001945495605
1621851083032,0.4199999868869781,6.673999786376953,-6.001999855041504,0.5099999904632568,-8.934000015258789,7.067999839782715
1621851083042,-2.869999885559082,6.714000225067139,-6.635000228881836,0.7059999704360961,-8.668000221252441,6.915999889373779
1621851083052,-7.210000038146973,6.21999979019165,-4.234000205993652,0.7450000047683715,-8.718000411987305,6.748000144958496
1621851083062,-12.390000343322754,4.686999797821045,-2.799000024795532,0.7450000047683715,-8.777000427246094,6.85699987411499
1621851083072,-16.520000457763672,2.7809998989105225,-4.485000133514404,0.6669999957084655,-8.53600025177002,6.620999813079834
1621851083082,-18.760000228881836,0.5729999542236328,-5.265500068664551,0.6669999957084655,-8.16100025177002,6.5269999504089355
1621851083092,-21.0,-1.6349999904632568,-6.046000003814697,0.7850000262260437,-7.927000045776368,6.329999923706055
1621851083102,-22.329999923706055,-3.6909999847412114,-4.063000202178955,0.7850000262260437,-7.73199987411499,6.125
1621851083112,-22.959999084472656,-6.493000030517578,-3.490000009536743,0.6669999957084655,-7.480000019073486,6.050000190734863
1621851083122,-22.81999969482422,-8.135000228881836,-3.8510000705718994,0.6280000209808348,-7.300000190734864,6.160999774932861
1621851083132,-21.979999542236328,-9.22599983215332,-2.9059998989105225,0.6280000209808348,-7.258999824523927,5.929999828338623
1621851083142,-20.93000030517578,-9.593999862670898,-1.6210000514984133,0.5099999904632568,-7.111999988555908,5.994999885559082
1621851083152,-20.579999923706055,-9.331000328063965,-0.2949999868869781,0.1570000052452087,-6.880000114440918,6.035999774932861
1621851083162,-19.38999938964844,-7.875,0.31700000166893,0.1180000007152557,-7.001999855041504,6.053999900817871
1621851083172,-17.780000686645508,-6.041999816894531,1.2089999914169312,0.0390000008046627,-6.9029998779296875,5.714000225067139
1621851083182,-16.100000381469727,-3.2309999465942383,3.4110000133514404,0.0,-7.01800012588501,5.692999839782715
1621851083192,-14.350000381469728,-0.7409999966621398,5.414000034332275,-0.0390000008046627,-6.961999893188477,5.822999954223633
1621851083202,-12.18000030517578,2.1419999599456787,7.201000213623047,-0.2349999994039535,-6.9679999351501465,5.861000061035156
1621851083212,-10.149999618530272,5.617000102996826,7.244999885559082,-0.4309999942779541,-7.013999938964844,5.89300012588501
1621851083222,-7.980000019073486,9.984000205993652,6.664999961853027,-0.4709999859333038,-6.936999797821045,5.9070000648498535
1621851083232,-5.880000114440918,14.331000328063965,5.796999931335449,-0.5879999995231628,-6.974999904632568,5.900000095367432
1621851083242,-3.569999933242798,19.238000869750977,5.381999969482422,-0.5879999995231628,-7.123000144958496,5.834000110626221
1621851083252,0.7699999809265136,23.697999954223633,3.4679999351501465,-0.6669999957084655,-6.800000190734863,5.810999870300293
1621851083262,3.990000009536743,26.87700080871582,1.9670000076293943,-0.6669999957084655,-6.946000099182129,5.506999969482422
1621851083272,3.359999895095825,31.082000732421875,2.7079999446868896,-0.6280000209808348,-7.811999797821045,5.672999858856201
1621851083282,1.959999918937683,32.53950119018555,2.503499984741211,-0.6280000209808348,-7.929999828338623,5.890999794006348
1621851083292,0.5600000023841857,33.99700164794922,2.299000024795532,-0.6280000209808348,-7.4770002365112305,5.810999870300293
1621851083302,1.5399999618530271,36.50699996948242,-1.4529999494552612,-0.5490000247955322,-7.168000221252441,5.866000175476074
1621851083312,4.550000190734863,38.314998626708984,-4.047999858856201,-0.3919999897480011,-7.2270002365112305,5.974999904632568
1621851083322,5.320000171661377,39.99800109863281,-4.320000171661377,-0.3529999852180481,-7.512000083923339,6.005000114440918
1621851083332,4.619999885559082,41.3120002746582,-4.514999866485596,-0.3529999852180481,-7.512000083923339,6.005000114440918
1621851083342,4.760000228881836,42.16699981689453,-7.348999977111816,-0.4309999942779541,-7.672999858856201,6.015999794006348
1621851083352,5.110000133514404,42.632999420166016,-10.395000457763672,-0.3919999897480011,-7.6589999198913565,5.939000129699707
1621851083362,5.25,42.90399932861328,-11.128999710083008,-0.3140000104904174,-7.665999889373779,5.9770002365112305
1621851083372,5.670000076293945,42.82699966430664,-10.288999557495115,-0.2750000059604644,-7.640999794006347,6.060999870300293
1621851083382,7.210000038146973,42.43399810791016,-11.282999992370604,-0.2349999994039535,-7.609000205993653,6.10699987411499
1621851083392,9.100000381469728,41.12799835205078,-13.14799976348877,-0.1959999948740005,-7.532000064849853,6.119999885559082
1621851083402,10.359999656677246,39.47700119018555,-13.864999771118164,-0.1959999948740005,-7.564000129699707,6.074999809265137
1621851083412,11.340000152587892,37.68899917602539,-13.39900016784668,-0.1570000052452087,-7.58900022506714,5.991000175476074
1621851083422,11.270000457763672,35.154998779296875,-13.135000228881836,-0.0390000008046627,-7.743000030517577,5.964000225067139
1621851083432,11.130000114440918,32.555999755859375,-14.517000198364258,0.0,-7.935999870300293,5.929999828338623
1621851083442,10.359999656677246,30.183000564575195,-16.784000396728516,0.0780000016093254,-7.988999843597413,6.0
1621851083452,10.43000030517578,29.392000198364254,-17.13650131225586,-0.0780000016093254,-7.956999778747559,6.046000003814697
1621851083462,10.5,28.60099983215332,-17.48900032043457,-0.1959999948740005,-7.822999954223632,6.189000129699707
1621851083472,11.899999618530272,27.493999481201172,-17.257999420166016,-0.2750000059604644,-7.546000003814697,6.197999954223633
1621851083482,13.789999961853027,27.17799949645996,-16.673999786376953,-0.2349999994039535,-7.422999858856201,6.179999828338623
1621851083492,14.630000114440918,26.76499938964844,-16.746999740600586,-0.3140000104904174,-7.552000045776368,6.236000061035156
1621851083502,14.210000038146973,26.07900047302246,-17.29400062561035,-0.3140000104904174,-7.682000160217285,6.293000221252441
1621851083512,13.090000152587892,24.71299934387207,-16.398000717163086,-0.2349999994039535,-7.7270002365112305,6.324999809265137
1621851083522,12.25,23.204999923706055,-13.892000198364258,-0.1959999948740005,-7.734000205993653,6.363999843597412
1621851083532,10.5,21.58300018310547,-11.54800033569336,-0.1180000007152557,-7.863999843597413,6.420000076293945
1621851083542,8.680000305175781,19.4950008392334,-9.782999992370604,-0.1959999948740005,-7.83900022506714,6.505000114440918
1621851083552,7.280000209808349,17.2450008392334,-9.11400032043457,-0.1570000052452087,-7.775000095367432,6.59499979019165
1621851083562,6.71999979019165,15.189000129699709,-8.33899974822998,-0.1570000052452087,-7.710999965667725,6.685999870300293
1621851083572,6.159999847412109,12.91800022125244,-7.958000183105469,-0.1180000007152557,-7.655000209808349,6.815999984741211
1621851083582,5.460000038146973,10.253999710083008,-8.569999694824219,-0.0780000016093254,-7.682000160217285,6.96999979019165
1621851083592,3.569999933242798,6.989999771118164,-9.003000259399414,0.0,-7.849999904632568,7.019999980926514
1621851083602,0.9800000190734864,3.068000078201294,-9.33899974822998,0.0780000016093254,-8.057000160217285,7.064000129699707
1621851083612,-2.380000114440918,-0.8529999852180481,-8.467000007629395,0.1570000052452087,-8.08899974822998,7.01800012588501
1621851083622,-4.480000019073486,-2.9250001907348633,-7.801500320434569,0.1570000052452087,-8.177000045776367,6.8429999351501465
1621851083632,-6.579999923706055,-4.997000217437744,-7.136000156402588,0.1180000007152557,-8.493000030517578,6.827000141143799
1621851083642,-10.710000038146973,-8.484000205993652,-8.319999694824219,0.0,-8.435999870300293,6.956999778747559
1621851083652,-11.970000267028809,-11.196999549865724,-11.072999954223633,-0.0780000016093254,-7.920000076293945,6.9679999351501465
1621851083662,-13.300000190734863,-13.748000144958496,-11.522000312805176,-0.0780000016093254,-7.685999870300293,6.769999980926514
1621851083672,-17.43000030517578,-15.916999816894531,-8.493000030517578,-0.0780000016093254,-8.04800033569336,6.785999774932861
1621851083682,-22.75,-18.038000106811523,-6.947999954223633,-0.0780000016093254,-8.310999870300293,6.699999809265137
1621851083692,-25.969999313354492,-20.211000442504883,-8.326000213623047,-0.1959999948740005,-8.189000129699707,6.682000160217285
1621851083702,-28.489999771118164,-21.917999267578125,-9.125,-0.2349999994039535,-7.974999904632568,6.599999904632568
1621851083712,-30.729999542236328,-23.114999771118164,-7.985000133514405,-0.1959999948740005,-7.905000209808349,6.6519999504089355
1621851083722,-33.11000061035156,-24.631000518798828,-7.044000148773193,-0.1570000052452087,-7.677000045776368,6.493000030517578
1621851083732,-34.790000915527344,-26.22100067138672,-6.8979997634887695,-0.1180000007152557,-7.69600009918213,6.369999885559082
1621851083742,-36.68000030517578,-27.63999938964844,-6.507999897003174,-0.0780000016093254,-7.724999904632568,6.085999965667725
1621851083752,-38.5,-29.42799949645996,-6.041999816894531,0.0780000016093254,-7.75,6.001999855041504
1621851083762,-40.18000030517578,-31.645999908447266,-5.1539998054504395,0.1570000052452087,-7.723000049591064,5.8480000495910645
1621851083772,-41.26499938964844,-32.40999984741211,-4.64900016784668,0.1570000052452087,-7.901999950408936,5.736000061035156
1621851083782,-42.349998474121094,-33.17399978637695,-4.144000053405762,0.2349999994039535,-8.050000190734863,5.671000003814697
1621851083792,-45.56999969482422,-35.03200149536133,-3.688999891281128,0.1959999948740005,-8.17300033569336,5.689000129699707
1621851083802,-49.06999969482422,-36.75899887084961,-3.566999912261963,0.2349999994039535,-8.314000129699707,5.584000110626221
1621851083812,-53.130001068115234,-38.93199920654297,-3.736999988555908,0.3140000104904174,-8.520000457763672,5.626999855041504
1621851083822,-58.16999816894531,-40.915000915527344,-3.375999927520752,0.3529999852180481,-8.63599967956543,5.60699987411499
1621851083832,-63.41999816894531,-43.75,-3.0230000019073486,0.5099999904632568,-8.913999557495117,5.5980000495910645
1621851083842,-69.2300033569336,-46.279998779296875,-1.97599995136261,0.5879999995231628,-9.31999969482422,5.645999908447266
1621851083852,-76.37000274658203,-48.672000885009766,-0.906000018119812,0.5879999995231628,-9.501999855041506,5.7729997634887695
1621851083862,-83.16000366210938,-52.0620002746582,-0.2240000069141387,0.7059999704360961,-9.604000091552734,5.675000190734863
1621851083872,-88.62000274658203,-55.375,-0.3819999992847442,0.7850000262260437,-9.86299991607666,5.789000034332275
1621851083882,-94.63999938964844,-58.40800094604492,0.2919999957084655,0.7850000262260437,-10.07699966430664,5.870999813079834
1621851083892,-99.88999938964844,-61.26300048828125,0.3569999933242797,0.8240000009536743,-10.031999588012695,5.839000225067139
1621851083902,-103.80999755859376,-63.797000885009766,-0.5870000123977661,0.8629999756813049,-9.909000396728516,5.821000099182129
1621851083912,-107.30999755859376,-65.47599792480469,-1.9490000009536743,0.8629999756813049,-9.965999603271484,5.690999984741211
1621851083922,-110.59999847412108,-66.94400024414062,-3.700999975204468,0.8629999756813049,-9.899999618530272,5.544000148773193
1621851083932,-111.86000061035156,-67.49800109863281,-4.189499855041504,0.8629999756813049,-9.82699966430664,5.35699987411499
1621851083942,-113.12000274658205,-68.052001953125,-4.677999973297119,0.8240000009536743,-9.69499969482422,5.061999797821045
1621851083952,-114.02999877929688,-69.04900360107422,-5.066999912261963,0.7850000262260437,-9.647999763488768,4.790999889373779
1621851083962,-114.58999633789062,-69.54399871826172,-5.083000183105469,0.6669999957084655,-9.522999763488768,4.534999847412109
1621851083972,-114.37999725341795,-69.13800048828125,-4.158999919891357,0.5490000247955322,-9.309000015258787,4.453000068664551
1621851083982,-113.19000244140624,-68.54199981689453,-2.703000068664551,0.4709999859333038,-8.96399974822998,4.076000213623047
1621851083992,-109.83000183105467,-67.05000305175781,-2.2980000972747803,0.4309999942779541,-8.659000396728516,3.9300000667572026
1621851084002,-104.93000030517578,-64.64099884033203,-2.6549999713897705,0.3140000104904174,-8.315999984741211,3.7909998893737793
1621851084012,-98.91000366210936,-60.874000549316406,-3.056999921798706,0.1570000052452087,-8.140999794006348,3.7030000686645503
1621851084022,-93.02999877929688,-57.13899993896485,-2.4700000286102295,0.1180000007152557,-8.043999671936035,3.6010000705718994
1621851084032,-87.56999969482422,-54.2239990234375,-1.6710000038146973,0.0780000016093254,-8.04800033569336,3.4010000228881836
1621851084042,-82.38999938964844,-52.00899887084961,0.2829999923706054,0.2349999994039535,-8.010000228881836,3.4070000648498535
1621851084052,-77.48999786376953,-49.59600067138672,3.125,0.2750000059604644,-8.006999969482422,3.1689999103546143
1621851084062,-73.56999969482422,-47.612998962402344,5.181000232696533,0.3919999897480011,-8.029999732971191,2.8459999561309814
1621851084072,-70.0,-46.04800033569336,6.38100004196167,0.4309999942779541,-8.182000160217285,2.5799999237060547
1621851084082,-69.22999572753906,-45.29350280761719,6.335999965667725,0.5490000247955322,-8.303000450134277,2.359999895095825
1621851084092,-68.45999908447266,-44.53900146484375,6.290999889373779,0.6669999957084655,-8.40999984741211,2.062000036239624
1621851084102,-68.5999984741211,-43.20100021362305,5.959000110626221,0.7450000047683715,-8.58899974822998,1.950999975204468
1621851084112,-69.44000244140625,-42.68199920654297,5.836999893188477,0.7850000262260437,-8.690999984741211,1.8530000448226929
1621851084122,-70.48999786376953,-42.430999755859375,6.02400016784668,0.7450000047683715,-8.527999877929688,1.6030000448226929
1621851084132,-70.41999816894531,-42.430999755859375,6.02400016784668,0.7059999704360961,-8.47599983215332,1.5329999923706057
1621851084142,-69.6500015258789,-41.672000885009766,4.948999881744385,0.7059999704360961,-8.756999969482422,1.3240000009536743
1621851084152,-68.38999938964844,-40.88999938964844,3.736000061035156,0.6669999957084655,-8.711999893188477,1.2920000553131104
1621851084162,-67.05999755859375,-39.84400177001953,2.6410000324249268,0.5879999995231628,-8.62600040435791,1.0279999971389773
