timestamp,gyro_x,gyro_y,gyro_z,acc_x,acc_y,acc_z
1622111391230,0.0,0.0,0.0,0.0,0.0,0.0
1622111391239,-15.119999885559082,-17.472999572753906,2.747999906539917,-1.8040000200271609,-8.843999862670898,2.263999938964844
1622111391249,-16.8700008392334,-15.57900047302246,3.2950000762939453,-1.7649999856948853,-8.586999893188477,2.388999938964844
1622111391259,-16.65999984741211,-14.406999588012695,4.710000038146973,-1.687000036239624,-8.52299976348877,2.4800000190734863
1622111391269,-15.050000190734863,-13.758000373840332,6.671999931335449,-1.6480000019073486,-8.593999862670898,2.427999973297119
1622111391279,-12.739999771118164,-13.303000450134276,9.73799991607666,-1.569000005722046,-8.909000396728516,2.4119999408721924
1622111391289,-11.340000152587892,-13.407999992370604,13.55799961090088,-1.569000005722046,-9.303000450134276,2.3829998970031734
1622111391299,-11.409999847412108,-14.668999671936035,16.676000595092773,-1.6080000400543213,-9.406999588012695,2.5239999294281006
1622111391309,-11.6899995803833,-16.60700035095215,18.395999908447266,-1.6480000019073486,-9.375,2.569000005722046
1622111391319,-11.0600004196167,-19.156999588012695,19.15399932861328,-1.6080000400543213,-9.395999908447264,2.684999942779541
1622111391329,-10.5,-21.586000442504883,19.224000930786133,-1.6480000019073486,-9.654999732971191,2.799000024795532
1622111391339,-10.079999923706056,-24.121000289916992,18.27899932861328,-1.72599995136261,-9.899999618530272,2.8350000381469727
1622111391349,-9.729999542236328,-25.950000762939453,14.545000076293944,-1.7649999856948853,-10.107000350952148,2.878000020980835
1622111391359,-8.539999961853027,-27.183000564575195,9.848999977111816,-1.8040000200271609,-10.68000030517578,2.736999988555908
1622111391369,-8.819999694824219,-28.180999755859375,5.835000038146973,-1.843999981880188,-11.05500030517578,2.8310000896453857
1622111391379,-9.239999771118164,-28.434999465942383,3.444499969482422,-1.9220000505447388,-11.368000030517578,2.575999975204468
1622111391389,-9.65999984741211,-28.68899917602539,1.0540000200271606,-1.843999981880188,-12.04300022125244,2.3380000591278076
1622111391399,-10.56999969482422,-29.176000595092773,-2.2300000190734863,-1.843999981880188,-11.836000442504885,2.2939999103546143
1622111391409,-11.199999809265137,-28.8799991607666,-3.1019999980926514,-1.843999981880188,-11.25,2.3580000400543213
1622111391419,-10.43000030517578,-28.91699981689453,-5.311999797821045,-1.8040000200271609,-10.652000427246094,2.5829999446868896
1622111391429,-10.079999923706056,-27.270999908447266,-6.585999965667725,-1.7649999856948853,-10.118000030517578,2.7170000076293945
1622111391439,-10.640000343322754,-24.881999969482425,-6.021999835968018,-1.72599995136261,-9.687000274658203,2.753000020980835
1622111391449,-11.130000114440918,-22.22599983215332,-6.97599983215332,-1.6080000400543213,-9.307000160217283,2.859999895095825
1622111391459,-10.43000030517578,-18.788000106811523,-9.14099979400635,-1.4509999752044678,-9.371000289916992,2.7690000534057617
1622111391469,-10.289999961853027,-15.105999946594238,-11.477999687194824,-1.2940000295639038,-9.447999954223633,2.755000114440918
1622111391479,-10.710000038146973,-11.626999855041504,-13.067999839782717,-1.1380000114440918,-9.58199977874756,2.611999988555908
1622111391489,-9.9399995803833,-8.218000411987305,-15.878000259399414,-0.981000006198883,-9.652999877929688,2.559999942779541
1622111391499,-8.890000343322754,-5.136000156402588,-18.035999298095703,-0.7850000262260437,-9.684000015258787,2.515000104904175
1622111391509,-8.119999885559082,-1.656999945640564,-19.625999450683594,-0.7059999704360961,-9.708999633789062,2.430000066757202
1622111391519,-8.399999618530273,1.1729999780654907,-19.55299949645996,-0.5879999995231628,-9.88199996948242,2.2809998989105225
1622111391529,-9.029999732971191,2.5810000896453857,-17.457000732421875,-0.4309999942779541,-9.96399974822998,2.066999912261963
1622111391539,-8.819999694824219,3.651000022888184,-15.0649995803833,-0.3919999897480011,-9.833999633789062,2.009999990463257
1622111391549,-7.699999809265136,4.178999900817871,-12.413000106811523,-0.3140000104904174,-9.666000366210936,1.9600000381469729
1622111391559,-7.139999866485596,4.876999855041504,-9.517999649047852,-0.2750000059604644,-9.512000083923342,1.986999988555908
1622111391569,-7.349999904632568,4.89300012588501,-6.38700008392334,-0.2750000059604644,-9.343999862670898,1.937000036239624
1622111391579,-6.650000095367432,4.78000020980835,-4.132999897003174,-0.2349999994039535,-9.168999671936035,1.8489999771118164
1622111391589,-4.96999979019165,4.695000171661377,-2.441999912261963,-0.2750000059604644,-9.071000099182127,1.7460000514984133
1622111391599,-3.359999895095825,4.257999897003174,-1.1679999828338623,-0.3140000104904174,-9.064000129699709,1.7079999446868896
1622111391609,-2.240000009536743,4.390999794006348,-0.7179999947547911,-0.3529999852180481,-9.128000259399414,1.6169999837875366
1622111391619,-1.680000066757202,4.524999618530273,-0.872499942779541,-0.3919999897480011,-9.095999717712402,1.6619999408721924
1622111391629,-1.1200000047683716,4.658999919891357,-1.0269999504089355,-0.3919999897480011,-9.005000114440918,1.5989999771118164
1622111391639,-0.699999988079071,4.921999931335449,-2.1170001029968266,-0.4309999942779541,-9.064000129699709,1.7079999446868896
1622111391649,-0.4900000095367431,5.243000030517578,-3.127000093460083,-0.3919999897480011,-8.710000038146973,1.7300000190734863
1622111391659,1.190000057220459,4.249000072479248,-5.150000095367432,-0.4309999942779541,-8.916000366210938,1.77400004863739
1622111391669,2.1700000762939453,4.326000213623047,-7.197999954223633,-0.3529999852180481,-9.182000160217283,1.9259999990463257
1622111391679,1.1200000047683716,3.7699999809265137,-8.07800006866455,-0.4709999859333038,-9.097999572753906,1.9010000228881836
1622111391689,-1.1200000047683716,3.8910000324249263,-9.97599983215332,-0.5099999904632568,-9.130000114440918,1.8550000190734863
1622111391699,-3.2899999618530273,4.427000045776367,-10.592000007629396,-0.5879999995231628,-9.20699977874756,1.8420000076293943
1622111391709,-5.320000171661377,5.533999919891357,-10.824000358581545,-0.7059999704360961,-9.07800006866455,1.7849999666213987
1622111391719,-7.139999866485596,6.498000144958496,-11.862000465393066,-0.7059999704360961,-9.07800006866455,1.7849999666213987
1622111391729,-8.399999618530273,8.3149995803833,-12.892000198364258,-0.6669999957084655,-9.225000381469728,1.718999981880188
1622111391739,-9.869999885559082,10.305999755859377,-14.104999542236328,-0.6669999957084655,-9.263999938964846,1.712000012397766
1622111391749,-10.989999771118164,12.593000411987305,-16.18899917602539,-0.5879999995231628,-9.135000228881836,1.656000018119812
1622111391759,-11.829999923706056,15.442999839782717,-18.246000289916992,-0.5099999904632568,-9.012000083923342,1.6369999647140503
1622111391769,-11.899999618530272,18.073999404907227,-19.06100082397461,-0.3919999897480011,-9.029999732971191,1.5149999856948853
1622111391779,-10.989999771118164,20.96500015258789,-20.541000366210938,-0.3140000104904174,-8.960000038146973,1.5670000314712524
1622111391789,-9.380000114440918,23.503999710083008,-22.440000534057617,-0.1959999948740005,-8.984999656677246,1.4830000400543213
1622111391799,-7.070000171661377,26.224000930786133,-25.371999740600582,-0.0780000016093254,-9.229999542236328,1.5190000534057615
1622111391809,-4.550000190734863,29.17200088500977,-27.979000091552734,0.0390000008046627,-9.314000129699709,1.5440000295639038
1622111391819,-2.799999952316284,31.815000534057617,-30.07200050354004,0.1570000052452087,-9.475000381469728,1.555999994277954
1622111391829,-2.240000009536743,34.57699966430664,-31.219999313354492,0.3529999852180481,-9.758999824523924,1.5850000381469729
1622111391839,-1.6799999475479126,36.332000732421875,-31.906000137329105,0.4709999859333038,-9.829999923706056,1.5329999923706057
1622111391849,-1.7849999666213987,36.806499481201165,-31.57349967956543,0.5879999995231628,-9.791000366210936,1.5399999618530271
1622111391859,-1.8899999856948853,37.28099822998047,-31.24099922180176,0.6669999957084655,-9.71399974822998,1.5529999732971191
1622111391869,-2.380000114440918,38.28300094604492,-28.861000061035156,0.6669999957084655,-9.836999893188477,1.5720000267028809
1622111391879,-3.009999990463257,38.279998779296875,-26.01799964904785,0.6669999957084655,-10.704999923706056,1.2990000247955322
1622111391889,-3.5,37.56700134277344,-21.167999267578125,0.5490000247955322,-11.656999588012695,1.0509999990463257
1622111391899,-3.359999895095825,37.05699920654297,-14.64799976348877,0.3919999897480011,-11.380000114440918,1.059999942779541
1622111391909,-4.619999885559082,36.65599822998047,-11.163999557495115,0.3529999852180481,-10.541000366210938,1.0490000247955322
1622111391919,-6.090000152587891,36.03499984741211,-12.482000350952148,0.3529999852180481,-9.987000465393066,1.0670000314712524
1622111391929,-6.789999961853027,36.33100128173828,-12.145999908447266,0.3529999852180481,-9.571000099182127,1.4190000295639038
1622111391939,-6.369999885559082,35.301998138427734,-7.920000076293945,0.1959999948740005,-9.293999671936035,1.4279999732971191
1622111391949,-3.7100000381469727,32.39899826049805,-2.746000051498413,0.0390000008046627,-9.321000099182127,1.5829999446868896
1622111391959,-0.3499999940395355,28.929000854492188,2.825999975204468,-0.1570000052452087,-9.520999908447264,1.587000012397766
1622111391969,3.2200000286102295,24.91900062561035,9.440999984741213,-0.4709999859333038,-9.649999618530272,1.6440000534057615
1622111391979,6.300000190734863,21.867000579833984,14.659999847412108,-0.8240000009536743,-9.508999824523924,1.7489999532699585
1622111391989,8.1899995803833,19.35700035095215,15.994000434875488,-1.0980000495910645,-9.536999702453612,1.9029999971389773
1622111391999,9.449999809265137,17.81599998474121,15.864999771118164,-1.2940000295639038,-9.64099979400635,2.0439999103546143
1622111392009,10.010000228881836,17.187000274658203,14.1899995803833,-1.569000005722046,-9.661999702453612,2.1600000858306885
1622111392019,9.729999542236328,16.201000213623047,11.3149995803833,-1.72599995136261,-9.642999649047852,2.2829999923706055
1622111392029,8.890000343322754,15.588000297546388,7.938000202178955,-1.8040000200271609,-9.656999588012695,2.359999895095825
1622111392039,6.300000190734863,15.166000366210938,5.091000080108643,-1.843999981880188,-9.663999557495115,2.3989999294281006
1622111392049,3.430000066757202,14.70400047302246,2.877000093460083,-1.8830000162124632,-9.600000381469728,2.490000009536743
1622111392059,0.4900000095367431,14.4399995803833,1.5509999990463257,-1.8830000162124632,-9.392999649047852,2.446000099182129
1622111392069,-0.2799999713897705,14.597999572753906,1.2590000629425049,-1.8830000162124632,-9.161999702453612,2.486999988555908
1622111392079,-1.0499999523162842,14.755999565124512,0.9670000076293944,-1.9220000505447388,-8.954999923706055,2.444000005722046
1622111392089,-1.1200000047683716,15.21399974822998,-0.0179999992251396,-1.9609999656677248,-8.800000190734863,2.4709999561309814
1622111392099,-0.9100000262260436,16.666000366210938,-0.1889999955892562,-1.9609999656677248,-8.593999862670898,2.427999973297119
1622111392109,0.0,17.97599983215332,0.0419999994337558,-1.9609999656677248,-8.541000366210938,2.3580000400543213
1622111392119,2.1700000762939453,19.191999435424805,0.3989999890327453,-1.9220000505447388,-8.638999938964844,2.4600000381469727
1622111392129,3.7100000381469727,20.562999725341797,1.493000030517578,-1.9220000505447388,-8.793999671936035,2.433000087738037
1622111392139,4.900000095367432,22.180999755859375,1.9919999837875368,-1.9609999656677248,-8.954999923706055,2.444000005722046
1622111392149,5.599999904632568,24.15999984741211,2.056999921798706,-1.9609999656677248,-8.994000434875488,2.437000036239624
1622111392159,6.440000057220459,26.38599967956543,1.524999976158142,-2.000999927520752,-9.147999763488768,2.4100000858306885
1622111392169,7.070000171661377,28.4950008392334,1.256999969482422,-1.9220000505447388,-9.303000450134276,2.3829998970031734
1622111392179,6.71999979019165,30.586999893188477,1.4839999675750732,-1.843999981880188,-9.392999649047852,2.446000099182129
1622111392189,6.019999980926514,32.0099983215332,0.6690000295639038,-1.7649999856948853,-9.387000083923342,2.4079999923706055
1622111392199,5.739999771118164,32.82500076293945,-0.324999988079071,-1.6480000019073486,-9.340999603271484,2.375999927520752
1622111392209,6.019999980926514,33.112998962402344,-1.5540000200271606,-1.6080000400543213,-9.263999938964846,2.390000104904175
1622111392219,6.300000190734863,33.209999084472656,-2.1050000190734863,-1.569000005722046,-9.263999938964846,2.390000104904175
1622111392229,7.0,32.763999938964844,-2.3970000743865967,-1.5299999713897705,-9.194000244140623,2.441999912261963
1622111392239,7.9099998474121085,31.766000747680664,-2.7860000133514404,-1.491000056266785,-9.199999809265137,2.4800000190734863
1622111392249,8.399999618530273,31.065000534057617,-2.8389999866485596,-1.4119999408721924,-9.20699977874756,2.5190000534057617
1622111392259,9.520000457763674,29.44300079345703,-2.9119999408721924,-1.4119999408721924,-9.130000114440918,2.5329999923706055
1622111392269,10.640000343322754,27.582000732421875,-2.0309998989105225,-1.3730000257492063,-9.168999671936035,2.5260000228881836
1622111392279,10.780000686645508,26.829500198364254,-1.5950000286102295,-1.4119999408721924,-9.284000396728516,2.505000114440918
1622111392289,10.920000076293944,26.07699966430664,-1.159000039100647,-1.4119999408721924,-9.354999542236328,2.453000068664551
1622111392299,10.359999656677246,24.138999938964844,-0.6480000019073486,-1.4119999408721924,-9.354999542236328,2.453000068664551
1622111392309,9.800000190734863,22.447999954223633,0.4749999940395355,-1.5299999713897705,-9.387000083923342,2.4079999923706055
1622111392319,8.680000305175781,21.041000366210938,0.7960000038146972,-1.6080000400543213,-9.425000190734863,2.4010000228881836
1622111392329,7.489999771118165,20.04400062561035,1.6150000095367432,-1.72599995136261,-9.46399974822998,2.3940000534057617
1622111392339,6.019999980926514,19.5049991607666,1.4490000009536743,-1.72599995136261,-9.284000396728516,2.505000114440918
1622111392349,5.039999961853027,19.049999237060547,0.800000011920929,-1.843999981880188,-9.116000175476074,2.4549999237060547
1622111392359,4.760000228881836,18.99799919128418,0.2930000126361846,-1.8830000162124632,-9.07800006866455,2.461999893188477
1622111392369,5.25,19.51300048828125,-0.6110000014305114,-1.8830000162124632,-8.968999862670898,2.5209999084472656
1622111392379,5.880000114440918,19.82900047302246,-1.1950000524520874,-1.9220000505447388,-8.807000160217285,2.509999990463257
1622111392389,6.369999885559082,20.44499969482422,-1.868000030517578,-1.8830000162124632,-8.845999717712402,2.503000020980835
1622111392399,8.050000190734863,21.07799911499023,-1.8279999494552612,-1.8830000162124632,-8.65999984741211,2.575999975204468
1622111392409,10.989999771118164,21.535999298095703,-1.6050000190734863,-1.9220000505447388,-8.460000038146973,2.571000099182129
1622111392419,15.1899995803833,22.52899932861328,-0.7900000214576721,-2.000999927520752,-8.460000038146973,2.571000099182129
1622111392429,17.850000381469727,24.357999801635746,-0.6809999942779541,-2.0789999961853027,-8.774999618530273,2.555000066757202
1622111392439,18.690000534057617,26.70599937438965,-0.6930000185966491,-2.118000030517578,-9.071000099182127,2.424000024795532
1622111392449,18.969999313354492,28.604000091552734,-0.5720000267028807,-2.197000026702881,-9.263999938964846,2.390000104904175
1622111392459,19.739999771118164,30.218000411987305,-0.856000006198883,-2.118000030517578,-9.399999618530272,2.484999895095825
1622111392469,20.229999542236328,31.344999313354492,-0.7990000247955322,-2.1570000648498535,-9.470999717712402,2.433000087738037
1622111392479,20.3700008392334,32.35100173950195,-1.2619999647140503,-2.197000026702881,-9.458999633789062,2.5940001010894775
1622111392489,20.405000686645508,32.69350051879883,-1.5924999713897705,-2.197000026702881,-9.479999542236328,2.7100000381469727
1622111392499,20.440000534057617,33.0359992980957,-1.9229999780654907,-2.236000061035156,-9.378000259399414,2.808000087738037
1622111392509,20.719999313354492,32.979000091552734,-3.211999893188477,-2.1570000648498535,-9.812000274658203,3.009999990463257
1622111392519,19.040000915527344,32.45100021362305,-4.656000137329102,-2.118000030517578,-9.534000396728516,3.0190000534057617
1622111392529,16.520000457763672,31.90399932861328,-6.38700008392334,-2.0789999961853027,-9.442999839782717,2.9549999237060547
1622111392539,15.1899995803833,30.20400047302246,-9.246000289916992,-2.0789999961853027,-9.656999588012695,3.0369999408721924
1622111392549,14.350000381469728,28.829999923706055,-9.913999557495115,-2.1570000648498535,-9.45699977874756,3.0329999923706055
1622111392559,11.829999923706056,27.65800094604492,-10.121000289916992,-2.2750000953674316,-9.225000381469728,3.072999954223633
1622111392569,9.9399995803833,27.856000900268555,-11.649999618530272,-2.3540000915527344,-9.147999763488768,3.086999893188477
1622111392579,9.380000114440918,28.468000411987305,-11.897000312805176,-2.4709999561309814,-9.14099979400635,3.0480000972747803
1622111392589,8.75,30.093999862670895,-12.25,-2.4709999561309814,-9.187000274658203,3.0799999237060547
1622111392599,7.8400001525878915,32.0890007019043,-12.68000030517578,-2.4709999561309814,-9.187000274658203,3.0799999237060547
1622111392609,6.71999979019165,33.974998474121094,-12.489999771118164,-2.549999952316284,-9.109000205993652,3.0940001010894775
1622111392619,5.949999809265137,35.220001220703125,-12.696999549865724,-2.5889999866485596,-9.102999687194824,3.055000066757202
1622111392629,5.880000114440918,36.95899963378906,-12.887999534606934,-2.5889999866485596,-9.192999839782717,3.11899995803833
1622111392639,5.320000171661377,38.707000732421875,-12.722000122070312,-2.7070000171661377,-9.147999763488768,3.086999893188477
1622111392649,5.039999961853027,40.8120002746582,-13.772000312805176,-2.746000051498413,-9.109000205993652,3.0940001010894775
1622111392659,5.25,42.95199966430664,-15.029999732971191,-2.8239998817443848,-9.116000175476074,3.1329998970031734
1622111392669,5.599999904632568,45.23099899291992,-16.26300048828125,-2.9809999465942383,-9.123000144958496,3.1710000038146973
1622111392679,5.565000057220459,46.660499572753906,-16.508499145507812,-3.0989999771118164,-9.16800022125244,3.203000068664551
1622111392689,5.53000020980835,48.09000015258789,-16.753999710083008,-3.3340001106262207,-9.16800022125244,3.203000068664551
1622111392699,5.880000114440918,51.87699890136719,-18.076000213623047,-3.4519999027252197,-9.130000114440918,3.2100000381469727
1622111392709,6.650000095367432,56.54800033569336,-19.17200088500977,-3.6480000019073486,-9.090999603271484,3.2170000076293945
1622111392719,7.489999771118165,61.60499954223633,-19.631000518798828,-3.8829998970031734,-8.98900032043457,3.313999891281128
1622111392729,8.260000228881836,67.45600128173828,-20.163000106811523,-4.197000026702881,-9.072999954223633,3.3389999866485596
1622111392739,9.449999809265137,74.26799774169922,-21.30699920654297,-4.433000087738037,-9.149999618530272,3.325999975204468
1622111392749,10.220000267028809,82.11499786376953,-22.268999099731445,-4.590000152587891,-9.182000160217283,3.2799999713897705
1622111392759,10.5,90.70700073242188,-23.02899932861328,-4.745999813079834,-9.26599979400635,3.305000066757202
1622111392769,10.989999771118164,99.23799896240232,-24.652000427246097,-4.824999809265137,-9.189000129699709,3.319000005722046
1622111392779,10.710000038146973,107.87899780273438,-25.687000274658203,-4.863999843597412,-9.21399974822998,3.234999895095825
1622111392789,9.9399995803833,116.26499938964844,-26.482999801635746,-4.9029998779296875,-9.291000366210936,3.2209999561309814
1622111392799,8.890000343322754,124.67099761962892,-28.200000762939453,-4.98199987411499,-9.23900032043457,3.1510000228881836
1622111392809,7.280000209808349,132.8249969482422,-30.10199928283691,-5.020999908447266,-9.23900032043457,3.1510000228881836
1622111392819,5.53000020980835,141.53900146484375,-32.7599983215332,-4.98199987411499,-9.192999839782717,3.11899995803833
1622111392829,3.990000009536743,149.46600341796875,-34.98699951171875,-4.824999809265137,-9.038999557495115,3.1459999084472656
1622111392838,2.5899999141693115,156.031005859375,-35.53499984741211,-4.785999774932861,-8.902999877929688,3.0510001182556152
1622111392848,2.450000047683716,161.93499755859375,-36.76900100708008,-4.668000221252441,-8.888999938964844,2.9730000495910645
1622111392858,2.0999999046325684,167.63999938964844,-38.88999938964844,-4.629000186920166,-8.741000175476074,3.0390000343322754
1622111392868,1.8899999856948853,173.093994140625,-41.198001861572266,-4.4720001220703125,-8.758999824523926,2.9170000553131104
1622111392878,1.399999976158142,175.41099548339844,-42.24700164794922,-4.197000026702881,-8.946000099182129,2.8440001010894775
1622111392888,0.9100000262260436,177.72799682617188,-43.29600143432618,-4.000999927520752,-8.96399974822998,2.7209999561309814
1622111392898,-0.5600000023841857,181.0330047607422,-45.9109992980957,-3.7660000324249263,-8.82800006866455,2.625999927520752
1622111392908,-1.8899999856948853,182.64599609375,-48.61199951171875,-3.4519999027252197,-8.645999908447266,2.499000072479248
1622111392918,-2.5899999141693115,182.48399353027344,-49.707000732421875,-3.25600004196167,-8.510000228881836,2.4030001163482666
1622111392928,-2.7300000190734863,181.19000244140625,-49.2239990234375,-3.0989999771118164,-8.437000274658203,2.2170000076293945
1622111392938,-2.240000009536743,179.1020050048828,-48.66899871826172,-2.941999912261963,-8.616000175476074,2.1050000190734863
1622111392948,-1.6100000143051147,176.9290008544922,-48.8390007019043,-2.8239998817443848,-8.58899974822998,1.950999975204468
1622111392958,-1.8200000524520872,174.49600219726565,-49.551998138427734,-2.7070000171661377,-8.755000114440918,1.7619999647140503
1622111392968,-1.75,172.36700439453125,-50.779998779296875,-2.549999952316284,-8.928000450134277,1.6119999885559082
1622111392978,-2.309999942779541,169.7550048828125,-52.09400177001953,-2.3929998874664307,-9.093999862670898,1.4240000247955322
1622111392988,-2.450000047683716,166.91600036621094,-53.73199844360352,-2.1570000648498535,-9.196000099182127,1.3259999752044678
1622111392998,-2.799999952316284,163.4250030517578,-55.698001861572266,-1.9609999656677248,-9.277999877929688,1.1119999885559082
1622111393008,-3.2899999618530273,159.47500610351565,-57.887001037597656,-1.7649999856948853,-9.418999671936035,1.0080000162124634
1622111393018,-4.619999885559082,155.01800537109375,-58.814998626708984,-1.5299999713897705,-9.513999938964846,0.871999979019165
1622111393028,-7.070000171661377,149.552001953125,-58.85499954223633,-1.2940000295639038,-9.494000434875488,0.7559999823570251
1622111393038,-10.149999618530272,142.9669952392578,-58.59400177001953,-1.0590000152587893,-9.35099983215332,0.621999979019165
1622111393048,-13.090000152587892,135.6840057373047,-57.604000091552734,-0.8240000009536743,-9.31700038909912,0.4280000030994415
1622111393058,-15.609999656677246,128.0570068359375,-56.67399978637695,-0.5879999995231628,-9.211999893188477,0.2879999876022338
1622111393068,-16.309999465942383,123.97550201416016,-56.50499725341797,-0.4309999942779541,-8.939000129699707,0.0970000028610229
1622111393078,-17.010000228881836,119.8939971923828,-56.33599853515625,-0.2750000059604644,-8.602999687194824,-0.003000000026077
1622111393088,-17.219999313354492,112.56700134277344,-56.70399856567382,-0.1570000052452087,-8.576000213623047,-0.1580000072717666
1622111393098,-16.940000534057617,106.08300018310548,-57.42100143432618,-0.0390000008046627,-8.477999687194824,-0.2599999904632568
1622111393108,-16.100000381469727,100.25599670410156,-58.23600006103515,0.1180000007152557,-8.335000038146973,-0.3939999938011169
1622111393118,-13.720000267028809,95.072998046875,-59.077999114990234,0.2750000059604644,-8.199000358581543,-0.4900000095367431
1622111393128,-10.779999732971191,89.87899780273438,-58.64400100708008,0.4709999859333038,-8.204999923706055,-0.4510000050067901
1622111393138,-6.650000095367432,84.76200103759767,-56.63199996948242,0.5099999904632568,-8.364999771118164,-0.6779999732971191
1622111393148,-1.6799999475479126,79.48600006103516,-54.93199920654297,0.6280000209808348,-8.35099983215332,-0.7559999823570251
1622111393158,3.569999933242798,72.61000061035156,-51.80899810791016,0.7450000047683715,-8.220999717712402,-0.8119999766349792
1622111393168,9.170000076293944,66.93299865722656,-46.625,0.981000006198883,-8.369000434875488,-0.8780000209808348
1622111393178,15.539999961853027,60.417999267578125,-40.31100082397461,1.1380000114440918,-9.08899974822998,-1.0850000381469729
1622111393188,21.84000015258789,53.90999984741211,-34.847999572753906,1.1770000457763672,-9.854999542236328,-1.2599999904632568
1622111393198,27.579999923706055,48.07600021362305,-31.18600082397461,1.2549999952316284,-9.862000465393066,-1.2209999561309814
1622111393208,32.7599983215332,42.3380012512207,-28.075000762939453,1.3730000257492063,-9.37399959564209,-1.0549999475479126
1622111393218,37.72999954223633,37.06700134277344,-24.38400077819824,1.4119999408721924,-8.859999656677246,-0.8050000071525573
1622111393228,43.04999923706055,32.27899932861328,-21.81599998474121,1.491000056266785,-8.237000465393066,-0.4959999918937683
1622111393238,48.790000915527344,27.60300064086914,-21.503000259399418,1.72599995136261,-7.77400016784668,0.2619999945163726
1622111393248,54.7400016784668,23.774999618530273,-21.96500015258789,1.843999981880188,-7.988999843597413,0.5830000042915344
1622111393258,60.20000076293945,19.79700088500977,-22.381999969482425,2.0399999618530273,-8.461999893188477,0.777999997138977
1622111393268,62.75499725341797,18.0575008392334,-23.399499893188477,2.2750000953674316,-9.25699996948242,0.996999979019165
1622111393278,65.30999755859375,16.31800079345703,-24.41699981689453,2.549999952316284,-10.013999938964844,1.2220000028610227
1622111393288,69.16000366210938,12.984000205993652,-27.280000686645508,2.8239998817443848,-10.640999794006348,1.3899999856948853
1622111393298,70.0,10.0600004196167,-29.64299964904785,3.138000011444092,-11.04300022125244,1.6380000114440918
1622111393308,67.9000015258789,7.5910000801086435,-30.149999618530273,3.413000106811523,-11.21399974822998,1.9259999990463257
1622111393318,63.97999954223633,5.047999858856201,-29.034000396728516,3.687000036239624,-11.215999603271484,2.1649999618530273
1622111393328,58.59000015258789,1.8049999475479128,-26.76300048828125,3.8440001010894775,-11.243000030517578,2.319000005722046
1622111393338,52.849998474121094,-0.777999997138977,-22.597999572753903,3.8829998970031734,-11.256999969482422,2.3970000743865967
1622111393348,47.31999969482422,-3.88700008392334,-16.25200080871582,3.92300009727478,-11.14799976348877,2.4560000896453857
1622111393358,42.0,-6.802000045776367,-9.800000190734863,3.8050000667572026,-10.954999923706056,2.490000009536743
1622111393368,37.939998626708984,-9.991999626159668,-2.187999963760376,3.687000036239624,-10.76099967956543,2.5239999294281006
1622111393378,33.599998474121094,-13.267000198364258,5.906000137329102,3.4519999027252197,-10.600000381469728,2.51200008392334
1622111393388,29.68000030517578,-16.790000915527344,14.595999717712402,3.177000045776367,-10.439000129699709,2.500999927520752
1622111393398,25.270000457763672,-20.40999984741211,21.42099952697754,2.864000082015991,-10.340999603271484,2.3989999294281006
1622111393408,19.950000762939453,-24.19300079345703,25.94300079345703,2.628000020980835,-10.25,2.3350000381469727
1622111393418,14.5600004196167,-28.2549991607666,29.63400077819824,2.3540000915527344,-10.184000015258787,2.187000036239624
1622111393428,8.470000267028809,-32.349998474121094,31.89699935913086,2.0789999961853027,-10.125,2.078000068664551
1622111393438,2.1700000762939453,-35.974998474121094,31.89800071716309,1.843999981880188,-10.097999572753906,1.924000024795532
1622111393448,-4.480000019073486,-39.13399887084961,31.268999099731445,1.6480000019073486,-9.954999923706056,1.7899999618530271
1622111393458,-11.130000114440918,-43.347999572753906,30.17099952697754,1.4509999752044678,-9.850000381469728,1.64900004863739
1622111393468,-13.93000030517578,-45.458499908447266,29.443500518798828,1.2940000295639038,-9.668999671936035,1.5219999551773071
1622111393478,-16.729999542236328,-47.569000244140625,28.715999603271484,1.1380000114440918,-9.531999588012695,1.4259999990463257
1622111393488,-22.329999923706055,-51.737998962402344,26.55900001525879,0.9409999847412108,-9.357000350952148,1.337000012397766
1622111393498,-26.459999084472656,-54.74300003051758,24.25200080871582,0.7850000262260437,-9.220999717712402,1.2419999837875366
1622111393508,-29.260000228881836,-57.2130012512207,21.32900047302246,0.7059999704360961,-9.097999572753906,1.2239999771118164
1622111393518,-31.709999084472656,-59.15599822998047,18.641000747680664,0.5490000247955322,-8.961999893188477,1.128000020980835
1622111393528,-33.25,-59.779998779296875,16.541000366210938,0.4309999942779541,-8.786999702453613,1.0399999618530271
1622111393538,-33.880001068115234,-60.222999572753906,14.61400032043457,0.3529999852180481,-8.682000160217285,0.8989999890327453
1622111393548,-32.900001525878906,-59.97600173950195,12.8100004196167,0.2349999994039535,-8.612000465393066,0.9509999752044676
1622111393558,-31.36000061035156,-58.78400039672851,10.887999534606934,0.1180000007152557,-8.644000053405762,0.906000018119812
1622111393568,-28.770000457763672,-56.82099914550781,9.029999732971191,0.0,-8.720999717712402,0.8920000195503234
1622111393578,-25.969999313354492,-54.16600036621094,6.86899995803833,-0.1570000052452087,-8.791999816894531,0.8399999737739563
1622111393588,-23.100000381469727,-50.650001525878906,3.86299991607666,-0.2750000059604644,-8.901000022888184,0.781000018119812
1622111393598,-19.670000076293945,-46.304000854492195,0.578000009059906,-0.3529999852180481,-9.017000198364256,0.7599999904632568
1622111393608,-16.030000686645508,-41.073001861572266,-2.4800000190734863,-0.4309999942779541,-9.17099952697754,0.7329999804496765
1622111393618,-12.25,-35.20199966430664,-5.140999794006348,-0.5490000247955322,-9.371000289916992,0.7379999756813049
1622111393628,-8.680000305175781,-29.322999954223633,-7.445000171661377,-0.5879999995231628,-9.557000160217283,0.6650000214576721
1622111393638,-5.25,-22.117000579833984,-10.012999534606934,-0.6280000209808348,-9.803000450134276,0.7009999752044677
1622111393648,-1.6799999475479126,-15.050000190734863,-11.395999908447266,-0.6280000209808348,-9.98900032043457,0.6290000081062316
1622111393658,1.6100000143051147,-7.4629998207092285,-12.902000427246094,-0.7850000262260437,-10.149999618530272,0.6399999856948853
1622111393668,4.690000057220459,1.1210000514984133,-14.017999649047852,-0.8629999756813049,-10.312000274658203,0.6510000228881835
1622111393678,5.529999732971191,5.948500156402588,-14.588500022888184,-1.0199999809265137,-10.440999984741213,0.7080000042915344
1622111393688,6.369999885559082,10.776000022888184,-15.159000396728516,-1.0980000495910645,-10.694000244140623,0.7829999923706054
1622111393698,7.630000114440918,21.08799934387207,-16.39699935913086,-1.215999960899353,-10.970999717712402,0.7739999890327453
1622111393708,8.470000267028809,32.04399871826172,-17.663999557495117,-1.2940000295639038,-11.743000030517578,0.6380000114440918
1622111393718,9.170000076293944,43.49100112915039,-18.48900032043457,-1.2549999952316284,-12.86400032043457,0.4399999976158142
1622111393728,9.239999771118164,54.720001220703125,-16.86400032043457,-1.215999960899353,-13.218000411987305,0.4180000126361846
1622111393738,7.489999771118165,65.21399688720703,-14.303000450134276,-1.0980000495910645,-12.574999809265137,0.6110000014305114
1622111393748,5.949999809265137,73.63700103759767,-12.888999938964844,-0.9020000100135804,-11.970999717712402,0.7969999909400939
1622111393758,5.179999828338623,81.39800262451172,-10.95199966430664,-0.7450000047683715,-11.565999984741213,0.9879999756813048
1622111393768,4.760000228881836,88.14600372314453,-7.701000213623046,-0.6669999957084655,-10.904999732971191,1.3040000200271606
1622111393778,6.159999847412109,92.78500366210936,-6.5980000495910645,-0.5490000247955322,-10.243000030517578,1.61899995803833
1622111393788,9.59000015258789,95.947998046875,-5.188000202178955,-0.4309999942779541,-9.75,1.9850000143051147
1622111393798,13.229999542236328,98.0739974975586,-2.325000047683716,-0.3919999897480011,-9.25699996948242,2.3510000705718994
1622111393808,16.65999984741211,98.8199996948242,1.503000020980835,-0.3919999897480011,-8.968999862670898,2.5209999084472656
1622111393818,19.25,99.05599975585936,3.3919999599456787,-0.4309999942779541,-8.795999526977539,2.6710000038146973
1622111393828,19.809999465942383,98.66699981689452,4.389999866485596,-0.4709999859333038,-8.847999572753906,2.7420001029968266
1622111393838,18.690000534057617,97.88400268554688,4.394000053405762,-0.5490000247955322,-9.086999893188477,2.739000082015991
1622111393848,16.8700008392334,96.41600036621092,3.8510000705718994,-0.6280000209808348,-9.428000450134276,2.638999938964844
1622111393858,14.489999771118164,94.58300018310548,2.9590001106262207,-0.7450000047683715,-9.607000350952148,2.5280001163482666
1622111393868,12.18000030517578,93.01000213623048,1.4019999504089355,-0.7850000262260437,-9.67099952697754,2.437000036239624
1622111393878,11.164999961853027,92.18450164794922,0.438999980688095,-0.8629999756813049,-9.45699977874756,2.3550000190734863
1622111393888,10.149999618530272,91.35900115966795,-0.5239999890327453,-0.9020000100135804,-9.17300033569336,2.325999975204468
1622111393898,8.470000267028809,89.50499725341797,-2.9119999408721924,-0.9020000100135804,-8.965999603271484,2.2829999923706055
1622111393908,7.8400001525878915,87.4530029296875,-6.188000202178955,-0.8240000009536743,-8.829999923706055,2.187000036239624
1622111393918,8.470000267028809,84.79299926757812,-9.642000198364256,-0.7850000262260437,-8.854999542236328,2.1029999256134033
1622111393928,9.65999984741211,80.8550033569336,-11.899999618530272,-0.7450000047683715,-8.956999778747559,2.005000114440918
1622111393938,11.479999542236328,76.30899810791016,-14.336999893188477,-0.7850000262260437,-8.98900032043457,1.9600000381469729
1622111393948,12.880000114440918,71.97000122070312,-16.73699951171875,-0.7850000262260437,-9.013999938964846,1.8760000467300415
1622111393958,13.510000228881836,67.5979995727539,-19.356000900268555,-0.8240000009536743,-8.975000381469727,1.8830000162124632
1622111393968,13.93000030517578,64.2239990234375,-22.79400062561035,-0.8629999756813049,-8.930000305175781,1.85099995136261
1622111393978,14.06999969482422,61.619998931884766,-26.16699981689453,-0.981000006198883,-8.890999794006348,1.8580000400543213
1622111393988,14.350000381469728,60.20000076293945,-29.402999877929688,-1.1380000114440918,-8.859999656677246,1.9029999971389773
1622111393998,14.210000038146973,60.55699920654297,-31.82799911499023,-1.3730000257492063,-8.82800006866455,1.9490000009536743
1622111394008,14.210000038146973,62.72999954223633,-34.07500076293945,-1.6080000400543213,-8.835000038146973,1.986999988555908
1622111394018,14.5600004196167,67.08100128173828,-35.36899948120117,-1.843999981880188,-8.8100004196167,2.071000099182129
1622111394028,15.260000228881836,73.39900207519531,-35.32099914550781,-1.9609999656677248,-8.746000289916992,2.1619999408721924
1622111394038,15.890000343322754,80.93699645996094,-35.34199905395508,-2.118000030517578,-8.675000190734863,2.2139999866485596
1622111394048,16.59000015258789,88.60900115966797,-34.91400146484375,-2.197000026702881,-8.638999938964844,2.4600000381469727
1622111394058,17.5,96.13899993896484,-34.08300018310547,-2.236000061035156,-8.678000450134277,2.453000068664551
1622111394068,18.34000015258789,104.68299865722656,-34.56700134277344,-2.236000061035156,-8.744000434875488,2.6010000705718994
1622111394078,18.969999313354492,112.78099822998048,-35.34299850463867,-2.118000030517578,-8.774999618530273,2.555000066757202
1622111394088,18.899999618530273,116.64700317382812,-35.30099868774414,-1.9609999656677248,-8.845999717712402,2.503000020980835
1622111394098,18.829999923706055,120.51300048828124,-35.25899887084961,-1.6480000019073486,-8.878000259399414,2.4579999446868896
1622111394108,18.549999237060547,126.65299987792967,-34.60300064086914,-1.2940000295639038,-8.871000289916992,2.4189999103546143
1622111394118,17.43000030517578,130.11199951171875,-34.06399917602539,-0.9020000100135804,-8.824999809265137,2.38700008392334
1622111394128,15.609999656677246,131.94500732421875,-33.172000885009766,-0.5490000247955322,-8.741000175476074,2.361999988555908
1622111394138,13.579999923706056,131.06500244140625,-31.40800094604492,-0.2349999994039535,-8.727999687194824,2.2850000858306885
1622111394148,11.479999542236328,128.11300659179688,-29.58300018310547,-0.0390000008046627,-8.63700008392334,2.2209999561309814
1622111394158,9.65999984741211,124.22899627685548,-27.708999633789062,0.1180000007152557,-8.513999938964844,2.203000068664551
1622111394168,8.260000228881836,118.9250030517578,-25.44499969482422,0.1959999948740005,-8.513999938964844,2.203000068664551
1622111394178,7.559999942779541,112.76599884033205,-22.763999938964844,0.2750000059604644,-8.791000366210938,2.194000005722046
1622111394188,7.980000019073486,106.322998046875,-19.280000686645508,0.2750000059604644,-9.166000366210936,2.2869999408721924
1622111394198,8.470000267028809,99.625,-15.557000160217283,0.1959999948740005,-9.50699996948242,2.187000036239624
1622111394208,8.399999618530273,92.34300231933594,-12.14900016784668,0.1570000052452087,-9.784000396728516,2.177999973297119
1622111394218,6.860000133514404,85.03600311279298,-8.604000091552734,0.0390000008046627,-10.008999824523926,2.0989999771118164
1622111394228,4.96999979019165,77.63999938964844,-4.151000022888184,0.0,-10.196000099182127,2.0260000228881836
1622111394238,2.309999942779541,70.1760025024414,0.2899999916553497,-0.0390000008046627,-10.350000381469728,1.9989999532699585
1622111394248,-0.4900000095367431,61.834999084472656,3.6530001163482666,-0.0780000016093254,-10.529999732971191,1.888000011444092
1622111394258,-3.7799999713897705,53.40900039672851,6.289999961853027,-0.0780000016093254,-10.755000114440918,1.8079999685287476
1622111394268,-7.630000114440918,44.82500076293945,8.614999771118164,-0.1570000052452087,-10.972999572753906,1.690000057220459
1622111394278,-11.270000457763672,36.229000091552734,9.800000190734863,-0.1959999948740005,-11.54599952697754,1.5490000247955322
1622111394288,-13.649999618530272,27.875999450683594,10.8149995803833,-0.2750000059604644,-12.086000442504885,1.4539999961853027
1622111394298,-14.770000457763672,23.85950088500977,10.817499160766602,-0.4309999942779541,-12.027000427246094,1.3450000286102295
1622111394308,-15.890000343322754,19.843000411987305,10.81999969482422,-0.5099999904632568,-12.140999794006348,1.0859999656677246
1622111394318,-18.270000457763672,12.093000411987305,8.814000129699707,-0.6280000209808348,-12.288999557495115,1.0199999809265137
1622111394328,-19.31999969482422,4.7820000648498535,7.951000213623046,-0.8629999756813049,-11.72700023651123,0.9990000128746032
1622111394338,-20.3700008392334,-2.627000093460083,7.639999866485595,-1.0199999809265137,-10.979999542236328,1.0509999990463257
1622111394348,-19.18000030517578,-10.993000030517578,3.8900001049041744,-1.0980000495910645,-10.369000434875488,1.1990000009536743
1622111394358,-16.799999237060547,-16.71500015258789,0.4650000035762786,-1.2940000295639038,-9.51900005340576,1.3489999771118164
1622111394368,-13.229999542236328,-20.92799949645996,-1.8420000076293943,-1.4509999752044678,-8.77299976348877,1.6399999856948853
1622111394378,-7.8400001525878915,-23.613000869750977,-7.574999809265136,-1.569000005722046,-8.196000099182129,1.9800000190734863
1622111394388,-1.0499999523162842,-24.20599937438965,-15.49899959564209,-1.6080000400543213,-7.863999843597413,2.3580000400543213
1622111394398,5.949999809265137,-22.917999267578125,-24.01499938964844,-1.6080000400543213,-7.828000068664551,2.6029999256134033
1622111394408,12.109999656677246,-19.631000518798828,-33.38600158691406,-1.5299999713897705,-8.04800033569336,2.7230000495910645
1622111394418,15.399999618530272,-15.463000297546388,-42.10499954223633,-1.3339999914169312,-8.550000190734863,2.634999990463257
1622111394428,16.239999771118164,-10.87399959564209,-49.18600082397461,-1.1380000114440918,-9.156999588012695,2.687000036239624
1622111394437,15.539999961853027,-5.202000141143799,-53.94300079345703,-0.9409999847412108,-9.58899974822998,2.6510000228881836
1622111394447,13.300000190734863,0.2150000035762786,-57.25199890136719,-0.7059999704360961,-9.840999603271484,2.7260000705718994
1622111394457,10.289999961853027,6.442999839782715,-58.7130012512207,-0.4309999942779541,-9.904999732971191,2.634999990463257
1622111394468,3.5,19.18899917602539,-49.57099914550781,-0.1959999948740005,-10.04800033569336,2.7690000534057617
1622111394477,1.8899999856948853,25.163000106811523,-42.33399963378906,-0.0780000016093254,-10.138999938964844,2.8329999446868896
1622111394487,1.2599999904632568,31.308000564575195,-34.85300064086914,0.0390000008046627,-10.04300022125244,2.9690001010894775
1622111394497,1.5399999618530271,37.70000076293945,-26.760000228881836,0.0780000016093254,-9.772999763488768,3.0169999599456787
1622111394507,2.5899999141693115,44.37099838256836,-19.04400062561035,0.0390000008046627,-9.51599979400635,3.1419999599456787
1622111394517,3.2199997901916504,48.23600006103515,-15.164000511169434,-0.0780000016093254,-9.29800033569336,3.259999990463257
1622111394527,3.849999904632568,52.10100173950195,-11.284000396728516,-0.3140000104904174,-9.22700023651123,3.312000036239624
1622111394537,5.179999828338623,59.071998596191406,-4.866000175476074,-0.5099999904632568,-9.36400032043457,3.4079999923706055
1622111394547,6.230000019073486,66.19400024414062,0.2989999949932098,-0.7450000047683715,-9.531999588012695,3.4579999446868896
1622111394557,6.789999961853027,72.99800109863281,3.6310000419616695,-0.9409999847412108,-9.699999809265137,3.5079998970031734
1622111394567,6.230000019073486,78.7239990234375,5.422999858856201,-1.0980000495910645,-9.809000015258787,3.4489998817443848
1622111394577,4.550000190734863,83.177001953125,6.776000022888184,-1.215999960899353,-9.925000190734863,3.427999973297119
1622111394587,1.8200000524520872,87.08999633789062,6.75600004196167,-1.2940000295639038,-10.008999824523926,3.453000068664551
1622111394597,-1.8899999856948853,90.40699768066406,5.2789998054504395,-1.3339999914169312,-9.906999588012695,3.5510001182556152
1622111394607,-4.96999979019165,92.55500030517578,1.962000012397766,-1.3339999914169312,-9.861000061035156,3.5190000534057617
1622111394617,-8.470000267028809,94.37100219726562,-2.693000078201294,-1.4119999408721924,-9.791000366210936,3.571000099182129
1622111394627,-11.899999618530272,96.38600158691406,-7.669000148773193,-1.3730000257492063,-9.57699966430664,3.489000082015991
1622111394637,-14.350000381469728,98.82599639892578,-12.640999794006348,-1.3730000257492063,-9.286999702453612,3.4210000038146973
1622111394647,-16.450000762939453,101.6969985961914,-18.03499984741211,-1.3339999914169312,-8.873000144958496,3.3350000381469727
1622111394657,-17.989999771118164,104.1449966430664,-22.64900016784668,-1.2549999952316284,-8.550000190734863,3.312000036239624
1622111394667,-18.969999313354492,106.1439971923828,-25.92200088500977,-1.1770000457763672,-8.381999969482422,3.26200008392334
1622111394677,-19.809999465942383,108.10199737548828,-28.562000274658203,-1.0590000152587893,-8.322999954223633,3.1530001163482666
1622111394687,-19.739999771118164,109.6060028076172,-30.64299964904785,-0.9409999847412108,-8.154999732971191,3.1029999256134033
1622111394697,-18.690000534057617,110.85900115966795,-31.701000213623047,-0.8240000009536743,-8.057000160217285,3.000999927520752
1622111394707,-18.060001373291016,111.41650390625,-31.638500213623047,-0.6280000209808348,-7.9660000801086435,2.937000036239624
1622111394717,-17.43000030517578,111.9739990234375,-31.576000213623047,-0.5099999904632568,-7.921000003814697,2.9049999713897705
1622111394727,-14.699999809265137,112.7490005493164,-31.937000274658203,-0.4309999942779541,-7.875999927520752,2.872999906539917
1622111394737,-12.460000038146973,113.70600128173828,-32.12300109863281,-0.3919999897480011,-7.843999862670899,2.9189999103546143
1622111394747,-9.449999809265137,115.18199920654295,-31.222999572753903,-0.5099999904632568,-7.836999893188477,2.880000114440918
1622111394757,-6.019999980926514,118.51100158691406,-31.559999465942383,-0.5879999995231628,-7.921000003814697,2.9049999713897705
1622111394767,-2.869999885559082,122.50499725341795,-32.84600067138672,-0.7450000047683715,-8.050000190734863,2.961999893188477
1622111394777,-0.2800000011920929,128.31100463867188,-34.73699951171875,-0.8629999756813049,-8.244000434875488,2.927999973297119
1622111394787,1.6799999475479126,136.12100219726565,-36.70000076293945,-1.0590000152587893,-8.527999877929688,2.9570000171661377
1622111394797,2.0999999046325684,144.5590057373047,-38.198001861572266,-1.215999960899353,-8.998000144958496,2.9140000343322754
1622111394807,1.2599999904632568,153.7310028076172,-39.42399978637695,-1.4119999408721924,-9.50699996948242,2.864000082015991
1622111394817,-0.9100000262260436,165.12600708007812,-40.755001068115234,-1.72599995136261,-9.984000205993652,2.859999895095825
1622111394827,-3.359999895095825,177.93499755859375,-42.05099868774414,-2.000999927520752,-10.300000190734863,2.8440001010894775
1622111394837,-4.900000095367432,192.7400054931641,-42.56800079345703,-2.3540000915527344,-10.54599952697754,2.88100004196167
1622111394847,-4.900000095367432,209.1139984130859,-43.51900100708008,-2.746000051498413,-10.720000267028809,2.9690001010894775
1622111394857,-3.6400001049041744,225.88900756835935,-44.327999114990234,-3.0199999809265137,-10.70199966430664,3.0920000076293945
1622111394867,-2.0999999046325684,243.3179931640625,-43.60100173950195,-3.3340001106262207,-10.58199977874756,3.312000036239624
1622111394877,-1.190000057220459,262.89599609375,-41.35699844360352,-3.7269999980926514,-10.506999969482422,3.563999891281128
1622111394887,-0.4200000166893005,273.2239990234375,-40.672996520996094,-4.236000061035156,-10.491000175476074,3.9260001182556152
1622111394897,0.3499999940395355,283.552001953125,-39.98899841308594,-4.745999813079834,-10.56999969482422,4.151000022888184
1622111394907,2.380000114440918,306.9410095214844,-41.62300109863281,-5.020999908447266,-10.54800033569336,4.4730000495910645
1622111394917,3.5,330.78399658203125,-42.60699844360352,-5.059999942779541,-10.409000396728516,4.816999912261963
1622111394927,4.059999942779541,353.5249938964844,-41.369998931884766,-4.9029998779296875,-10.199999809265137,5.211999893188477
1622111394937,5.110000133514404,373.5,-38.55799865722656,-4.550000190734863,-9.892999649047852,5.505000114440918
1622111394947,6.369999885559082,389.3110046386718,-35.91299819946289,-4.11899995803833,-9.663000106811523,5.783999919891357
1622111394957,7.9099998474121085,402.1610107421875,-33.00699996948242,-3.6480000019073486,-9.36299991607666,6.116000175476074
1622111394967,9.800000190734863,411.70700073242193,-29.902000427246097,-3.0989999771118164,-8.998000144958496,6.300000190734863
1622111394977,11.619999885559082,417.0889892578125,-25.7549991607666,-2.5889999866485596,-8.70199966430664,6.432000160217285
1622111394987,13.159999847412108,419.052001953125,-21.56999969482422,-2.0399999618530273,-8.47700023651123,6.511000156402588
1622111394997,14.489999771118164,417.4429931640625,-18.086999893188477,-1.5299999713897705,-8.48900032043457,6.349999904632568
1622111395007,15.539999961853027,412.6940002441406,-16.152000427246094,-1.0980000495910645,-8.461000442504883,6.196000099182129
1622111395017,16.799999237060547,405.58599853515625,-14.135000228881836,-0.6280000209808348,-8.465999603271484,5.995999813079834
1622111395027,17.780000686645508,395.64801025390625,-12.19200038909912,0.1959999948740005,-8.718000411987305,5.39300012588501
1622111395037,17.850000381469727,383.3210144042969,-10.810999870300291,0.5879999995231628,-8.779999732971191,5.064000129699707
1622111395047,18.059999465942383,369.1159973144531,-10.472999572753906,0.8629999756813049,-8.774999618530273,4.586999893188477
1622111395057,18.024999618530273,360.8684997558594,-10.256999969482422,1.0980000495910645,-8.822999954223633,4.179999828338623
1622111395067,17.989999771118164,352.6210021972656,-10.041000366210938,1.2940000295639038,-8.940999984741211,3.7209999561309814
1622111395077,18.270000457763672,335.7799987792969,-10.878000259399414,1.4509999752044678,-9.189000129699709,3.319000005722046
1622111395087,19.18000030517578,318.39599609375,-12.663000106811523,1.6080000400543213,-9.39099979400635,2.884999990463257
1622111395097,19.600000381469727,299.4670104980469,-14.152999877929688,1.843999981880188,-9.508999824523924,2.4260001182556152
1622111395107,19.25,280.0679931640625,-14.588000297546388,2.0399999618530273,-9.58199977874756,1.934999942779541
1622111395117,18.6200008392334,259.4320068359375,-13.25100040435791,2.0789999961853027,-9.758999824523924,1.5850000381469729
1622111395127,17.780000686645508,238.86599731445312,-13.111000061035156,2.0789999961853027,-9.89099979400635,1.2029999494552612
1622111395137,16.799999237060547,218.0229949951172,-14.22700023651123,2.000999927520752,-9.998000144958496,0.906000018119812
1622111395147,15.890000343322754,198.20599365234375,-14.309000015258787,1.8830000162124632,-10.04599952697754,0.4990000128746032
1622111395157,15.329999923706056,180.177001953125,-14.857999801635742,1.687000036239624,-9.991000175476074,0.1899999976158142
1622111395167,14.350000381469728,163.06900024414065,-15.38700008392334,1.491000056266785,-9.982000350952148,-0.0869999974966049
1622111395177,13.859999656677246,147.89100646972656,-15.576000213623049,1.2940000295639038,-9.972999572753906,-0.363999992609024
1622111395187,13.369999885559082,134.5019989013672,-15.022000312805176,1.0590000152587893,-9.946000099182127,-0.5189999938011169
1622111395197,12.670000076293944,122.15499877929688,-13.93000030517578,0.7850000262260437,-9.847999572753906,-0.6209999918937683
1622111395207,11.829999923706056,112.1750030517578,-13.770000457763672,0.3919999897480011,-9.777999877929688,-0.5690000057220459
1622111395217,11.725000381469728,108.55999755859376,-14.833999633789064,-0.0390000008046627,-9.668999671936035,-0.5099999904632568
1622111395227,11.619999885559082,104.94499969482422,-15.89799976348877,-0.4309999942779541,-9.508000373840332,-0.5210000276565551
1622111395237,11.550000190734863,100.33399963378906,-18.77199935913086,-0.7850000262260437,-9.397999763488768,-0.4620000123977661
1622111395247,11.899999618530272,97.52400207519533,-20.974000930786133,-1.0980000495910645,-9.418999671936035,-0.3459999859333038
1622111395257,12.8100004196167,96.81400299072264,-22.59199905395508,-1.3730000257492063,-9.43299961090088,-0.2689999938011169
1622111395267,13.369999885559082,96.93499755859376,-24.48900032043457,-1.3339999914169312,-9.503000259399414,-0.3210000097751617
1622111395277,14.279999732971191,97.83499908447264,-25.965999603271484,-1.3339999914169312,-9.62600040435791,-0.3030000030994415
1622111395287,14.5600004196167,98.90200042724608,-26.77300071716309,-1.2940000295639038,-9.710000038146973,-0.277999997138977
1622111395297,14.5600004196167,99.91899871826172,-27.304000854492188,-1.0980000495910645,-9.779999732971191,-0.3300000131130218
1622111395307,14.699999809265137,99.90699768066406,-27.23500061035156,-0.8629999756813049,-9.786999702453612,-0.2919999957084655
1622111395317,14.770000457763672,99.37999725341795,-27.469999313354492,-0.6669999957084655,-9.748000144958496,-0.2849999964237213
1622111395327,14.699999809265137,97.79000091552734,-27.323999404907227,-0.4309999942779541,-9.826000213623049,-0.2989999949932098
1622111395337,14.840000152587892,95.59300231933594,-27.356000900268555,-0.1959999948740005,-9.83199977874756,-0.2599999904632568
1622111395347,14.350000381469728,92.5719985961914,-26.75200080871582,-0.0390000008046627,-9.871000289916992,-0.2669999897480011
1622111395357,13.4399995803833,88.91400146484375,-25.761999130249023,0.0780000016093254,-9.902999877929688,-0.3120000064373016
1622111395367,9.729999542236328,82.86000061035156,-23.274999618530273,0.1959999948740005,-9.9350004196167,-0.3580000102519989
1622111395377,8.399999618530273,81.72100067138672,-22.65850067138672,0.1570000052452087,-9.979999542236328,-0.3260000050067901
1622111395387,7.070000171661377,80.58200073242188,-22.04199981689453,0.1180000007152557,-10.071000099182127,-0.2619999945163726
1622111395397,4.059999942779541,78.71700286865236,-20.736000061035156,0.0780000016093254,-10.057000160217283,-0.3389999866485595
1622111395407,1.5399999618530271,76.91200256347656,-18.56599998474121,0.0780000016093254,-9.967000007629396,-0.402999997138977
1622111395417,-0.8399999737739563,76.06500244140625,-16.58300018310547,0.0390000008046627,-9.895999908447264,-0.3510000109672546
1622111395427,-2.7300000190734863,74.61000061035156,-13.56999969482422,0.0,-9.819000244140623,-0.3370000123977661
1622111395437,-4.130000114440918,73.32099914550781,-11.097000122070312,0.0,-9.734999656677246,-0.3619999885559082
1622111395447,-6.159999847412109,71.96700286865234,-9.060999870300291,-0.0390000008046627,-9.656999588012695,-0.3490000069141387
1622111395457,-7.8400001525878915,70.4260025024414,-6.77400016784668,-0.0390000008046627,-9.593999862670898,-0.2579999864101409
1622111395467,-9.59000015258789,69.177001953125,-4.932000160217285,-0.0780000016093254,-9.586999893188477,-0.2960000038146972
1622111395477,-10.850000381469728,68.45999908447266,-4.489999771118164,-0.1959999948740005,-9.62600040435791,-0.3030000030994415
1622111395487,-12.18000030517578,68.6500015258789,-5.168000221252441,-0.2349999994039535,-9.748000144958496,-0.2849999964237213
1622111395497,-14.140000343322754,68.38700103759766,-5.284999847412109,-0.1570000052452087,-9.819000244140623,-0.3370000123977661
1622111395507,-16.3799991607666,68.46399688720703,-4.915999889373779,-0.0780000016093254,-9.9350004196167,-0.3580000102519989
1622111395517,-18.270000457763672,67.24700164794922,-4.064000129699707,-0.0390000008046627,-9.967000007629396,-0.402999997138977
1622111395527,-18.760000228881836,66.5780029296875,-3.898000240325928,0.0780000016093254,-10.036999702453612,-0.4550000131130218
1622111395537,-19.25,65.90899658203125,-3.73200011253357,0.2750000059604644,-10.145999908447266,-0.5139999985694885
1622111395547,-18.899999618530273,64.00800323486328,-3.427000045776367,0.3919999897480011,-10.571000099182127,-0.5889999866485595
1622111395557,-18.34000015258789,61.58700180053711,-3.000999927520752,0.5099999904632568,-10.803000450134276,-0.6299999952316284
1622111395567,-18.40999984741211,59.26300048828125,-1.9179999828338623,0.7059999704360961,-10.79599952697754,-0.6690000295639038
1622111395577,-18.479999542236328,56.24300003051758,-0.1049999967217445,0.7059999704360961,-10.526000022888184,-0.6209999918937683
1622111395587,-18.899999618530273,52.994998931884766,2.5920000076293945,0.6669999957084655,-9.906999588012695,-0.512000024318695
1622111395597,-19.18000030517578,49.72700119018555,5.000999927520752,0.4709999859333038,-8.786999702453613,-0.3149999976158142
1622111395607,-17.639999389648438,46.09400177001953,7.060999870300293,0.4709999859333038,-8.45300006866455,-0.1759999990463256
1622111395617,-14.630000114440918,42.303001403808594,8.8100004196167,0.4709999859333038,-8.420999526977539,-0.1309999972581863
1622111395627,-9.520000457763674,38.96200180053711,10.423999786376951,0.5099999904632568,-8.595999717712402,-0.0419999994337558
1622111395637,-2.940000057220459,35.551998138427734,10.817999839782717,0.4709999859333038,-8.854999542236328,0.0719999969005584
1622111395647,3.359999895095825,32.02000045776367,10.692999839782717,0.3919999897480011,-9.012000083923342,0.2829999923706054
1622111395657,7.8400001525878915,29.375999450683594,10.369000434875488,0.2349999994039535,-9.218999862670898,0.3260000050067901
1622111395667,9.03000068664551,28.32749938964844,9.86400032043457,0.0780000016093254,-9.45699977874756,0.3240000009536743
1622111395677,10.220000267028809,27.27899932861328,9.359000205993652,0.0,-9.772999763488768,0.3079999983310699
1622111395687,11.0600004196167,26.066999435424805,7.368000030517577,-0.0780000016093254,-10.128000259399414,0.2849999964237213
1622111395697,11.199999809265137,25.21500015258789,4.943999767303467,-0.1180000007152557,-10.366000175476074,0.2829999923706054
1622111395707,10.56999969482422,23.89699935913086,3.1470000743865967,-0.0780000016093254,-10.597999572753906,0.2419999986886978
1622111395717,9.170000076293944,23.065000534057617,1.0110000371932983,-0.0390000008046627,-10.675000190734863,0.2290000021457672
1622111395727,7.769999980926514,21.475000381469727,-0.0520000010728836,0.0780000016093254,-10.699999809265137,0.1449999958276748
1622111395737,7.0,20.035999298095703,-1.1579999923706057,0.1180000007152557,-10.70699977874756,0.1829999983310699
1622111395747,6.159999847412109,18.016000747680664,-1.7990000247955322,0.1959999948740005,-10.475000381469728,0.2240000069141387
1622111395757,5.599999904632568,15.328000068664553,-2.2730000019073486,0.2750000059604644,-10.274999618530272,0.2199999988079071
1622111395767,5.739999771118164,13.121999740600586,-1.4539999961853027,0.2750000059604644,-10.005000114440918,0.2669999897480011
1622111395777,6.369999885559082,10.98900032043457,-1.0479999780654907,0.2750000059604644,-9.76599979400635,0.2689999938011169
1622111395787,8.260000228881836,8.956999778747559,-1.61899995803833,0.2750000059604644,-9.63199996948242,0.4129999876022338
1622111395797,9.729999542236328,7.335000038146973,-1.6920000314712524,0.1959999948740005,-9.62600040435791,0.3740000128746032
1622111395807,10.149999618530272,6.073999881744385,-2.1989998817443848,0.1570000052452087,-9.656999588012695,0.3289999961853027
1622111395817,9.835000038146973,5.625999927520752,-2.881999969482422,0.0780000016093254,-9.812000274658203,0.3009999990463256
1622111395827,9.520000457763674,5.177999973297119,-3.565000057220459,0.0,-9.902999877929688,0.3650000095367431
1622111395837,7.559999942779541,4.885000228881836,-5.535999774932861,-0.0780000016093254,-9.92099952697754,0.2419999986886978
1622111395847,4.760000228881836,4.803999900817871,-7.895999908447266,-0.0390000008046627,-9.836999893188477,0.2169999927282333
1622111395857,1.9600000381469729,5.443999767303467,-9.91499996185303,-0.0390000008046627,-9.668999671936035,0.1669999957084655
1622111395867,-0.6299999952316284,5.914999961853027,-10.970000267028809,0.0,-9.461999893188477,0.123999997973442
1622111395877,-1.4700000286102295,6.044000148773193,-11.302000045776367,0.0390000008046627,-9.293999671936035,0.0740000009536743
1622111395887,-1.9600000381469729,6.060999870300293,-11.796999931335447,0.0390000008046627,-9.04800033569336,0.0379999987781047
1622111395897,-1.8899999856948853,5.623000144958496,-11.732000350952148,0.0390000008046627,-8.925999641418457,0.0189999993890523
1622111395907,-0.7699999809265136,5.4079999923706055,-12.125,0.0,-8.803000450134277,0.0010000000474974
1622111395917,0.7699999809265136,5.723999977111816,-12.708999633789064,0.0,-8.718999862670898,-0.0240000002086162
1622111395927,3.0799999237060547,6.2270002365112305,-13.545000076293944,0.0780000016093254,-8.595999717712402,-0.0419999994337558
1622111395937,5.389999866485596,6.867000102996826,-14.355999946594238,0.0780000016093254,-8.550999641418457,-0.0740000009536743
1622111395947,8.260000228881836,7.665999889373779,-14.854000091552734,0.1180000007152557,-8.609999656677246,0.0350000001490116
1622111395957,10.989999771118164,8.281999588012695,-15.527999877929688,0.1180000007152557,-8.64900016784668,0.0280000008642673
1622111395967,12.109999656677246,8.478500366210938,-15.635499954223633,0.1959999948740005,-8.680000305175781,-0.0170000009238719
1622111395977,13.229999542236328,8.675000190734863,-15.743000030517578,0.2349999994039535,-8.732999801635742,0.0529999993741512
1622111395987,15.609999656677246,8.812999725341797,-15.718000411987305,0.2349999994039535,-8.777999877929688,0.0850000008940696
1622111395997,18.549999237060547,8.781000137329102,-15.937000274658203,0.1570000052452087,-8.78499984741211,0.123999997973442
1622111396007,21.84000015258789,9.677000045776367,-15.779000282287598,0.1570000052452087,-8.767000198364258,0.2469999939203262
1622111396017,24.780000686645508,10.909999847412108,-15.916999816894531,0.1180000007152557,-8.722999572753906,0.453000009059906
1622111396027,28.489999771118164,12.425999641418455,-15.649999618530272,0.1180000007152557,-8.65999984741211,0.5440000295639038
1622111396037,31.989999771118164,13.902999877929688,-14.75,0.1570000052452087,-8.680000305175781,0.6600000262260437
1622111396047,35.560001373291016,14.86400032043457,-14.154000282287598,0.1180000007152557,-8.63700008392334,0.8669999837875366
1622111396057,39.47999954223633,15.81700038909912,-12.706000328063965,0.1570000052452087,-8.619000434875488,0.9900000095367432
1622111396067,42.77000045776367,16.295000076293945,-10.987000465393066,0.1180000007152557,-8.800999641418457,1.1169999837875366
1622111396076,45.08000183105469,16.523000717163086,-9.45400047302246,0.1570000052452087,-8.98900032043457,1.2829999923706057
1622111396086,46.27000045776367,16.465999603271484,-8.32699966430664,0.1959999948740005,-9.12600040435791,1.378000020980835
1622111396096,47.529998779296875,16.75,-7.921999931335449,0.1959999948740005,-9.293999671936035,1.4279999732971191
1622111396106,48.86000061035156,16.920000076293945,-8.88700008392334,0.2349999994039535,-9.385000228881836,1.4919999837875366
1622111396116,50.81999969482422,16.878999710083008,-10.67099952697754,0.2750000059604644,-9.397999763488768,1.569000005722046
1622111396126,52.11499786376953,17.01300048828125,-12.033499717712402,0.3140000104904174,-9.335000038146973,1.6599999666213987
1622111396136,53.40999984741211,17.14699935913086,-13.395999908447266,0.3529999852180481,-9.25699996948242,1.6740000247955322
1622111396146,56.06999969482422,17.089000701904297,-17.101999282836914,0.2349999994039535,-9.246000289916992,1.8350000381469729
1622111396156,59.220001220703125,17.2189998626709,-19.85199928283691,0.1180000007152557,-9.336999893188477,1.89900004863739
1622111396166,62.5099983215332,17.097000122070312,-22.78700065612793,0.0780000016093254,-9.814000129699709,1.8940000534057615
1622111396176,65.7300033569336,17.65999984741211,-26.38400077819824,0.0390000008046627,-10.312000274658203,2.00600004196167
1622111396186,68.25,18.19499969482422,-29.41699981689453,-0.0390000008046627,-10.718000411987305,2.052999973297119
1622111396196,68.66999816894531,19.92200088500977,-30.74799919128418,-0.0780000016093254,-11.149999618530272,2.0169999599456787
1622111396206,67.62000274658203,22.229000091552734,-31.336000442504883,-0.0390000008046627,-11.609000205993652,2.134999990463257
1622111396216,66.22000122070312,24.163000106811523,-32.630001068115234,0.0390000008046627,-11.777000427246094,2.184999942779541
1622111396226,65.23999786376953,27.55299949645996,-33.3120002746582,0.0780000016093254,-11.71399974822998,2.2760000228881836
1622111396236,64.19000244140625,30.48900032043457,-34.641998291015625,0.1570000052452087,-11.902000427246094,2.441999912261963
1622111396246,63.84000015258789,33.05500030517578,-37.104000091552734,0.2349999994039535,-12.012999534606934,2.621999979019165
1622111396256,63.97999954223633,35.933998107910156,-38.51499938964844,0.2750000059604644,-12.041000366210938,2.7760000228881836
1622111396266,63.279998779296875,38.88600158691406,-39.13199996948242,0.3140000104904174,-11.963000297546388,2.7899999618530273
1622111396276,60.619998931884766,40.76800155639648,-38.51599884033203,0.3140000104904174,-11.725000381469728,2.7920000553131104
1622111396286,55.720001220703125,42.04899978637695,-35.30500030517578,0.2349999994039535,-11.402000427246094,2.7690000534057617
1622111396296,49.06999969482422,42.11100006103515,-29.60700035095215,0.1180000007152557,-11.008999824523926,2.799000024795532
1622111396306,45.220001220703125,41.65550231933594,-25.20949935913086,0.0,-10.447999954223633,2.7780001163482666
1622111396316,41.369998931884766,41.20000076293945,-20.812000274658203,-0.1180000007152557,-9.809000015258787,2.7709999084472656
1622111396326,33.38999938964844,38.7599983215332,-12.215000152587892,-0.1959999948740005,-9.279999732971191,2.7049999237060547
1622111396336,26.459999084472656,36.09299850463867,-5.151000022888184,-0.3919999897480011,-8.814000129699707,2.549000024795532
1622111396346,20.649999618530273,32.849998474121094,0.7459999918937683,-0.6280000209808348,-8.4350004196167,2.6549999713897705
1622111396356,16.65999984741211,29.225000381469727,6.788000106811523,-0.8240000009536743,-8.097999572753906,2.555000066757202
1622111396366,15.260000228881836,25.27199935913086,11.06700038909912,-1.0590000152587893,-7.750999927520752,2.6170001029968266
1622111396376,15.890000343322754,21.70400047302246,11.14799976348877,-1.1770000457763672,-7.388999938964843,2.6010000705718994
1622111396386,18.1299991607666,18.606000900268555,10.175000190734863,-1.3730000257492063,-7.1570000648498535,2.6410000324249268
1622111396396,21.700000762939453,16.02199935913086,8.29800033569336,-1.491000056266785,-7.171000003814697,2.7190001010894775
1622111396406,26.040000915527344,14.331000328063965,4.5879998207092285,-1.6480000019073486,-7.32100009918213,2.8910000324249268
1622111396416,31.709999084472656,12.437000274658203,-0.7919999957084655,-1.8040000200271609,-7.373000144958496,2.961999893188477
1622111396426,37.65999984741211,11.20699977874756,-7.122000217437744,-1.8830000162124632,-7.510000228881835,3.056999921798706
1622111396436,43.68000030517578,10.293999671936035,-14.03600025177002,-1.9220000505447388,-7.769000053405762,3.1710000038146973
1622111396446,48.720001220703125,9.720999717712402,-19.253999710083008,-2.0399999618530273,-8.065999984741211,3.2780001163482666
1622111396456,52.150001525878906,10.199000358581545,-22.368999481201172,-2.0789999961853027,-8.331999778747559,3.430000066757202
1622111396466,54.38999938964844,11.152000427246094,-24.54599952697754,-2.118000030517578,-8.520999908447266,3.5959999561309814
1622111396476,55.369998931884766,12.16100025177002,-25.434999465942383,-2.118000030517578,-8.638999938964844,3.813999891281128
1622111396486,55.650001525878906,13.378000259399414,-25.07799911499023,-2.118000030517578,-8.58899974822998,3.98200011253357
1622111396496,55.44000244140625,14.120000839233398,-24.449499130249023,-2.0399999618530273,-8.538999557495117,4.150000095367432
1622111396506,55.22999954223633,14.862000465393066,-23.820999145507812,-1.9609999656677248,-8.449999809265137,4.324999809265137
1622111396516,54.810001373291016,16.496999740600586,-22.608999252319336,-1.9220000505447388,-8.322999954223633,4.506999969482422
1622111396526,54.95000076293945,18.150999069213867,-21.108999252319336,-1.8830000162124632,-8.21399974822998,4.565999984741211
1622111396536,54.810001373291016,19.92300033569336,-19.871999740600582,-1.7649999856948853,-8.072999954223633,4.671000003814697
1622111396546,54.38999938964844,21.468999862670895,-18.959999084472656,-1.6480000019073486,-7.949999809265136,4.6529998779296875
1622111396556,54.599998474121094,22.968999862670895,-18.197999954223633,-1.5299999713897705,-7.873000144958496,4.665999889373779
1622111396566,54.31999969482422,24.493999481201172,-17.573999404907227,-1.4509999752044678,-7.905000209808349,4.620999813079834
1622111396576,53.83000183105469,25.56800079345703,-16.81599998474121,-1.3339999914169312,-7.949999809265136,4.6529998779296875
1622111396586,53.40999984741211,26.538000106811523,-17.070999145507812,-1.2940000295639038,-7.988999843597413,4.645999908447266
1622111396596,52.43000030517578,26.93899917602539,-18.13800048828125,-1.215999960899353,-7.98199987411499,4.60699987411499
1622111396606,50.61000061035156,27.222999572753903,-18.94099998474121,-1.1380000114440918,-7.974999904632568,4.568999767303467
1622111396616,48.58000183105469,27.052000045776367,-20.392000198364254,-1.0199999809265137,-8.006999969482422,4.5229997634887695
1622111396626,46.7599983215332,26.43899917602539,-22.562000274658203,-0.9409999847412108,-7.922999858856201,4.498000144958496
1622111396636,44.939998626708984,26.013999938964844,-23.77400016784668,-0.9020000100135804,-7.730000019073486,4.5320000648498535
1622111396646,43.119998931884766,25.26300048828125,-24.75900077819824,-0.7850000262260437,-7.645999908447266,4.506999969482422
1622111396656,41.5099983215332,24.638999938964844,-25.650999069213867,-0.7059999704360961,-7.581999778747559,4.5980000495910645
1622111396666,41.15999984741211,23.60099983215332,-25.40800094604492,-0.6669999957084655,-7.603000164031982,4.714000225067139
1622111396676,41.369998931884766,22.433000564575195,-23.62299919128418,-0.6280000209808348,-7.630000114440918,4.868000030517578
1622111396686,40.7400016784668,20.774999618530273,-22.281000137329105,-0.5879999995231628,-7.728000164031982,4.9710001945495605
1622111396696,40.25,19.177000045776367,-20.075000762939453,-0.4709999859333038,-7.863999843597413,5.065999984741211
1622111396706,40.31999969482422,16.777000427246094,-16.944000244140625,-0.4309999942779541,-8.045999526977539,5.192999839782715
1622111396716,41.02000045776367,13.739999771118164,-13.428000450134276,-0.4309999942779541,-8.343000411987305,5.300000190734863
1622111396726,41.650001525878906,10.100000381469728,-9.30799961090088,-0.4709999859333038,-8.64799976348877,5.446000099182129
1622111396736,41.474998474121094,7.961000442504883,-7.054999828338623,-0.5099999904632568,-8.984000205993652,5.546000003814697
1622111396746,41.29999923706055,5.822000026702881,-4.802000045776367,-0.4709999859333038,-9.067999839782717,5.571000099182129
1622111396756,40.31999969482422,2.253999948501587,-2.303999900817871,-0.5099999904632568,-9.166000366210936,5.672999858856201
1622111396766,37.65999984741211,-1.6460000276565552,-1.1430000066757202,-0.4709999859333038,-9.31999969482422,5.645999908447266
1622111396776,34.93000030517578,-5.478000164031982,0.0289999991655349,-0.5099999904632568,-9.475000381469728,5.61899995803833
1622111396786,32.20000076293945,-8.949000358581543,0.7680000066757202,-0.5099999904632568,-9.836000442504885,5.633999824523926
1622111396796,30.520000457763672,-11.763999938964844,0.2000000029802322,-0.5099999904632568,-10.050000190734863,5.716000080108643
1622111396806,30.309999465942383,-14.81700038909912,-0.621999979019165,-0.5879999995231628,-9.720000267028809,5.65500020980835
1622111396816,30.3799991607666,-17.28700065612793,-2.336999893188477,-0.5490000247955322,-9.713000297546388,5.616000175476074
1622111396826,31.219999313354492,-19.554000854492188,-6.006999969482422,-0.5099999904632568,-9.54800033569336,5.804999828338623
1622111396836,33.95000076293945,-21.2450008392334,-7.300000190734864,-0.5879999995231628,-8.935999870300293,5.952000141143799
1622111396846,37.869998931884766,-22.972999572753903,-8.38700008392334,-0.5879999995231628,-8.163999557495117,6.089000225067139
1622111396856,42.41999816894531,-24.60300064086914,-11.232999801635742,-0.4709999859333038,-7.366000175476073,6.309000015258789
1622111396866,46.27000045776367,-24.663999557495117,-14.512999534606934,-0.4709999859333038,-6.730000019073486,6.540999889373779
1622111396876,49.84000015258789,-23.339000701904297,-17.194000244140625,-0.4309999942779541,-6.255000114440918,6.783999919891357
1622111396886,53.7599983215332,-20.927000045776367,-21.60199928283691,-0.3529999852180481,-6.025000095367432,7.063000202178955
1622111396896,57.189998626708984,-17.018999099731445,-27.23900032043457,-0.3529999852180481,-6.118000030517578,7.364999771118165
1622111396906,59.0099983215332,-12.37600040435791,-32.604000091552734,-0.1570000052452087,-6.2179999351501465,7.705999851226807
1622111396916,57.959999084472656,-7.44600009918213,-35.573001861572266,0.0,-6.375,7.918000221252441
1622111396926,54.18000030517578,-1.5049999952316284,-35.80500030517578,0.0780000016093254,-6.525000095367432,8.09000015258789
1622111396936,49.06999969482422,4.261000156402588,-33.4379997253418,0.1570000052452087,-6.65500020980835,8.147000312805176
1622111396946,43.61000061035156,9.213000297546388,-30.07699966430664,0.2349999994039535,-6.73199987411499,8.133999824523926
1622111396956,39.130001068115234,13.458999633789064,-26.343000411987305,0.3140000104904174,-6.769999980926514,8.126999855041504
1622111396966,34.93000030517578,17.55500030517578,-22.56399917602539,0.3919999897480011,-6.724999904632568,8.095000267028809
1622111396976,31.780000686645508,21.176000595092773,-19.722000122070312,0.4309999942779541,-6.6020002365112305,8.07699966430664
1622111396986,29.190000534057617,25.00900077819824,-17.270000457763672,0.5099999904632568,-6.486000061035156,8.097000122070312
1622111396996,26.8799991607666,28.763999938964844,-15.185999870300291,0.5490000247955322,-6.310999870300293,8.008999824523926
1622111397006,26.459999084472656,31.94700050354004,-13.487000465393066,0.5879999995231628,-6.265999794006348,7.9770002365112305
1622111397016,26.739999771118164,34.404998779296875,-12.911999702453612,0.6280000209808348,-6.297999858856201,7.931000232696533
1622111397026,26.98500061035156,35.132999420166016,-12.605999946594238,0.6280000209808348,-6.329999923706055,7.886000156402587
1622111397036,27.229999542236328,35.861000061035156,-12.300000190734863,0.5879999995231628,-6.238999843597412,7.822000026702882
1622111397046,27.229999542236328,36.68399810791016,-11.727999687194824,0.5879999995231628,-6.185999870300293,7.751999855041504
1622111397056,27.510000228881836,37.19900131225586,-11.423999786376951,0.5490000247955322,-6.126999855041504,7.64300012588501
1622111397066,27.299999237060547,37.0369987487793,-11.3100004196167,0.5099999904632568,-6.03000020980835,7.539999961853027
1622111397076,26.950000762939453,36.05500030517578,-10.986000061035156,0.4309999942779541,-5.939000129699707,7.4770002365112305
1622111397086,26.670000076293945,34.93600082397461,-10.685999870300291,0.3140000104904174,-5.900000095367432,7.484000205993653
1622111397096,26.25,33.32600021362305,-10.82699966430664,0.2349999994039535,-5.770999908447266,7.427000045776368
1622111397106,25.969999313354492,31.711999893188477,-11.751999855041504,0.1570000052452087,-5.738999843597412,7.472000122070312
1622111397116,25.969999313354492,29.886999130249023,-13.494999885559082,0.0390000008046627,-5.770999908447266,7.427000045776368
1622111397126,26.040000915527344,27.899999618530273,-15.125,-0.0390000008046627,-5.763999938964844,7.388000011444091
1622111397136,25.1299991607666,25.847999572753903,-17.19300079345703,-0.1570000052452087,-5.756999969482422,7.349999904632568
1622111397146,23.940000534057617,23.83300018310547,-19.46699905395508,-0.2750000059604644,-5.756999969482422,7.349999904632568
1622111397156,22.68000030517578,22.753999710083008,-22.215999603271484,-0.3529999852180481,-5.711999893188477,7.317999839782715
1622111397166,21.13999938964844,21.97100067138672,-24.628999710083008,-0.3919999897480011,-5.5960001945495605,7.3379998207092285
1622111397176,20.09000015258789,20.944000244140625,-26.871000289916992,-0.4309999942779541,-5.557000160217285,7.344999790191651
1622111397186,19.459999084472656,20.749000549316406,-29.39299964904785,-0.4309999942779541,-5.557000160217285,7.344999790191651
1622111397196,18.690000534057617,20.871000289916992,-32.5,-0.5099999904632568,-5.525000095367432,7.389999866485595
1622111397206,18.059999465942383,21.77400016784668,-35.61000061035156,-0.5490000247955322,-5.493000030517578,7.435999870300293
1622111397216,17.149999618530273,22.917999267578125,-38.46500015258789,-0.5879999995231628,-5.506999969482422,7.513000011444091
1622111397226,16.65999984741211,24.486000061035156,-41.31600189208984,-0.5879999995231628,-5.520999908447266,7.5900001525878915
1622111397236,16.100000381469727,26.201000213623047,-43.78499984741211,-0.5490000247955322,-5.502999782562256,7.7129998207092285
1622111397246,15.470000267028809,28.06599998474121,-46.29999923706055,-0.5490000247955322,-5.5229997634887695,7.828999996185303
1622111397256,14.699999809265137,29.902999877929688,-49.45899963378906,-0.5490000247955322,-5.505000114440918,7.952000141143799
1622111397266,13.510000228881836,32.48500061035156,-52.415000915527344,-0.5099999904632568,-5.447999954223633,8.081000328063965
1622111397276,12.31999969482422,35.29899978637695,-55.472999572753906,-0.4709999859333038,-5.474999904632568,8.236000061035156
1622111397286,11.970000267028809,38.18199920654297,-58.51900100708008,-0.4309999942779541,-5.501999855041504,8.390000343322754
1622111397296,11.619999885559082,41.46599960327149,-61.42300033569336,-0.3919999897480011,-5.613999843597412,8.569999694824219
1622111397306,11.0600004196167,45.04600143432618,-63.9900016784668,-0.3919999897480011,-5.7769999504089355,8.819999694824219
1622111397316,10.010000228881836,48.76399993896485,-66.53299713134766,-0.3140000104904174,-5.959000110626221,8.946999549865723
1622111397326,7.980000019073486,52.599998474121094,-68.13099670410156,-0.3140000104904174,-6.3480000495910645,9.116999626159668
1622111397336,6.230000019073486,54.44499969482422,-69.12100219726562,-0.2750000059604644,-6.709000110626221,9.133000373840332
1622111397346,4.480000019073486,56.290000915527344,-70.11100006103516,-0.3140000104904174,-6.86299991607666,9.105999946594238
1622111397356,-0.1400000005960464,60.368999481201165,-71.87899780273438,-0.2349999994039535,-7.081999778747559,8.98799991607666
1622111397366,-5.880000114440918,64.6989974975586,-73.46099853515625,-0.1959999948740005,-7.158999919891357,8.973999977111816
1622111397376,-11.479999542236328,68.14600372314453,-74.06199645996094,-0.2349999994039535,-7.223000049591064,8.883999824523926
1622111397386,-16.65999984741211,72.06700134277344,-74.93399810791016,-0.2750000059604644,-7.163000106811523,8.77400016784668
1622111397396,-20.719999313354492,75.63899993896484,-76.6500015258789,-0.2750000059604644,-7.104000091552734,8.664999961853027
1622111397406,-22.329999923706055,79.44300079345702,-77.25900268554688,-0.3529999852180481,-7.1539998054504395,8.496999740600586
1622111397416,-22.1200008392334,83.34700012207033,-78.84500122070312,-0.4309999942779541,-7.081999778747559,8.310999870300293
1622111397426,-21.489999771118164,87.10199737548828,-81.59400177001953,-0.3919999897480011,-6.964000225067139,8.093000411987305
1622111397436,-20.09000015258789,90.8769989013672,-84.05599975585938,-0.4309999942779541,-6.9679999351501465,7.89300012588501
1622111397446,-20.09000015258789,95.63700103759764,-84.85199737548828,-0.4709999859333038,-6.677000045776367,7.824999809265136
1622111397456,-20.649999618530273,99.59500122070312,-83.51399993896484,-0.4309999942779541,-6.25,7.66099977493286
1622111397466,-19.739999771118164,102.02899932861328,-80.38400268554688,-0.3919999897480011,-5.921000003814697,7.599999904632568
1622111397476,-19.18000030517578,102.15899658203124,-73.46600341796875,-0.3919999897480011,-5.6620001792907715,7.486000061035157
1622111397486,-17.56999969482422,100.75700378417967,-65.11299896240234,-0.4709999859333038,-5.564000129699707,7.383999824523927
1622111397496,-15.399999618530272,98.16799926757812,-56.47100067138672,-0.6280000209808348,-5.603000164031982,7.376999855041504
1622111397506,-12.670000076293944,94.91699981689452,-48.51499938964844,-0.8240000009536743,-5.65500020980835,7.447000026702882
1622111397516,-8.75,90.69200134277344,-41.08599853515625,-1.0199999809265137,-5.745999813079834,7.511000156402587
1622111397526,-5.670000076293945,85.83100128173828,-34.479000091552734,-1.2940000295639038,-5.765999794006348,7.626999855041504
1622111397536,-3.5,80.41899871826172,-29.179000854492188,-1.491000056266785,-5.611999988555908,7.65399980545044
1622111397546,-1.3300000429153442,74.98899841308594,-25.799999237060547,-1.8040000200271609,-5.540999889373779,7.705999851226807
1622111397556,0.0,70.34700012207031,-25.26799964904785,-2.0789999961853027,-5.4710001945495605,7.758999824523927
1622111397566,0.9800000190734864,65.572998046875,-28.02899932861328,-2.2750000953674316,-5.439000129699707,7.80399990081787
1622111397576,1.2599999904632568,62.755001068115234,-33.00400161743164,-2.431999921798706,-5.4070000648498535,7.848999977111816
1622111397586,1.5399999618530271,60.35300064086914,-38.332000732421875,-2.549999952316284,-5.341000080108643,7.702000141143799
1622111397596,1.5399999618530271,58.98199844360352,-44.2599983215332,-2.6670000553131104,-5.289000034332275,7.631000041961671
1622111397606,0.9800000190734864,57.61800003051758,-51.040000915527344,-2.9030001163482666,-5.377999782562256,7.455999851226807
1622111397616,0.1750000119209289,57.50199890136719,-54.010498046875,-2.9809999465942383,-5.578000068664551,7.460999965667725
1622111397626,-0.6299999952316284,57.38600158691406,-56.98099899291992,-3.138000011444092,-5.855000019073486,7.452000141143799
1622111397636,-2.5199999809265137,58.68299865722656,-61.51399993896485,-3.3340001106262207,-6.10699987411499,7.526999950408936
1622111397646,-4.269999980926514,60.75899887084961,-66.83499908447266,-3.4519999027252197,-6.243000030517578,7.622000217437744
1622111397656,-6.300000190734863,63.19499969482422,-71.38099670410156,-3.490999937057495,-6.296000003814697,7.692999839782715
1622111397666,-8.75,65.9520034790039,-74.5199966430664,-3.5299999713897705,-6.256999969482422,7.699999809265136
1622111397675,-11.199999809265137,69.36199951171875,-76.12200164794922,-3.5299999713897705,-6.210999965667725,7.668000221252441
1622111397686,-13.369999885559082,73.08899688720702,-77.0999984741211,-3.490999937057495,-6.050000190734863,7.656000137329101
1622111397696,-14.840000152587892,76.97699737548828,-76.98300170898438,-3.490999937057495,-6.081999778747559,7.611000061035157
1622111397706,-16.239999771118164,81.58399963378906,-76.0989990234375,-3.490999937057495,-6.10699987411499,7.526999950408936
1622111397715,-16.940000534057617,86.1500015258789,-74.58300018310547,-3.4519999027252197,-6.131999969482422,7.442999839782715
1622111397725,-17.43000030517578,90.5540008544922,-72.9540023803711,-3.3340001106262207,-6.086999893188477,7.41099977493286
1622111397735,-17.850000381469727,93.83899688720705,-71.02400207519531,-3.177000045776367,-5.995999813079834,7.347000122070312
1622111397745,-17.43000030517578,96.20700073242188,-68.33200073242188,-2.941999912261963,-5.974999904632568,7.230999946594238
1622111397755,-17.079999923706055,98.09700012207033,-64.94200134277344,-2.746000051498413,-6.039000034332275,7.140999794006348
1622111397765,-16.940000534057617,98.9739990234375,-61.446998596191406,-2.628000020980835,-6.103000164031982,7.050000190734863
1622111397775,-17.43000030517578,98.63400268554688,-58.30799865722656,-2.549999952316284,-6.211999893188477,6.991000175476074
1622111397785,-18.479999542236328,97.91600036621092,-55.44900131225586,-2.431999921798706,-6.275000095367432,6.900000095367432
1622111397795,-19.459999084472656,96.92299652099608,-52.63899993896485,-2.3540000915527344,-6.339000225067139,6.809000015258789
1622111397805,-20.3700008392334,95.56500244140624,-50.178001403808594,-2.3540000915527344,-6.4029998779296875,6.7179999351501465
1622111397815,-20.86000061035156,94.33699798583984,-48.04899978637695,-2.3540000915527344,-6.427999973297119,6.633999824523926
1622111397825,-21.280000686645508,92.76000213623048,-45.55500030517578,-2.3929998874664307,-6.459000110626221,6.5879998207092285
1622111397835,-20.93000030517578,90.9800033569336,-43.52299880981445,-2.4709999561309814,-6.484000205993652,6.504000186920166
1622111397845,-20.440000534057617,88.41300201416016,-41.06100082397461,-2.510999917984009,-6.495999813079834,6.3429999351501465
1622111397855,-20.09000015258789,84.85800170898438,-37.42300033569336,-2.549999952316284,-6.5,6.14300012588501
1622111397865,-19.38999938964844,80.73400115966797,-33.38800048828125,-2.549999952316284,-6.571000099182129,6.091000080108643
1622111397875,-18.61999893188477,78.54249572753906,-31.642000198364254,-2.6670000553131104,-6.633999824523926,6.0
1622111397885,-17.850000381469727,76.35099792480469,-29.895999908447266,-2.7850000858306885,-6.665999889373779,5.953999996185303
1622111397895,-16.520000457763672,72.3489990234375,-27.757999420166016,-2.9030001163482666,-6.936999797821045,5.9070000648498535
1622111397905,-14.840000152587892,68.00700378417969,-26.10700035095215,-3.0199999809265137,-7.182000160217285,5.942999839782715
1622111397915,-13.789999961853027,64.23200225830078,-24.854000091552734,-3.138000011444092,-7.491000175476073,5.888999938964844
1622111397925,-14.630000114440918,60.38399887084961,-24.395000457763672,-3.0989999771118164,-7.883999824523927,5.859000205993652
1622111397935,-17.709999084472656,56.19100189208984,-23.996999740600582,-3.0199999809265137,-8.270000457763672,5.790999889373779
1622111397945,-21.6299991607666,51.26800155639648,-23.08799934387207,-2.941999912261963,-8.52299976348877,5.866000175476074
1622111397955,-25.899999618530273,45.68399810791016,-22.86400032043457,-2.941999912261963,-8.684000015258789,5.876999855041504
1622111397965,-29.68000030517578,39.50400161743164,-25.30500030517578,-2.941999912261963,-8.814000129699707,5.934000015258789
1622111397975,-33.040000915527344,33.75400161743164,-29.375,-2.9030001163482666,-8.833999633789062,6.050000190734863
1622111397985,-36.75,28.871000289916992,-33.93199920654297,-2.9030001163482666,-8.756999969482422,6.064000129699707
1622111397995,-40.599998474121094,24.24799919128418,-37.94599914550781,-2.7070000171661377,-8.652000427246094,5.922999858856201
1622111398005,-44.16999816894531,19.714000701904297,-41.65999984741211,-2.510999917984009,-8.638999938964844,5.8460001945495605
1622111398015,-47.459999084472656,14.689000129699709,-44.60699844360352,-2.2750000953674316,-8.54800033569336,5.7820000648498535
1622111398025,-50.470001220703125,9.692999839782717,-45.70100021362305,-2.0789999961853027,-8.442999839782715,5.640999794006348
1622111398035,-53.130001068115234,4.145999908447266,-45.68399810791016,-1.8830000162124632,-8.300000190734863,5.506999969482422
1622111398045,-54.880001068115234,-1.1169999837875366,-45.262001037597656,-1.6480000019073486,-8.175000190734863,5.25
1622111398055,-56.279998779296875,-6.238999843597412,-44.03200149536133,-1.4119999408721924,-8.071000099182129,5.109000205993652
1622111398065,-56.4900016784668,-11.019000053405762,-42.31600189208984,-1.215999960899353,-8.036999702453613,4.915999889373779
1622111398075,-56.97999954223633,-15.616999626159668,-40.42599868774414,-1.0199999809265137,-8.118000030517578,4.703000068664551
1622111398085,-56.90999984741211,-20.393999099731445,-37.928001403808594,-0.9020000100135804,-8.053000450134277,4.554999828338623
1622111398095,-56.62999725341797,-22.847000122070312,-36.512001037597656,-0.7059999704360961,-8.071000099182129,4.432000160217285
1622111398105,-56.349998474121094,-25.299999237060547,-35.09600067138672,-0.6280000209808348,-8.133999824523926,4.341000080108643
1622111398115,-55.650001525878906,-30.36000061035156,-31.795000076293945,-0.6280000209808348,-8.237000465393066,4.24399995803833
1622111398125,-55.15999984741211,-34.374000549316406,-29.589000701904297,-0.7059999704360961,-8.279999732971191,4.0370001792907715
1622111398135,-55.86000061035156,-37.02199935913086,-28.277999877929688,-0.6280000209808348,-8.381999969482422,3.938999891281128
1622111398145,-57.61000061035156,-39.551998138427734,-26.02300071716309,-0.6669999957084655,-8.381999969482422,3.938999891281128
1622111398155,-58.72999954223633,-40.95500183105469,-23.711999893188477,-0.7850000262260437,-8.227999687194824,3.9660000801086426
1622111398165,-59.290000915527344,-41.849998474121094,-21.45299911499023,-0.9020000100135804,-8.041000366210938,4.039000034332275
1622111398175,-59.0099983215332,-42.084999084472656,-19.718000411987305,-0.981000006198883,-7.887000083923339,4.065999984741211
1622111398185,-58.310001373291016,-41.64699935913086,-18.573999404907227,-1.1380000114440918,-7.693999767303467,4.099999904632568
1622111398195,-56.97999954223633,-40.04100036621094,-18.006999969482422,-1.215999960899353,-7.616000175476073,4.113999843597412
1622111398205,-54.11000061035156,-38.33000183105469,-17.634000778198242,-1.215999960899353,-7.57100009918213,4.081999778747559
1622111398215,-49.630001068115234,-36.05500030517578,-17.232999801635742,-1.215999960899353,-7.578000068664551,4.120999813079834
1622111398225,-44.380001068115234,-33.88199996948242,-17.062999725341797,-1.2549999952316284,-7.616000175476073,4.113999843597412
1622111398235,-38.709999084472656,-31.97599983215332,-16.584999084472656,-1.215999960899353,-7.655000209808349,4.10699987411499
1622111398245,-33.25,-30.000999450683594,-14.88599967956543,-1.1380000114440918,-7.790999889373779,4.203000068664551
1622111398255,-28.84000015258789,-28.483999252319336,-13.409999847412108,-1.0980000495910645,-8.029999732971191,4.199999809265137
1622111398265,-25.829999923706055,-27.27199935913086,-12.626999855041504,-1.0199999809265137,-8.267999649047852,4.197999954223633
1622111398275,-23.170000076293945,-26.700000762939453,-12.241999626159668,-0.9020000100135804,-8.482000350952148,4.28000020980835
1622111398285,-20.790000915527344,-25.770999908447266,-11.864999771118164,-0.8629999756813049,-8.597999572753906,4.260000228881836
1622111398295,-19.040000915527344,-24.76099967956543,-11.545000076293944,-0.8240000009536743,-8.765999794006348,4.309999942779541
1622111398305,-18.200000762939453,-23.875,-11.531000137329102,-0.7850000262260437,-8.857000350952148,4.373000144958496
1622111398315,-17.360000610351562,-22.98900032043457,-11.517000198364258,-0.7850000262260437,-8.857000350952148,4.373000144958496
1622111398325,-16.65999984741211,-21.80500030517578,-11.378999710083008,-0.7450000047683715,-8.857000350952148,4.373000144958496
1622111398335,-15.75,-20.09000015258789,-11.432000160217283,-0.7450000047683715,-8.741000175476074,4.394000053405762
1622111398345,-14.630000114440918,-18.232999801635746,-11.88700008392334,-0.8240000009536743,-8.663999557495117,4.4070000648498535
1622111398355,-14.489999771118164,-16.52199935913086,-12.722000122070312,-0.8240000009536743,-8.649999618530273,4.329999923706055
1622111398365,-14.279999732971191,-14.831000328063965,-13.845999717712402,-0.7850000262260437,-8.597999572753906,4.260000228881836
1622111398375,-15.399999618530272,-13.36299991607666,-15.718999862670898,-0.7450000047683715,-8.63700008392334,4.252999782562256
1622111398385,-16.65999984741211,-11.708999633789064,-17.8439998626709,-0.7059999704360961,-8.616000175476074,4.13700008392334
1622111398395,-18.200000762939453,-10.512999534606934,-20.191999435424805,-0.6669999957084655,-8.64799976348877,4.091000080108643
1622111398405,-20.229999542236328,-9.390000343322754,-22.12700080871582,-0.5490000247955322,-8.633999824523926,4.013999938964844
1622111398415,-21.209999084472656,-8.652999877929688,-24.697999954223633,-0.4309999942779541,-8.831999778747559,3.7799999713897705
1622111398425,-22.260000228881836,-8.449999809265137,-26.652000427246097,-0.3919999897480011,-8.831999778747559,3.7799999713897705
1622111398435,-22.81999969482422,-8.442000389099121,-28.711999893188477,-0.2750000059604644,-8.675000190734863,3.569000005722046
1622111398445,-22.190000534057617,-8.10200023651123,-29.43400001525879,-0.1570000052452087,-8.970999717712402,3.437000036239624
1622111398455,-21.280000686645508,-8.017000198364258,-29.91699981689453,-0.0780000016093254,-9.220999717712402,3.2730000019073486
1622111398465,-21.13999938964844,-7.067999839782715,-31.667999267578125,-0.0780000016093254,-9.392999649047852,3.122999906539917
1622111398475,-21.90999984741211,-5.798999786376953,-32.01300048828125,0.0,-9.387000083923342,3.0850000381469727
1622111398485,-24.219999313354492,-4.043000221252441,-30.281999588012695,0.0780000016093254,-9.48900032043457,2.986999988555908
1622111398495,-25.165000915527344,-3.627000093460083,-29.2135009765625,0.1180000007152557,-9.630000114440918,2.8829998970031734
1622111398505,-26.11000061035156,-3.2109999656677246,-28.145000457763672,0.1959999948740005,-9.777000427246092,2.816999912261963
1622111398515,-27.86000061035156,-2.8420000076293945,-27.013999938964844,0.3529999852180481,-9.93000030517578,2.5510001182556152
1622111398525,-29.399999618530273,-3.0199999809265137,-23.98900032043457,0.3529999852180481,-9.909000396728516,2.434999942779541
1622111398535,-30.520000457763672,-3.0480000972747803,-19.799999237060547,0.3140000104904174,-9.86400032043457,2.4030001163482666
1622111398545,-30.940000534057617,-3.6640000343322754,-16.709999084472656,0.3140000104904174,-9.784000396728516,2.177999973297119
1622111398555,-31.010000228881836,-4.552000045776367,-14.095000267028809,0.2750000059604644,-9.777999877929688,2.140000104904175
1622111398565,-30.59000015258789,-5.821000099182129,-12.541000366210938,0.1570000052452087,-9.75699996948242,2.0239999294281006
1622111398575,-29.540000915527344,-6.849999904632568,-10.732999801635742,0.1180000007152557,-9.711999893188477,1.9919999837875368
1622111398585,-28.209999084472656,-7.620999813079834,-9.58899974822998,0.1180000007152557,-9.621000289916992,1.9279999732971191
1622111398595,-26.8799991607666,-8.791999816894531,-8.586999893188477,0.0390000008046627,-9.498000144958496,1.9099999666213987
1622111398605,-26.11000061035156,-9.404999732971191,-8.34000015258789,0.0,-9.369000434875488,1.8530000448226929
1622111398615,-25.200000762939453,-10.232000350952148,-8.486000061035156,-0.0390000008046627,-9.263999938964846,1.712000012397766
1622111398625,-24.780000686645508,-10.840000152587892,-8.663999557495117,-0.0780000016093254,-9.14099979400635,1.694000005722046
1622111398635,-24.5,-10.779000282287598,-9.008999824523924,-0.0780000016093254,-9.08899974822998,1.6239999532699585
1622111398645,-24.43000030517578,-10.685999870300291,-9.133999824523924,-0.1180000007152557,-8.972999572753906,1.6440000534057615
1622111398655,-23.65999984741211,-10.901000022888184,-9.527999877929688,-0.0390000008046627,-8.857000350952148,1.6649999618530271
1622111398665,-22.959999084472656,-11.034999847412108,-8.769000053405762,-0.0780000016093254,-8.77299976348877,1.6399999856948853
1622111398675,-22.645000457763672,-11.452499389648438,-8.416500091552734,-0.0390000008046627,-8.741000175476074,1.684999942779541
1622111398685,-22.329999923706055,-11.869999885559082,-8.064000129699707,-0.0780000016093254,-8.779999732971191,1.6779999732971191
1622111398695,-21.90999984741211,-12.758000373840332,-6.6570000648498535,0.0,-8.90999984741211,1.7350000143051147
1622111398705,-21.06999969482422,-13.800000190734863,-5.986999988555908,0.0,-9.116000175476074,1.7779999971389773
1622111398715,-20.649999618530273,-15.394000053405762,-5.414999961853027,-0.0780000016093254,-9.369000434875488,1.8530000448226929
1622111398725,-20.93000030517578,-16.56100082397461,-4.839000225067139,-0.1180000007152557,-9.58199977874756,1.934999942779541
1622111398735,-21.489999771118164,-17.238000869750977,-5.03000020980835,-0.1570000052452087,-9.75,1.9850000143051147
1622111398745,-22.68000030517578,-17.39299964904785,-5.76800012588501,-0.2349999994039535,-9.96399974822998,2.066999912261963
1622111398755,-24.010000228881836,-16.85300064086914,-6.809999942779541,-0.2750000059604644,-10.086999893188477,2.0850000381469727
1622111398765,-25.829999923706055,-15.402000427246094,-8.189000129699707,-0.3140000104904174,-10.163999557495115,2.072000026702881
1622111398775,-26.950000762939453,-13.402999877929688,-9.045000076293944,-0.3529999852180481,-10.163999557495115,2.072000026702881
1622111398785,-28.13999938964844,-11.26200008392334,-10.302000045776367,-0.3529999852180481,-10.034000396728516,2.015000104904175
1622111398795,-28.90999984741211,-9.157999992370604,-10.144000053405762,-0.3919999897480011,-9.975000381469728,1.906000018119812
1622111398805,-29.260000228881836,-7.556000232696533,-9.151000022888184,-0.3919999897480011,-9.883999824523924,1.8420000076293943
1622111398815,-29.469999313354492,-6.443999767303467,-7.390999794006347,-0.3529999852180481,-9.786999702453612,1.7400000095367432
1622111398825,-29.540000915527344,-4.7779998779296875,-5.960000038146973,-0.3529999852180481,-9.734000205993652,1.6690000295639038
1622111398835,-29.190000534057617,-3.318000078201294,-4.565000057220459,-0.3140000104904174,-9.727999687194824,1.63100004196167
1622111398845,-28.90999984741211,-2.809000015258789,-4.226500034332275,-0.3529999852180481,-9.668999671936035,1.5219999551773071
1622111398855,-28.6299991607666,-2.299999952316284,-3.888000011444092,-0.2750000059604644,-9.531999588012695,1.4259999990463257
1622111398865,-27.440000534057617,-1.3309999704360962,-4.144000053405762,-0.2750000059604644,-9.447999954223633,1.4010000228881836
1622111398875,-26.31999969482422,-0.9089999794960022,-3.71399998664856,-0.1959999948740005,-9.440999984741213,1.3619999885559082
1622111398885,-25.34000015258789,-0.9449999928474426,-3.506999969482422,-0.1570000052452087,-9.472999572753906,1.3170000314712524
1622111398895,-24.780000686645508,-0.8399999737739563,-3.70199990272522,-0.1180000007152557,-9.505000114440918,1.2719999551773071
1622111398905,-24.010000228881836,-0.9940000176429749,-4.440000057220459,-0.1180000007152557,-9.498000144958496,1.2330000400543213
1622111398915,-23.520000457763672,-1.0269999504089355,-4.658999919891357,-0.0780000016093254,-9.45300006866455,1.2009999752044678
1622111398925,-22.469999313354492,-1.3789999485015867,-5.077000141143799,-0.0390000008046627,-9.369000434875488,1.1759999990463257
1622111398935,-21.420000076293945,-2.065000057220459,-5.624000072479248,0.0,-9.291000366210936,1.190000057220459
1622111398945,-20.86000061035156,-2.6610000133514404,-5.870999813079834,0.0,-9.329999923706056,1.1829999685287476
1622111398955,-20.229999542236328,-3.723000049591065,-5.489999771118164,-0.0390000008046627,-9.322999954223633,1.1440000534057615
1622111398965,-19.809999465942383,-4.392000198364258,-5.323999881744385,0.0,-9.369000434875488,1.1759999990463257
1622111398975,-19.25,-5.288000106811523,-5.48199987411499,0.0,-9.369000434875488,1.1759999990463257
1622111398985,-18.549999237060547,-6.127999782562256,-5.559000015258789,-0.0390000008046627,-9.413999557495115,1.2079999446868896
1622111398995,-17.56999969482422,-7.060999870300293,-5.510000228881836,-0.0390000008046627,-9.375,1.2150000333786013
1622111399005,-16.65999984741211,-7.872000217437744,-6.150000095367432,-0.0390000008046627,-9.369000434875488,1.1759999990463257
1622111399015,-16.029998779296875,-8.084500312805176,-6.1519999504089355,-0.0780000016093254,-9.406999588012695,1.1690000295639038
1622111399025,-15.399999618530272,-8.29699993133545,-6.1539998054504395,-0.0780000016093254,-9.446000099182127,1.1619999408721924
1622111399035,-14.0,-8.687000274658203,-6.364999771118164,-0.0780000016093254,-9.55500030517578,1.1030000448226929
1622111399045,-13.4399995803833,-8.763999938964844,-6.734000205993652,-0.0780000016093254,-9.70300006866455,1.037999987602234
1622111399055,-13.300000190734863,-8.817000389099121,-7.241000175476073,-0.0390000008046627,-9.779999732971191,1.02400004863739
1622111399065,-13.579999923706056,-8.817000389099121,-7.241000175476073,-0.0390000008046627,-9.850000381469728,0.9720000028610228
1622111399075,-13.93000030517578,-9.234000205993652,-6.888000011444092,-0.0390000008046627,-9.875,0.8880000114440918
1622111399085,-14.5600004196167,-9.440999984741213,-6.925000190734863,-0.0390000008046627,-9.888999938964846,0.9649999737739564
1622111399095,-14.840000152587892,-9.336000442504885,-7.11899995803833,0.0390000008046627,-9.850000381469728,0.9720000028610228
1622111399105,-15.119999885559082,-8.99899959564209,-7.414999961853027,0.0,-9.79800033569336,0.9010000228881836
1622111399115,-14.489999771118164,-8.795999526977539,-6.953000068664551,0.0,-9.70699977874756,0.8379999995231628
1622111399125,-13.789999961853027,-8.967000007629395,-7.196000099182129,0.0780000016093254,-9.661999702453612,0.8059999942779541
1622111399135,-13.090000152587892,-9.258000373840332,-6.75,0.1570000052452087,-9.668999671936035,0.8439999818801879
1622111399145,-12.390000343322754,-9.887000083923342,-6.007999897003174,0.2750000059604644,-9.661999702453612,0.8059999942779541
1622111399155,-11.6899995803833,-11.435999870300291,-5.285999774932861,0.2750000059604644,-9.661999702453612,0.8059999942779541
1622111399165,-11.340000152587892,-13.427000045776367,-4.072999954223633,0.3529999852180481,-9.616000175476074,0.7739999890327453
1622111399175,-10.920000076293944,-15.482000350952148,-3.299000024795532,0.4309999942779541,-9.602999687194824,0.6970000267028807
1622111399185,-10.744999885559082,-16.467498779296875,-3.15250015258789,0.4309999942779541,-9.557000160217283,0.6650000214576721
1622111399195,-10.56999969482422,-17.452999114990234,-3.00600004196167,0.3919999897480011,-9.595999717712402,0.6579999923706054
1622111399205,-10.010000228881836,-19.47699928283691,-3.2209999561309814,0.4309999942779541,-9.602999687194824,0.6970000267028807
1622111399215,-9.800000190734863,-21.31800079345703,-3.260999917984009,0.3919999897480011,-9.595999717712402,0.6579999923706054
1622111399225,-9.869999885559082,-23.68199920654297,-3.961999893188477,0.3529999852180481,-9.609999656677246,0.7350000143051147
1622111399235,-9.800000190734863,-25.98500061035156,-5.007999897003174,0.3140000104904174,-9.557000160217283,0.6650000214576721
1622111399245,-9.380000114440918,-27.886999130249023,-5.9120001792907715,0.1959999948740005,-9.628000259399414,0.6129999756813049
1622111399255,-8.539999961853027,-29.777000427246097,-6.885000228881836,0.0,-9.68000030517578,0.6830000281333923
1622111399265,-7.769999980926514,-31.350000381469727,-7.234000205993653,-0.1570000052452087,-9.711999893188477,0.6380000114440918
1622111399275,-8.399999618530273,-31.87700080871582,-7.468999862670899,-0.3140000104904174,-9.666000366210936,0.606000006198883
1622111399285,-8.680000305175781,-30.96500015258789,-7.806000232696533,-0.4309999942779541,-9.635000228881836,0.6510000228881835
1622111399295,-8.539999961853027,-28.565000534057617,-8.520000457763672,-0.6280000209808348,-9.635000228881836,0.6510000228881835
1622111399305,-8.1899995803833,-24.777000427246097,-8.633999824523926,-0.6669999957084655,-9.550999641418455,0.6259999871253967
1622111399314,-7.630000114440918,-20.94499969482422,-8.597999572753906,-0.7059999704360961,-9.58899974822998,0.6190000176429749
1622111399324,-6.579999923706055,-16.865999221801758,-7.948999881744384,-0.7059999704360961,-9.58199977874756,0.5809999704360961
1622111399334,-5.599999904632568,-12.696999549865724,-7.000999927520752,-0.6669999957084655,-9.65999984741211,0.5669999718666076
1622111399344,-5.039999961853027,-8.666000366210938,-6.077000141143799,-0.6669999957084655,-9.737000465393066,0.5540000200271606
1622111399354,-4.760000228881836,-6.813000202178955,-5.501500129699707,-0.5879999995231628,-9.821000099182127,0.5789999961853027
1622111399364,-4.480000019073486,-4.960000038146973,-4.926000118255615,-0.5099999904632568,-9.835000038146973,0.656000018119812
1622111399374,-3.849999904632568,-1.593999981880188,-4.26200008392334,-0.4709999859333038,-9.866000175476074,0.6100000143051147
1622111399384,-3.9200000762939458,0.955999970436096,-3.812000036239624,-0.3919999897480011,-9.821000099182127,0.5789999961853027
1622111399394,-3.990000009536743,3.234999895095825,-3.8359999656677246,-0.3529999852180481,-9.807000160217283,0.5009999871253967
1622111399404,-4.199999809265137,5.448999881744385,-4.298999786376953,-0.2750000059604644,-9.807000160217283,0.5009999871253967
1622111399414,-4.96999979019165,6.840000152587891,-5.333000183105469,-0.2750000059604644,-9.793999671936035,0.4239999949932098
1622111399424,-4.829999923706055,8.25100040435791,-6.079999923706055,-0.1570000052452087,-9.83899974822998,0.4560000002384185
1622111399434,-4.900000095367432,9.111000061035156,-6.922999858856201,-0.1570000052452087,-9.83899974822998,0.4560000002384185
1622111399444,-5.320000171661377,9.72700023651123,-7.59600019454956,-0.1180000007152557,-9.871000289916992,0.4099999964237213
1622111399454,-5.949999809265137,10.343000411987305,-7.060999870300293,-0.0780000016093254,-9.916000366210936,0.44200000166893
1622111399464,-6.440000057220459,9.892999649047852,-6.927000045776367,0.0,-9.885000228881836,0.4880000054836273
1622111399474,-6.789999961853027,9.48799991607666,-6.64300012588501,0.0,-9.878000259399414,0.4490000009536743
1622111399484,-6.860000133514404,9.418999671936035,-6.656000137329102,0.0390000008046627,-9.83899974822998,0.4560000002384185
1622111399494,-7.139999866485596,8.713000297546387,-6.2820000648498535,0.0390000008046627,-9.878000259399414,0.4490000009536743
1622111399504,-7.699999809265136,7.9099998474121085,-6.565999984741211,0.0780000016093254,-9.845999717712402,0.4939999878406524
1622111399514,-8.260000228881836,6.747000217437744,-6.415999889373779,0.0780000016093254,-9.83199977874756,0.4169999957084655
1622111399524,-8.434999465942383,6.3495001792907715,-6.379499912261963,0.1180000007152557,-9.871000289916992,0.4099999964237213
1622111399534,-8.609999656677246,5.952000141143799,-6.3429999351501465,0.0780000016093254,-9.826000213623049,0.3790000081062316
1622111399544,-9.100000381469728,5.177000045776367,-5.98199987411499,0.1180000007152557,-9.779999732971191,0.3470000028610229
1622111399554,-9.239999771118164,4.974999904632568,-5.236000061035156,0.1180000007152557,-9.772999763488768,0.3079999983310699
1622111399564,-9.59000015258789,3.8190000057220455,-4.729000091552734,0.0780000016093254,-9.812000274658203,0.3009999990463256
1622111399574,-9.449999809265137,2.7200000286102295,-4.140999794006348,0.0780000016093254,-9.928000450134276,0.2809999883174896
1622111399584,-10.149999618530272,2.015000104904175,-3.7669999599456783,0.0390000008046627,-9.92099952697754,0.2419999986886978
1622111399594,-11.550000190734863,1.4270000457763672,-3.6579999923706055,0.0390000008046627,-9.92099952697754,0.2419999986886978
1622111399604,-12.390000343322754,0.8059999942779541,-3.7669999599456783,0.0,-9.913999557495115,0.2039999961853027
1622111399614,-13.300000190734863,0.4620000123977661,-3.8280000686645503,0.0,-9.87600040435791,0.209999993443489
1622111399624,-13.4399995803833,0.0560000017285346,-3.5439999103546143,-0.0390000008046627,-9.746000289916992,0.1539999991655349
1622111399634,-13.510000228881836,-0.4510000050067901,-3.490999937057495,0.0,-9.71399974822998,0.1990000009536743
1622111399644,-13.159999847412108,-0.9330000281333924,-3.575999975204468,0.0,-9.701000213623049,0.1220000013709068
1622111399654,-12.670000076293944,-1.5329999923706057,-3.3980000019073486,0.0,-9.763999938964846,0.0309999994933605
1622111399664,-12.739999771118164,-2.190000057220459,-3.299999952316284,-0.0390000008046627,-9.803000450134276,0.0240000002086162
1622111399674,-12.880000114440918,-2.243000030517578,-3.8069999217987065,-0.0390000008046627,-9.75699996948242,-0.0080000003799796
1622111399684,-13.090000152587892,-2.7899999618530273,-4.329999923706055,-0.0780000016093254,-9.79599952697754,-0.0149999996647238
1622111399694,-13.369999885559082,-3.049999952316284,-4.874000072479248,-0.1180000007152557,-9.75699996948242,-0.0080000003799796
1622111399704,-13.440000534057615,-3.067999839782715,-4.770500183105469,-0.1959999948740005,-9.635000228881836,-0.0260000005364418
1622111399714,-13.510000228881836,-3.0859999656677246,-4.666999816894531,-0.2349999994039535,-9.58899974822998,-0.0579999983310699
1622111399724,-12.8100004196167,-2.940000057220459,-4.285999774932861,-0.2349999994039535,-9.536999702453612,-0.1280000060796737
1622111399734,-11.619999885559082,-3.2039999961853027,-4.4029998779296875,-0.2750000059604644,-9.505000114440918,-0.0829999968409538
1622111399744,-10.220000267028809,-3.1549999713897705,-4.678999900817871,-0.3140000104904174,-9.460000038146973,-0.1150000020861625
1622111399754,-9.100000381469728,-2.4170000553131104,-4.833000183105469,-0.3529999852180481,-9.536999702453612,-0.1280000060796737
1622111399764,-7.559999942779541,-1.850000023841858,-5.230999946594238,-0.3529999852180481,-9.536999702453612,-0.1280000060796737
1622111399774,-5.949999809265137,-1.100000023841858,-5.453999996185303,-0.3529999852180481,-9.576000213623049,-0.135000005364418
1622111399784,-4.760000228881836,0.0109999999403953,-6.111000061035156,-0.3140000104904174,-9.607000350952148,-0.1800000071525573
1622111399794,-3.7100000381469727,0.5709999799728394,-6.864999771118164,-0.3529999852180481,-9.60099983215332,-0.2189999967813491
1622111399804,-2.5199999809265137,1.7549999952316284,-6.7270002365112305,-0.3140000104904174,-9.60099983215332,-0.2189999967813491
1622111399814,-1.4700000286102295,2.489000082015991,-6.455999851226807,-0.3140000104904174,-9.638999938964846,-0.2259999960660934
1622111399824,-0.6299999952316284,3.2750000953674316,-6.886000156402588,-0.3529999852180481,-9.717000007629396,-0.2399999946355819
1622111399834,-0.209999993443489,3.9079999923706055,-6.84499979019165,-0.3140000104904174,-9.722999572753906,-0.2010000050067901
1622111399844,0.209999993443489,4.390999794006348,-6.760000228881836,-0.3140000104904174,-9.755000114440918,-0.2460000067949295
1622111399854,0.0700000002980232,4.941999912261963,-6.663000106811523,-0.2349999994039535,-9.717000007629396,-0.2399999946355819
1622111399864,-0.0700000002980232,5.559000015258789,-6.127999782562256,-0.1570000052452087,-9.762000083923342,-0.2080000042915344
1622111399874,-0.0700000002980232,6.133999824523926,-6.168000221252441,-0.1959999948740005,-9.76900005340576,-0.1689999997615814
1622111399884,0.0,5.9029998779296875,-6.066999912261963,-0.1959999948740005,-9.729999542236328,-0.1620000004768371
1622111399894,0.209999993443489,5.611000061035156,-5.620999813079834,-0.1959999948740005,-9.711999893188477,-0.0399999991059303
1622111399904,0.3149999976158142,5.664000034332275,-5.718500137329102,-0.1570000052452087,-9.776000022888184,-0.1299999952316284
1622111399914,0.4199999868869781,5.7170000076293945,-5.815999984741211,-0.1959999948740005,-9.814000129699709,-0.1369999945163726
1622111399924,0.7699999809265136,5.691999912261963,-5.677999973297119,-0.2349999994039535,-9.83899974822998,-0.221000000834465
1622111399934,0.5600000023841857,5.172999858856201,-5.556000232696533,-0.1959999948740005,-9.89099979400635,-0.1509999930858612
1622111399944,-0.0700000002980232,4.918000221252441,-5.316999912261963,-0.1959999948740005,-9.821000099182127,-0.0989999994635581
1622111399954,-0.5600000023841857,4.8979997634887695,-5.605000019073486,-0.2349999994039535,-9.859999656677246,-0.1049999967217445
1622111399964,-0.9100000262260436,5.140999794006348,-5.775000095367432,-0.2750000059604644,-9.821000099182127,-0.0989999994635581
1622111399974,-1.4700000286102295,4.738999843597412,-5.916999816894531,-0.2750000059604644,-9.82800006866455,-0.0599999986588954
1622111399984,-1.8200000524520872,5.002999782562256,-5.798999786376953,-0.2349999994039535,-9.781999588012695,-0.0920000001788139
1622111399994,-1.9600000381469729,5.177000045776367,-5.98199987411499,-0.2750000059604644,-9.744000434875488,-0.0850000008940696
1622111400004,-2.0999999046325684,5.169000148773193,-6.339000225067139,-0.2750000059604644,-9.704999923706056,-0.0780000016093254
1622111400014,-2.1700000762939453,5.275000095367432,-6.5329999923706055,-0.3140000104904174,-9.65999984741211,-0.1099999994039535
1622111400024,-2.0299999713897705,5.688000202178955,-6.460000038146973,-0.3529999852180481,-9.704999923706056,-0.0780000016093254
1622111400034,-1.75,6.198999881744385,-6.939000129699707,-0.3529999852180481,-9.776000022888184,-0.1299999952316284
1622111400044,-1.6100000143051147,6.576000213623047,-7.868000030517577,-0.3529999852180481,-9.82800006866455,-0.0599999986588954
1622111400054,-1.75,7.675000190734864,-8.456000328063965,-0.3529999852180481,-9.821000099182127,-0.0989999994635581
1622111400064,-1.8899999856948853,8.859000205993652,-9.526000022888184,-0.3140000104904174,-9.821000099182127,-0.0989999994635581
1622111400074,-2.1700000762939453,9.961999893188477,-9.33199977874756,-0.3140000104904174,-9.776000022888184,-0.1299999952316284
1622111400084,-2.1700000762939453,10.626999855041504,-9.071999549865724,-0.3140000104904174,-9.776000022888184,-0.1299999952316284
1622111400094,-2.0999999046325684,11.161999702453612,-8.480999946594238,-0.2750000059604644,-9.697999954223633,-0.1169999986886978
1622111400104,-1.75,11.23900032043457,-8.112000465393066,-0.2750000059604644,-9.704999923706056,-0.0780000016093254
1622111400114,-1.6100000143051147,11.465999603271484,-7.7870001792907715,-0.2349999994039535,-9.65999984741211,-0.1099999994039535
1622111400124,-0.9800000190734864,11.722000122070312,-8.026000022888184,-0.1959999948740005,-9.65999984741211,-0.1099999994039535
1622111400134,-0.5600000023841857,10.98799991607666,-8.29800033569336,-0.1570000052452087,-9.729999542236328,-0.1620000004768371
1622111400144,-0.4549999833106994,10.925000190734863,-8.344499588012695,-0.1570000052452087,-9.737000465393066,-0.123999997973442
1622111400154,-0.3499999940395355,10.862000465393066,-8.390999794006348,-0.1180000007152557,-9.776000022888184,-0.1299999952316284
1622111400164,-0.4900000095367431,10.58199977874756,-8.013999938964844,-0.1180000007152557,-9.814000129699709,-0.1369999945163726
1622111400174,-0.5600000023841857,9.791999816894531,-8.366999626159668,-0.0780000016093254,-9.76900005340576,-0.1689999997615814
1622111400184,-0.9100000262260436,9.397999763488768,-8.152000427246094,-0.0780000016093254,-9.807000160217283,-0.1759999990463256
1622111400194,-1.1200000047683716,8.819000244140625,-7.684999942779541,-0.0390000008046627,-9.786999702453612,-0.2919999957084655
1622111400204,-1.2599999904632568,8.13700008392334,-7.449999809265136,-0.0780000016093254,-9.779999732971191,-0.3300000131130218
1622111400214,-1.399999976158142,7.367000102996825,-7.514999866485595,-0.0780000016093254,-9.755000114440918,-0.2460000067949295
1622111400224,-1.6799999475479126,6.629000186920166,-7.361000061035157,-0.0780000016093254,-9.793999671936035,-0.2529999911785125
1622111400234,-1.399999976158142,6.620999813079834,-7.717999935150147,-0.1180000007152557,-9.800999641418455,-0.2150000035762786
1622111400244,-1.4700000286102295,6.506999969482422,-7.880000114440918,-0.0780000016093254,-9.722999572753906,-0.2010000050067901
1622111400254,-1.4700000286102295,6.300000190734863,-7.915999889373779,-0.1180000007152557,-9.722999572753906,-0.2010000050067901
1622111400264,-1.2599999904632568,6.389999866485596,-7.616000175476073,-0.1570000052452087,-9.729999542236328,-0.1620000004768371
1622111400274,-0.8399999737739563,6.928999900817871,-7.449999809265136,-0.1959999948740005,-9.722999572753906,-0.2010000050067901
1622111400284,-1.0499999523162842,7.043000221252441,-7.288000106811523,-0.1570000052452087,-9.76900005340576,-0.1689999997615814
1622111400294,-0.7699999809265136,7.224999904632568,-7.11299991607666,-0.1570000052452087,-9.729999542236328,-0.1620000004768371
1622111400304,-0.4199999868869781,7.570000171661377,-7.052999973297119,-0.1180000007152557,-9.76900005340576,-0.1689999997615814
1622111400314,-0.5600000023841857,7.947000026702882,-6.7729997634887695,-0.1570000052452087,-9.762000083923342,-0.2080000042915344
1622111400324,-0.699999988079071,8.288000106811523,-6.285999774932861,-0.1570000052452087,-9.744000434875488,-0.0850000008940696
1622111400334,-0.4900000095367431,8.0649995803833,-5.828000068664551,-0.1570000052452087,-9.722999572753906,-0.2010000050067901
1622111400344,0.0,8.003999710083008,-5.482999801635742,-0.1570000052452087,-9.6850004196167,-0.1940000057220459
1622111400354,0.1400000005960464,7.947000026702882,-5.565000057220459,-0.1570000052452087,-9.717000007629396,-0.2399999946355819
1622111400364,0.4199999868869781,7.874000072479248,-5.151000022888184,-0.1570000052452087,-9.6850004196167,-0.1940000057220459
1622111400374,1.1200000047683716,7.500999927520752,-4.6479997634887695,-0.1570000052452087,-9.6850004196167,-0.1940000057220459
1622111400384,1.399999976158142,7.605999946594238,-4.8429999351501465,-0.1570000052452087,-9.6850004196167,-0.1940000057220459
1622111400394,1.4700000286102295,7.743999958038329,-4.817999839782715,-0.1570000052452087,-9.6850004196167,-0.1940000057220459
1622111400404,1.8899999856948853,7.699999809265136,-4.9679999351501465,-0.1570000052452087,-9.6850004196167,-0.1940000057220459
1622111400414,1.8899999856948853,7.192999839782715,-4.915999889373779,-0.1570000052452087,-9.729999542236328,-0.1620000004768371
1622111400424,2.0999999046325684,7.177000045776367,-5.629000186920166,-0.1570000052452087,-9.722999572753906,-0.2010000050067901
1622111400434,2.0999999046325684,7.210999965667725,-5.623000144958496,-0.1570000052452087,-9.722999572753906,-0.2010000050067901
1622111400444,2.0999999046325684,7.244999885559082,-5.617000102996826,-0.1959999948740005,-9.729999542236328,-0.1620000004768371
1622111400454,1.8899999856948853,6.958000183105469,-5.5970001220703125,-0.1959999948740005,-9.729999542236328,-0.1620000004768371
1622111400464,2.0999999046325684,7.124000072479248,-6.136000156402588,-0.2349999994039535,-9.76900005340576,-0.1689999997615814
1622111400474,2.1700000762939453,7.184999942779541,-6.480999946594238,-0.2349999994039535,-9.76900005340576,-0.1689999997615814
1622111400484,2.0299999713897705,7.09499979019165,-6.781000137329102,-0.2750000059604644,-9.722999572753906,-0.2010000050067901
1622111400494,2.0299999713897705,7.47599983215332,-6.927000045776367,-0.2750000059604644,-9.762000083923342,-0.2080000042915344
1622111400504,1.8200000524520872,7.6020002365112305,-6.834000110626221,-0.2750000059604644,-9.722999572753906,-0.2010000050067901
1622111400514,2.0299999713897705,7.581999778747559,-7.122000217437744,-0.2750000059604644,-9.722999572753906,-0.2010000050067901
1622111400524,1.8899999856948853,7.67899990081787,-7.672999858856201,-0.2750000059604644,-9.729999542236328,-0.1620000004768371
1622111400534,2.1700000762939453,8.081000328063965,-7.531000137329101,-0.2349999994039535,-9.737000465393066,-0.123999997973442
1622111400544,1.9600000381469729,8.01200008392334,-7.543000221252441,-0.2349999994039535,-9.744000434875488,-0.0850000008940696
1622111400554,2.1700000762939453,7.967000007629395,-7.692999839782715,-0.2349999994039535,-9.704999923706056,-0.0780000016093254
1622111400564,2.0299999713897705,8.071999549865723,-7.888000011444091,-0.2349999994039535,-9.737000465393066,-0.123999997973442
1622111400574,2.309999942779541,8.206000328063965,-7.438000202178955,-0.1959999948740005,-9.776000022888184,-0.1299999952316284
1622111400584,2.1700000762939453,7.686999797821045,-7.315999984741211,-0.1959999948740005,-9.781999588012695,-0.0920000001788139
1622111400594,1.8899999856948853,7.27400016784668,-7.388999938964843,-0.1959999948740005,-9.781999588012695,-0.0920000001788139
1622111400604,1.8200000524520872,7.329999923706055,-7.308000087738037,-0.1959999948740005,-9.781999588012695,-0.0920000001788139
1622111400614,2.0999999046325684,7.124000072479248,-7.344999790191651,-0.2349999994039535,-9.781999588012695,-0.0920000001788139
1622111400624,1.9600000381469729,6.868000030517578,-7.105000019073486,-0.2349999994039535,-9.821000099182127,-0.0989999994635581
1622111400634,1.8200000524520872,6.5920000076293945,-7.1539998054504395,-0.2750000059604644,-9.788999557495115,-0.0529999993741512
1622111400644,1.8200000524520872,6.110000133514404,-7.238999843597413,-0.2349999994039535,-9.776000022888184,-0.1299999952316284
1622111400654,1.8200000524520872,5.854000091552734,-7.0,-0.2349999994039535,-9.737000465393066,-0.123999997973442
1622111400664,1.6100000143051147,5.453000068664551,-7.142000198364258,-0.1959999948740005,-9.781999588012695,-0.0920000001788139
1622111400674,1.3300000429153442,5.488999843597412,-7.348000049591064,-0.2349999994039535,-9.75100040435791,-0.0460000000894069
1622111400684,1.75,5.468999862670898,-7.636000156402587,-0.1959999948740005,-9.781999588012695,-0.0920000001788139
1622111400694,1.399999976158142,5.635000228881836,-8.175999641418457,-0.2349999994039535,-9.788999557495115,-0.0529999993741512
