timestamp,gyro_x,gyro_y,gyro_z,acc_x,acc_y,acc_z
1621937574980,0.0,0.0,0.0,0.0,0.0,0.0
1621937575629,10.850000381469728,0.8769999742507933,-17.472999572753906,0.6669999957084655,-8.413999557495117,1.861999988555908
1621937575639,14.0,2.361999988555908,-17.424999237060547,0.7450000047683715,-8.555000305175781,1.7580000162124634
1621937575649,14.279999732971191,3.059000015258789,-16.945999145507812,0.7450000047683715,-8.805000305175781,1.593999981880188
1621937575659,13.229999542236328,3.7569999694824214,-15.258999824523926,0.6669999957084655,-9.300000190734863,1.4670000076293943
1621937575669,7.559999942779541,5.9019999504089355,-12.109000205993652,2.0789999961853027,-8.930000305175781,1.1740000247955322
1621937575679,10.989999771118164,7.443999767303467,-9.562999725341797,1.0590000152587893,-9.675000190734863,0.8830000162124633
1621937575689,9.380000114440918,6.015999794006348,-9.529999732971191,0.1570000052452087,-10.75,1.3309999704360962
1621937575699,1.8899999856948853,10.164999961853027,-5.244999885559082,0.3140000104904174,-10.689000129699709,1.6599999666213987
1621937575709,0.9099999666213988,10.909000396728516,-5.433500289916992,0.3919999897480011,-9.774999618530272,1.2239999771118164
1621937575719,-0.0700000002980232,11.652999877929688,-5.622000217437744,0.4309999942779541,-9.3100004196167,1.0670000314712524
1621937575729,4.059999942779541,11.67300033569336,-10.166999816894531,0.4709999859333038,-9.536999702453612,1.22599995136261
1621937575739,7.139999866485596,12.81999969482422,-12.239999771118164,0.3529999852180481,-9.821000099182127,1.25600004196167
1621937575749,6.369999885559082,13.753000259399414,-11.079999923706056,0.3529999852180481,-9.821000099182127,1.25600004196167
1621937575759,5.670000076293945,13.74899959564209,-10.654000282287598,0.3919999897480011,-9.904999732971191,1.281000018119812
1621937575769,6.019999980926514,14.097999572753906,-11.019000053405762,0.4309999942779541,-10.189000129699709,1.309999942779541
1621937575779,5.739999771118164,14.710000038146973,-8.850000381469727,0.4309999942779541,-10.265999794006348,1.2970000505447388
1621937575789,4.829999923706055,14.625,-8.366999626159668,0.3919999897480011,-10.381999969482422,1.2760000228881836
1621937575799,1.75,14.782999992370604,-8.055000305175781,0.3140000104904174,-10.458999633789062,1.2630000114440918
1621937575809,-0.9100000262260436,15.732000350952148,-8.598999977111816,0.2750000059604644,-10.440999984741213,1.3849999904632568
1621937575819,-3.7799999713897705,15.447999954223633,-9.003999710083008,0.2750000059604644,-10.440999984741213,1.3849999904632568
1621937575829,-6.159999847412109,14.41800022125244,-9.612000465393066,0.2349999994039535,-10.36400032043457,1.39900004863739
1621937575839,-8.260000228881836,13.37600040435791,-10.152000427246094,0.1959999948740005,-10.17099952697754,1.4329999685287476
1621937575849,-9.800000190734863,12.265000343322754,-9.494000434875488,0.1959999948740005,-10.05500030517578,1.4529999494552612
1621937575859,-10.989999771118164,10.623000144958496,-7.438000202178955,0.2349999994039535,-9.899999618530272,1.4809999465942385
1621937575869,-11.760000228881836,8.255000114440918,-5.296999931335449,0.2349999994039535,-9.732000350952148,1.430999994277954
1621937575879,-11.479999542236328,5.955999851226807,-3.1429998874664307,0.2349999994039535,-9.609999656677246,1.4119999408721924
1621937575889,-10.640000343322754,5.080999851226807,-1.8049999475479128,0.1570000052452087,-9.472999572753906,1.3170000314712524
1621937575899,-10.989999771118164,4.992000102996826,-0.8970000147819519,0.0390000008046627,-9.607000350952148,1.1740000247955322
1621937575909,-11.375,4.74250030517578,-0.6920000314712524,-0.0390000008046627,-9.663999557495115,1.0440000295639038
1621937575919,-11.760000228881836,4.493000030517578,-0.4869999885559082,-0.1180000007152557,-9.850000381469728,0.9720000028610228
1621937575929,-10.850000381469728,3.309000015258789,1.7920000553131104,0.6280000209808348,-10.14799976348877,1.75600004196167
1621937575939,-14.420000076293944,-0.3759999871253967,10.595999717712402,0.6669999957084655,-10.013999938964844,1.2220000028610227
1621937575949,-18.760000228881836,-2.1419999599456787,24.642000198364254,-0.981000006198883,-10.67099952697754,1.7829999923706057
1621937575959,-28.559999465942383,-0.3449999988079071,23.323999404907227,-1.9609999656677248,-9.95699977874756,1.35099995136261
1621937575969,-26.31999969482422,-4.966000080108643,-17.792999267578125,-1.491000056266785,-9.010000228881836,0.722000002861023
1621937575979,-19.18000030517578,-4.968999862670898,-44.37699890136719,-0.5099999904632568,-9.260000228881836,0.5580000281333923
1621937575989,-19.31999969482422,-0.722000002861023,-29.76799964904785,0.1959999948740005,-9.68000030517578,0.6830000281333923
1621937575999,-23.030000686645508,2.691999912261963,-3.5769999027252197,-0.2349999994039535,-9.536999702453612,0.5490000247955322
1621937576009,-21.489999771118164,3.7909998893737793,-0.5400000214576721,-0.9409999847412108,-9.354999542236328,0.4219999909400939
1621937576019,-17.079999923706055,4.291999816894531,-18.292999267578125,-1.1770000457763672,-9.46399974822998,0.3630000054836273
1621937576029,-14.770000457763672,5.498000144958496,-30.37700080871582,-0.7450000047683715,-9.572999954223633,0.3039999902248382
1621937576039,-15.050000190734863,8.182999610900879,-25.85199928283691,-0.3140000104904174,-9.482000350952148,0.2399999946355819
1621937576049,-15.1899995803833,10.60200023651123,-16.184999465942383,-0.1959999948740005,-9.43000030517578,0.1689999997615814
1621937576059,-14.699999809265137,11.628000259399414,-13.942999839782717,-0.3140000104904174,-9.538999557495115,0.1099999994039535
1621937576069,-13.789999961853027,12.149999618530272,-19.323999404907227,-0.4309999942779541,-9.609999656677246,0.0579999983310699
1621937576079,-13.090000152587892,12.437999725341797,-21.76099967956543,-0.2349999994039535,-9.642000198364256,0.0130000002682209
1621937576089,-12.25,13.281999588012695,-18.483999252319336,-0.0390000008046627,-9.564000129699709,0.0260000005364418
1621937576099,-10.989999771118164,13.991999626159668,-14.449999809265137,0.0,-9.571000099182127,0.0649999976158142
1621937576109,-10.045000076293944,14.034500122070312,-14.086999893188477,-0.0390000008046627,-9.51900005340576,-0.0049999998882412
1621937576119,-9.100000381469728,14.07699966430664,-13.723999977111816,-0.1570000052452087,-9.4350004196167,-0.0299999993294477
1621937576129,-6.650000095367432,14.336000442504885,-16.805999755859375,-0.1180000007152557,-9.44200038909912,0.0080000003799796
1621937576139,-4.340000152587891,15.666000366210938,-18.70400047302246,-0.0390000008046627,-9.479999542236328,0.0010000000474974
1621937576149,-2.5899999141693115,17.18199920654297,-18.43600082397461,0.0,-9.402999877929688,0.0149999996647238
1621937576159,-0.699999988079071,17.68899917602539,-18.48900032043457,0.0390000008046627,-9.241999626159668,0.0040000001899898
1621937576169,1.8200000524520872,18.14699935913086,-19.475000381469727,0.0780000016093254,-9.217000007629396,0.0879999995231628
1621937576179,4.550000190734863,18.17200088500977,-19.61199951171875,0.1959999948740005,-9.222999572753906,0.1260000020265579
1621937576189,6.510000228881836,18.12700080871582,-18.554000854492188,0.2750000059604644,-9.19200038909912,0.1720000058412551
1621937576199,8.050000190734863,17.64900016784668,-16.648000717163086,0.3529999852180481,-9.26900005340576,0.1580000072717666
1621937576209,9.170000076293944,17.110000610351562,-14.39799976348877,0.4309999942779541,-9.397999763488768,0.2150000035762786
1621937576219,9.100000381469728,16.624000549316406,-12.848999977111816,0.4709999859333038,-9.565999984741213,0.2649999856948852
1621937576229,8.609999656677246,15.586000442504885,-11.397000312805176,0.4709999859333038,-9.772999763488768,0.3079999983310699
1621937576239,7.139999866485596,14.795000076293944,-10.541000366210936,0.5490000247955322,-10.050999641418455,0.2989999949932098
1621937576249,5.110000133514404,13.652000427246094,-8.894000053405762,0.5490000247955322,-10.08899974822998,0.2919999957084655
1621937576259,3.2899999618530273,12.767999649047852,-7.913000106811523,0.4709999859333038,-10.123000144958496,0.4850000143051147
1621937576269,1.75,11.494999885559082,-7.142000198364258,0.3919999897480011,-9.975000381469728,0.5509999990463256
1621937576279,1.0499999523162842,10.578000068664553,-7.5879998207092285,0.3140000104904174,-9.75699996948242,0.6690000295639038
1621937576289,1.5399999618530271,9.909000396728516,-8.630000114440918,0.2750000059604644,-9.68000030517578,0.6830000281333923
1621937576299,2.309999942779541,10.119999885559082,-9.020000457763674,0.2750000059604644,-9.763999938964846,0.7080000042915344
1621937576309,2.5199999809265137,9.904999732971191,-8.204999923706055,0.1959999948740005,-9.803000450134276,0.7009999752044677
1621937576319,2.4149999618530273,9.929500579833984,-8.342499732971191,0.1570000052452087,-9.918999671936035,0.6809999942779541
1621937576329,2.309999942779541,9.95400047302246,-8.479999542236328,0.0780000016093254,-9.982000350952148,0.5899999737739563
1621937576339,2.0299999713897705,10.225000381469728,-9.21399974822998,0.1180000007152557,-10.053000450134276,0.5379999876022338
1621937576349,1.399999976158142,10.81700038909912,-9.75,0.0780000016093254,-10.085000038146973,0.492000013589859
1621937576359,-0.0700000002980232,11.758000373840332,-10.649999618530272,0.0780000016093254,-10.116000175476074,0.4469999969005584
1621937576369,-1.9600000381469729,12.381999969482422,-10.965999603271484,0.0780000016093254,-10.102999687194824,0.3700000047683715
1621937576379,-3.6400001049041744,12.845000267028809,-11.168999671936035,0.0780000016093254,-10.109999656677246,0.4079999923706054
1621937576389,-5.599999904632568,13.513999938964844,-11.336000442504885,0.1180000007152557,-10.064000129699709,0.3759999871253967
1621937576399,-7.070000171661377,13.595000267028809,-11.392000198364258,0.1570000052452087,-9.940999984741213,0.3580000102519989
1621937576409,-7.8400001525878915,13.480999946594238,-11.55500030517578,0.1959999948740005,-9.819000244140623,0.3400000035762786
1621937576419,-7.769999980926514,13.862000465393066,-11.701000213623049,0.2349999994039535,-9.62600040435791,0.3740000128746032
1621937576428,-6.789999961853027,13.565999984741213,-12.036999702453612,0.2750000059604644,-9.46399974822998,0.3630000054836273
1621937576438,-4.760000228881836,13.70400047302246,-12.012999534606934,0.3529999852180481,-9.46399974822998,0.3630000054836273
1621937576448,-3.430000066757202,13.425000190734863,-10.427000045776367,0.4309999942779541,-9.496000289916992,0.31700000166893
1621937576458,-2.0999999046325684,12.503999710083008,-9.23900032043457,0.4309999942779541,-9.482000350952148,0.2399999946355819
1621937576468,-1.190000057220459,11.85200023651123,-8.359000205993652,0.5099999904632568,-9.5600004196167,0.2259999960660934
1621937576478,-0.0700000002980232,10.88700008392334,-7.32100009918213,0.5879999995231628,-9.565999984741213,0.2649999856948852
1621937576488,0.699999988079071,9.253000259399414,-6.116000175476074,0.6280000209808348,-9.592000007629396,0.1809999942779541
1621937576498,1.1200000047683716,7.581999778747559,-4.704999923706055,0.6669999957084655,-9.54599952697754,0.1490000039339065
1621937576508,1.3300000429153442,5.368000030517578,-3.0339999198913574,0.6669999957084655,-9.538999557495115,0.1099999994039535
1621937576518,2.1700000762939453,3.990000009536743,-2.069000005722046,0.6280000209808348,-9.57800006866455,0.1040000021457672
1621937576528,2.7300000190734863,3.121999979019165,-1.5820000171661377,0.5490000247955322,-9.538999557495115,0.1099999994039535
1621937576538,3.2899999618530273,2.253999948501587,-1.0950000286102295,0.6280000209808348,-9.468999862670898,0.163000002503395
1621937576548,4.340000152587891,0.9120000004768372,-0.3370000123977661,0.5879999995231628,-9.392000198364256,0.1759999990463256
1621937576558,5.389999866485596,-0.5640000104904174,-0.0280000008642673,0.5490000247955322,-9.366999626159668,0.2599999904632568
1621937576568,7.699999809265136,-1.7029999494552612,-0.0160000007599592,0.5099999904632568,-9.352999687194824,0.1829999983310699
1621937576578,9.380000114440918,-2.871000051498413,0.5600000023841857,0.4309999942779541,-9.592000007629396,0.1809999942779541
1621937576588,10.43000030517578,-3.7179999351501465,1.3350000381469729,0.3529999852180481,-10.062000274658203,0.1379999965429306
1621937576598,8.960000038146973,-3.9330000877380367,2.1500000953674316,0.2750000059604644,-10.623000144958496,0.1580000072717666
1621937576608,4.269999980926514,-3.365000009536743,2.9609999656677246,0.1570000052452087,-11.074999809265137,0.2380000054836273
1621937576618,-3.2200000286102295,-2.1610000133514404,3.385999917984009,0.0390000008046627,-11.18000030517578,0.3790000081062316
1621937576628,-11.479999542236328,-1.787999987602234,2.8829998970031734,0.0390000008046627,-10.961999893188477,0.4970000088214874
1621937576638,-18.549999237060547,-1.1799999475479126,0.6449999809265136,0.0780000016093254,-10.722999572753906,0.4990000128746032
1621937576648,-23.100000381469727,-0.8920000195503234,-0.5839999914169312,0.0780000016093254,-10.394000053405762,0.4379999935626983
1621937576658,-25.899999618530273,-0.5759999752044677,0.0410000011324882,0.0390000008046627,-10.20699977874756,0.5099999904632568
1621937576668,-27.510000228881836,-0.3000000119209289,1.2979999780654907,-0.0780000016093254,-9.937000274658203,0.5580000281333923
1621937576678,-27.440000534057617,0.8069999814033508,1.0659999847412107,-0.1959999948740005,-9.65999984741211,0.5669999718666076
1621937576688,-26.31999969482422,1.6990000009536743,-0.7670000195503234,-0.2349999994039535,-9.30500030517578,0.5899999737739563
1621937576698,-23.239999771118164,3.4790000915527344,-2.7980000972747803,-0.3529999852180481,-8.885000228881836,0.4650000035762786
1621937576708,-18.40999984741211,5.732999801635742,-5.1020002365112305,-0.3529999852180481,-8.496000289916992,0.2939999997615814
1621937576718,-11.619999885559082,8.173999786376953,-7.657000064849853,-0.4309999942779541,-8.076000213623047,0.1689999997615814
1621937576728,-1.9600000381469729,10.217000007629396,-9.571000099182127,-0.3529999852180481,-7.796000003814697,-0.0599999986588954
1621937576738,9.029999732971191,11.656999588012695,-10.880999565124512,-0.2750000059604644,-7.762000083923339,-0.2529999911785125
1621937576748,14.315000534057615,12.477999687194824,-10.70050048828125,-0.1570000052452087,-7.960000038146973,-0.4869999885559082
1621937576758,19.600000381469727,13.298999786376951,-10.520000457763672,-0.1180000007152557,-8.223999977111816,-0.5740000009536743
1621937576768,28.6299991607666,14.248000144958496,-7.439000129699707,-0.1570000052452087,-8.307999610900879,-0.5490000247955322
1621937576778,35.70000076293945,15.440999984741213,-4.5279998779296875,-0.1180000007152557,-8.25100040435791,-0.4189999997615814
1621937576788,42.630001068115234,16.78700065612793,-4.502999782562256,0.0,-8.194000244140625,-0.2899999916553497
1621937576798,49.349998474121094,17.945999145507812,-6.644999980926514,0.1570000052452087,-8.678000450134277,-0.2560000121593475
1621937576808,54.66999816894531,18.409000396728516,-8.055999755859375,0.3529999852180481,-9.638999938964846,-0.2259999960660934
1621937576818,54.599998474121094,18.684999465942383,-5.590000152587891,0.3919999897480011,-10.788999557495115,-0.0299999993294477
1621937576828,46.83000183105469,18.95299911499023,-1.065000057220459,0.3529999852180481,-11.881999969482422,0.2949999868869781
1621937576838,33.95000076293945,18.617000579833984,1.6480000019073486,0.3140000104904174,-12.479999542236328,0.746999979019165
1621937576848,18.899999618530273,16.974000930786133,1.2869999408721924,0.3919999897480011,-12.54800033569336,1.1330000162124634
1621937576858,4.409999847412109,14.505000114440918,-0.4280000030994415,0.4709999859333038,-12.388999938964844,1.3609999418258667
1621937576868,-8.539999961853027,11.130999565124512,-1.4490000009536743,0.4309999942779541,-12.145000457763672,1.562999963760376
1621937576878,-19.31999969482422,8.109999656677246,-0.8450000286102294,0.3140000104904174,-11.70199966430664,1.7599999904632568
1621937576888,-27.3700008392334,6.196000099182129,-0.4709999859333038,0.0,-10.470999717712402,1.7779999971389773
1621937576898,-32.47999954223633,4.500999927520752,-2.546999931335449,-0.1180000007152557,-9.958999633789062,1.5900000333786013
1621937576908,-33.880001068115234,3.880000114440918,-6.2820000648498535,-0.2349999994039535,-9.602999687194824,1.3739999532699585
1621937576918,-32.900001525878906,3.7170000076293945,-8.585000038146973,-0.3529999852180481,-9.123000144958496,1.1399999856948853
1621937576928,-30.309999465942383,4.171000003814697,-9.145000457763674,-0.4309999942779541,-8.720999717712402,0.8920000195503234
1621937576938,-25.969999313354492,5.456999778747559,-9.984000205993652,-0.4309999942779541,-8.487000465393066,0.6940000057220459
1621937576948,-18.690000534057617,7.10699987411499,-11.68299961090088,-0.4709999859333038,-8.45300006866455,0.5009999871253967
1621937576958,-11.479999542236328,9.437999725341797,-13.618000030517578,-0.5099999904632568,-8.418999671936035,0.3079999983310699
1621937576968,-7.94499969482422,10.67099952697754,-13.756000518798828,-0.5099999904632568,-8.468999862670898,0.1400000005960464
1621937576978,-4.409999847412109,11.904000282287598,-13.894000053405762,-0.5879999995231628,-8.694000244140625,0.0599999986588954
1621937576988,2.869999885559082,14.76200008392334,-14.385000228881836,-0.5099999904632568,-8.72599983215332,0.0149999996647238
1621937576998,9.380000114440918,18.354999542236328,-14.604999542236328,-0.4709999859333038,-8.763999938964844,0.0080000003799796
1621937577008,14.770000457763672,21.983999252319336,-15.031000137329102,-0.3919999897480011,-8.925999641418457,0.0189999993890523
1621937577018,20.020000457763672,25.211999893188477,-15.598999977111816,-0.4309999942779541,-9.4350004196167,-0.0299999993294477
1621937577028,24.010000228881836,28.472000122070312,-14.739999771118164,-0.4709999859333038,-10.13700008392334,-0.1140000000596046
1621937577038,25.479999542236328,32.48699951171875,-12.11299991607666,-0.5879999995231628,-11.083999633789064,-0.1620000004768371
1621937577048,22.260000228881836,37.58399963378906,-9.57900047302246,-0.5879999995231628,-11.95699977874756,0.0430000014603137
1621937577058,12.8100004196167,43.57400131225586,-6.461999893188477,-0.5490000247955322,-12.267999649047852,0.2269999980926513
1621937577068,-0.9800000190734864,50.20399856567382,-4.15500020980835,-0.5099999904632568,-12.309000015258787,0.4580000042915344
1621937577078,-15.539999961853027,55.61399841308594,-2.98799991607666,-0.3140000104904174,-12.163999557495115,0.7630000114440918
1621937577088,-27.719999313354492,59.84700012207031,-2.809999942779541,-0.1180000007152557,-11.675000190734863,0.9290000200271606
1621937577098,-37.59000015258789,62.28499984741211,-0.1059999987483024,-0.0390000008046627,-10.972999572753906,1.0130000114440918
1621937577108,-44.029998779296875,63.79399871826172,3.430000066757202,0.0,-10.204999923706056,0.9490000009536744
1621937577118,-46.27000045776367,64.28399658203125,5.079999923706055,0.1570000052452087,-9.585000038146973,0.8190000057220459
1621937577128,-45.36000061035156,63.867000579833984,5.433000087738037,0.1570000052452087,-9.03499984741211,0.6380000114440918
1621937577138,-41.439998626708984,63.37200164794922,5.416999816894531,0.0780000016093254,-8.586999893188477,0.3580000102519989
1621937577148,-35.209999084472656,62.57699966430664,4.281000137329102,0.0780000016093254,-8.33899974822998,0.0829999968409538
1621937577158,-27.86000061035156,62.277000427246094,0.7459999918937683,0.0780000016093254,-8.21500015258789,-0.1739999949932098
1621937577168,-19.600000381469727,62.31999969482422,-5.145999908447266,0.0780000016093254,-8.211999893188477,-0.4120000004768371
1621937577178,-11.409999847412108,61.564998626708984,-10.538999557495115,0.0780000016093254,-8.196000099182129,-0.7279999852180481
1621937577188,-7.559999942779541,61.20199966430664,-12.309000015258787,0.1180000007152557,-8.260000228881836,-0.8190000057220459
1621937577198,-3.7100000381469727,60.8390007019043,-14.07900047302246,0.0780000016093254,-8.253000259399414,-0.8579999804496765
1621937577208,3.849999904632568,60.304000854492195,-15.880000114440918,0.0390000008046627,-8.291999816894531,-0.865000009536743
1621937577218,10.56999969482422,59.81700134277344,-16.746999740600586,0.0390000008046627,-8.692000389099121,-0.8550000190734863
1621937577228,16.520000457763672,59.387001037597656,-17.534000396728516,0.0,-9.12399959564209,-0.8920000195503234
1621937577238,20.510000228881836,59.845001220703125,-17.31100082397461,-0.1180000007152557,-9.717000007629396,-0.9169999957084656
1621937577248,21.209999084472656,61.44300079345703,-15.892000198364258,-0.1570000052452087,-10.406999588012695,-0.8389999866485595
1621937577258,18.200000762939453,64.00599670410156,-15.51099967956543,-0.2349999994039535,-10.828000068664553,-0.7139999866485595
1621937577268,12.039999961853027,66.7229995727539,-15.60099983215332,-0.1959999948740005,-10.939000129699709,-0.5350000262260437
1621937577278,4.269999980926514,69.56500244140625,-15.597000122070312,-0.1570000052452087,-10.812000274658203,-0.3529999852180481
1621937577288,-3.569999933242798,71.8239974975586,-15.909999847412108,-0.0390000008046627,-10.574999809265137,-0.1120000034570694
1621937577298,-10.220000267028809,73.53099822998047,-15.111000061035156,-0.0390000008046627,-10.324999809265137,0.0509999990463256
1621937577308,-14.210000038146973,74.56500244140625,-13.720000267028809,0.0,-9.977999687194824,0.1129999980330467
1621937577318,-16.3799991607666,75.25900268554688,-12.815999984741213,0.0,-9.54599952697754,0.1490000039339065
1621937577328,-16.520000457763672,75.61199951171875,-12.39900016784668,0.0780000016093254,-9.217000007629396,0.0879999995231628
1621937577338,-14.770000457763672,75.44999694824219,-12.284999847412108,0.0,-9.03499984741211,-0.0399999991059303
1621937577348,-11.970000267028809,75.93599700927734,-11.416999816894531,-0.0390000008046627,-8.842000007629395,-0.006000000052154
1621937577358,-8.050000190734863,76.0780029296875,-10.609999656677246,-0.1180000007152557,-8.800999641418457,-0.2370000034570694
1621937577368,-3.569999933242798,76.28099822998047,-10.14799976348877,-0.1180000007152557,-8.949000358581543,-0.3030000030994415
1621937577378,1.0499999523162842,75.84300231933594,-10.083000183105469,-0.1570000052452087,-9.18000030517578,-0.3440000116825103
1621937577388,5.110000133514404,75.51100158691406,-9.003999710083008,-0.2349999994039535,-9.29599952697754,-0.3650000095367431
1621937577398,6.579999923706055,75.21499633789062,-8.736499786376953,-0.3140000104904174,-9.411999702453612,-0.3849999904632568
1621937577408,8.050000190734863,74.91899871826172,-8.468999862670898,-0.3529999852180481,-9.572999954223633,-0.3740000128746032
1621937577418,10.56999969482422,74.78900146484375,-8.13700008392334,-0.4709999859333038,-9.710000038146973,-0.277999997138977
1621937577428,12.039999961853027,74.01899719238281,-6.993000030517578,-0.6280000209808348,-9.722999572753906,-0.2010000050067901
1621937577438,12.670000076293944,72.75800323486328,-5.083000183105469,-0.7850000262260437,-9.776000022888184,-0.1299999952316284
1621937577448,12.880000114440918,72.25499725341797,-3.0390000343322754,-0.9020000100135804,-9.897999763488768,-0.1120000034570694
1621937577458,12.390000343322754,72.3290023803711,-2.24399995803833,-0.981000006198883,-9.951000213623049,-0.0419999994337558
1621937577468,11.899999618530272,72.2030029296875,-2.3380000591278076,-1.0590000152587893,-9.95699977874756,-0.003000000026077
1621937577478,10.989999771118164,71.98799896240234,-2.7309999465942383,-1.0980000495910645,-9.873000144958496,-0.0280000008642673
1621937577488,10.5,71.61900329589844,-2.6540000438690186,-1.0980000495910645,-9.72599983215332,0.0379999987781047
1621937577498,10.149999618530272,70.58499908447266,-1.628000020980835,-1.0980000495910645,-9.609999656677246,0.0579999983310699
1621937577508,10.220000267028809,69.08100128173828,-0.7559999823570251,-1.2940000295639038,-9.585000038146973,0.1420000046491622
1621937577518,10.289999961853027,68.02200317382812,-0.800000011920929,-1.4119999408721924,-9.565999984741213,0.2649999856948852
1621937577528,11.0600004196167,67.39800262451172,-1.6920000314712524,-1.6080000400543213,-9.553000450134276,0.1879999935626983
1621937577538,12.109999656677246,66.95500183105469,-4.827000141143799,-1.72599995136261,-9.527999877929688,0.2720000147819519
1621937577548,13.090000152587892,66.16400146484375,-8.803999900817871,-1.7649999856948853,-9.565999984741213,0.2649999856948852
1621937577558,13.649999618530272,65.05699920654297,-12.197999954223633,-1.72599995136261,-9.592000007629396,0.1809999942779541
1621937577568,14.06999969482422,63.79100036621094,-13.48799991607666,-1.7649999856948853,-9.604999542236328,0.2579999864101409
1621937577578,14.770000457763672,62.242000579833984,-13.973999977111816,-1.7649999856948853,-9.720999717712402,0.2380000054836273
1621937577588,15.1899995803833,60.14099884033203,-15.765999794006348,-1.8040000200271609,-9.760000228881836,0.231000006198883
1621937577598,14.909999847412108,58.46599960327149,-18.761999130249023,-1.8040000200271609,-9.76599979400635,0.2689999938011169
1621937577608,14.735000610351564,57.614501953125,-20.58300018310547,-1.8040000200271609,-9.696000099182127,0.3219999969005584
1621937577618,14.5600004196167,56.76300048828125,-22.40399932861328,-1.843999981880188,-9.656999588012695,0.3289999961853027
1621937577628,14.210000038146973,55.90599822998047,-26.819000244140625,-1.7649999856948853,-9.710000038146973,0.3989999890327453
1621937577638,14.699999809265137,55.07500076293945,-31.37299919128418,-1.8040000200271609,-9.741000175476074,0.3540000021457672
1621937577648,15.399999618530272,53.922000885009766,-36.125,-1.8040000200271609,-9.710000038146973,0.3989999890327453
1621937577658,15.68000030517578,53.39500045776367,-39.98600006103515,-1.9609999656677248,-9.762000083923342,0.4690000116825103
1621937577668,16.309999465942383,54.233001708984375,-43.53400039672851,-2.0789999961853027,-9.607000350952148,0.4970000088214874
1621937577678,16.940000534057617,56.00899887084961,-47.55699920654297,-2.236000061035156,-9.536999702453612,0.5490000247955322
1621937577688,17.850000381469727,58.68899917602539,-52.27299880981445,-2.313999891281128,-9.4350004196167,0.6470000147819519
1621937577698,18.549999237060547,63.14899826049805,-56.604000091552734,-2.510999917984009,-9.357000350952148,0.6600000262260437
1621937577708,18.829999923706055,69.44100189208984,-60.04399871826172,-2.628000020980835,-9.319000244140623,0.6669999957084655
1621937577718,19.38999938964844,76.34600067138672,-64.93900299072266,-2.628000020980835,-9.40999984741211,0.731000006198883
1621937577728,19.040000915527344,83.58399963378906,-69.70500183105469,-2.431999921798706,-9.595999717712402,0.6579999923706054
1621937577738,17.850000381469727,89.67400360107422,-72.39800262451172,-2.0789999961853027,-9.621000289916992,0.5740000009536743
1621937577748,15.960000038146973,94.9980010986328,-71.95700073242188,-1.72599995136261,-9.666000366210936,0.606000006198883
1621937577758,14.279999732971191,99.16300201416016,-70.58300018310547,-1.2940000295639038,-9.704999923706056,0.5989999771118164
1621937577768,12.390000343322754,101.89199829101562,-68.32499694824219,-0.7850000262260437,-9.697999954223633,0.5600000023841857
1621937577778,9.869999885559082,102.8219985961914,-64.3219985961914,-0.1959999948740005,-9.788999557495115,0.6240000128746032
1621937577788,6.789999961853027,101.47200012207033,-56.66999816894531,0.4709999859333038,-9.994000434875488,0.4289999902248382
1621937577798,2.380000114440918,98.61499786376952,-46.512001037597656,0.981000006198883,-10.496000289916992,0.3400000035762786
1621937577808,-0.4199999570846557,96.59449768066406,-40.29350280761719,1.4119999408721924,-10.727999687194824,0.2989999949932098
1621937577818,-3.2200000286102295,94.5739974975586,-34.07500076293945,1.7649999856948853,-10.758999824523926,0.2540000081062316
1621937577828,-9.65999984741211,89.03199768066406,-22.399999618530273,2.197000026702881,-10.854999542236328,0.1169999986886978
1621937577838,-14.630000114440918,83.11799621582033,-11.43000030517578,2.4709999561309814,-10.977999687194824,0.1360000073909759
1621937577848,-18.6200008392334,77.43000030517578,1.0720000267028809,2.5889999866485596,-10.925000190734863,0.0649999976158142
1621937577858,-22.049999237060547,71.98600006103516,12.19499969482422,2.746000051498413,-10.803000450134276,0.0469999983906745
1621937577868,-24.219999313354492,64.86599731445312,20.322999954223633,2.941999912261963,-10.557000160217283,0.0109999999403953
1621937577878,-25.549999237060547,57.15900039672851,27.35099983215332,3.0199999809265137,-10.350000381469728,-0.032999999821186
1621937577888,-26.040000915527344,50.0880012512207,33.99399948120117,2.941999912261963,-10.072999954223633,-0.0240000002086162
1621937577898,-25.059999465942383,43.37699890136719,37.7859992980957,2.7850000858306885,-9.543999671936035,-0.0900000035762786
1621937577908,-23.799999237060547,36.50400161743164,36.85900115966797,2.628000020980835,-8.904999732971191,-0.096000000834465
1621937577918,-20.790000915527344,30.170000076293945,33.680999755859375,2.510999917984009,-8.388999938964844,-0.0850000008940696
1621937577928,-16.3799991607666,24.85700035095215,30.753999710083008,2.431999921798706,-8.067000389099121,-0.1080000028014183
1621937577938,-10.989999771118164,20.68400001525879,27.81399917602539,2.2750000953674316,-7.892000198364258,-0.1969999969005584
1621937577948,-5.949999809265137,17.606000900268555,23.503999710083008,2.118000030517578,-7.828000068664551,-0.1059999987483024
1621937577958,-1.8899999856948853,15.163999557495115,17.60099983215332,2.0399999618530273,-7.958000183105469,-0.0489999987185001
1621937577968,1.9600000381469729,13.79300022125244,12.880999565124512,1.9609999656677248,-8.428000450134277,-0.0920000001788139
1621937577978,4.619999885559082,14.003000259399414,10.074999809265137,1.9220000505447388,-9.072999954223633,-0.0460000000894069
1621937577988,6.510000228881836,14.765000343322754,7.366000175476073,1.9609999656677248,-9.647999763488768,0.0509999990463256
1621937577998,7.0,14.517000198364258,4.336999893188477,2.118000030517578,-9.946000099182127,0.1580000072717666
1621937578008,7.034999847412109,13.93950080871582,3.986000061035156,2.4709999561309814,-10.08199977874756,0.2540000081062316
1621937578018,7.070000171661377,13.362000465393066,3.634999990463257,2.7850000858306885,-10.14799976348877,0.4009999930858612
1621937578027,6.019999980926514,11.642999649047852,6.531000137329102,2.8239998817443848,-10.23900032043457,0.4650000035762786
1621937578038,4.480000019073486,9.78999996185303,10.1850004196167,2.864000082015991,-10.413999557495115,0.5540000200271606
1621937578048,2.7300000190734863,8.086999893188477,12.586000442504885,2.9030001163482666,-10.638999938964844,0.4740000069141387
1621937578058,0.7699999809265136,6.46999979019165,14.503999710083008,2.864000082015991,-11.071000099182127,0.4379999935626983
1621937578067,-1.9600000381469729,5.294000148773193,18.347999572753903,2.8239998817443848,-11.38700008392334,0.4219999909400939
1621937578077,-5.039999961853027,3.11299991607666,22.655000686645508,2.746000051498413,-11.41800022125244,0.3770000040531158
1621937578087,-8.470000267028809,-0.8679999709129333,27.496999740600582,2.6670000553131104,-11.321000099182127,0.2739999890327453
1621937578097,-11.6899995803833,-5.396999835968018,33.025001525878906,2.5889999866485596,-11.237000465393066,0.248999997973442
1621937578107,-15.399999618530272,-10.010000228881836,39.03499984741211,2.431999921798706,-11.093999862670898,0.1150000020861625
1621937578117,-18.899999618530273,-14.592000007629396,44.05500030517578,2.0789999961853027,-10.949999809265137,-0.0189999993890523
1621937578127,-21.700000762939453,-19.388999938964844,45.05799865722656,1.4119999408721924,-10.406999588012695,-0.1620000004768371
1621937578137,-24.56999969482422,-22.81100082397461,43.104000091552734,1.1770000457763672,-10.038999557495115,-0.2169999927282333
1621937578147,-26.809999465942383,-25.999000549316406,41.83100128173828,0.981000006198883,-9.83199977874756,-0.2599999904632568
1621937578157,-28.90999984741211,-28.343000411987305,42.625999450683594,0.7450000047683715,-9.696000099182127,-0.3549999892711639
1621937578167,-30.520000457763672,-29.875,44.0620002746582,0.5099999904632568,-9.597999572753906,-0.4580000042915344
1621937578177,-30.940000534057617,-32.21099853515625,45.2140007019043,0.3529999852180481,-9.43000030517578,-0.5080000162124633
1621937578187,-31.010000228881836,-34.53799819946289,44.305999755859375,0.2750000059604644,-9.222999572753906,-0.5509999990463256
1621937578197,-30.8700008392334,-36.91899871826172,42.89099884033203,0.2349999994039535,-9.093999862670898,-0.6079999804496765
1621937578207,-30.520000457763672,-39.7130012512207,41.40299987792969,0.1180000007152557,-8.925999641418457,-0.6579999923706054
1621937578217,-30.310001373291016,-41.165000915527344,39.76100158691406,-0.0390000008046627,-8.78499984741211,-0.5529999732971191
1621937578227,-30.100000381469727,-42.617000579833984,38.118999481201165,-0.1570000052452087,-8.64900016784668,-0.6489999890327453
1621937578237,-29.049999237060547,-45.14400100708008,32.698001861572266,-0.1570000052452087,-8.5649995803833,-0.6740000247955322
1621937578247,-28.700000762939453,-46.766998291015625,25.375,-0.1570000052452087,-8.519000053405762,-0.7059999704360961
1621937578257,-28.06999969482422,-47.849998474121094,18.218000411987305,-0.1570000052452087,-8.487000465393066,-0.6600000262260437
1621937578267,-26.530000686645508,-49.051998138427734,11.324000358581545,-0.1180000007152557,-8.557999610900879,-0.7120000123977661
1621937578277,-25.479999542236328,-50.18000030517578,5.22599983215332,-0.0780000016093254,-8.635000228881836,-0.7260000109672546
1621937578287,-24.010000228881836,-50.96699905395508,-0.3860000073909759,0.0,-8.789999961853027,-0.7530000209808348
1621937578297,-22.540000915527344,-52.14400100708008,-5.000999927520752,0.1570000052452087,-8.98900032043457,-0.7490000128746032
1621937578307,-21.770000457763672,-53.29199981689453,-8.970000267028809,0.2349999994039535,-9.14400005340576,-0.7760000228881835
1621937578317,-21.700000762939453,-54.249000549316406,-11.199999809265137,0.3529999852180481,-9.21399974822998,-0.828000009059906
1621937578327,-22.1200008392334,-55.10100173950195,-12.416999816894531,0.3140000104904174,-9.21399974822998,-0.828000009059906
1621937578337,-22.68000030517578,-55.51499938964844,-13.697999954223633,0.3140000104904174,-9.168999671936035,-0.8600000143051147
1621937578347,-22.049999237060547,-55.368999481201165,-15.734000205993652,0.2750000059604644,-9.12399959564209,-0.8920000195503234
1621937578357,-20.15999984741211,-54.119998931884766,-17.575000762939453,0.2349999994039535,-9.14900016784668,-0.9760000109672546
1621937578367,-17.43000030517578,-52.87200164794922,-18.20800018310547,0.1959999948740005,-9.109999656677246,-0.968999981880188
1621937578377,-14.699999809265137,-51.516998291015625,-17.82699966430664,0.1959999948740005,-9.05799961090088,-1.0390000343322754
1621937578387,-12.18000030517578,-49.821998596191406,-15.75100040435791,0.2750000059604644,-9.187000274658203,-0.9829999804496764
1621937578397,-9.380000114440918,-48.25199890136719,-12.5600004196167,0.3140000104904174,-9.187000274658203,-0.9829999804496764
1621937578407,-7.769999980926514,-46.85699844360352,-7.978000164031982,0.3140000104904174,-9.22599983215332,-0.9890000224113464
1621937578417,-7.070000171661377,-45.948001861572266,-4.263999938964844,0.3140000104904174,-9.258000373840332,-1.0349999666213987
1621937578427,-7.210000038146973,-45.500999450683594,-1.5549999475479126,0.3140000104904174,-9.303000450134276,-1.003000020980835
1621937578437,-7.454999923706055,-45.41999816894531,-0.403499960899353,0.2349999994039535,-9.354999542236328,-0.9330000281333924
1621937578447,-7.699999809265136,-45.3390007019043,0.7480000257492065,0.1180000007152557,-9.387000083923342,-0.977999985218048
1621937578457,-8.399999618530273,-44.125999450683594,2.739000082015991,0.0,-9.380000114440918,-1.0169999599456787
1621937578467,-8.050000190734863,-42.43899917602539,3.25,0.0,-9.458000183105469,-1.0299999713897705
1621937578477,-8.119999885559082,-40.66299819946289,2.8519999980926514,0.0390000008046627,-9.612000465393066,-1.0579999685287476
1621937578487,-8.260000228881836,-38.87900161743164,2.811000108718872,0.0390000008046627,-9.772999763488768,-1.0460000038146973
1621937578497,-8.399999618530273,-36.75,2.8310000896453857,0.1180000007152557,-9.95300006866455,-1.1579999923706057
1621937578507,-8.890000343322754,-34.92100143432617,1.7319999933242798,0.1570000052452087,-10.145999908447266,-1.1920000314712524
1621937578517,-9.3100004196167,-33.4370002746582,0.5720000267028807,0.1959999948740005,-10.392000198364258,-1.1549999713897705
1621937578527,-9.869999885559082,-32.643001556396484,-0.7089999914169312,0.2349999994039535,-10.42300033569336,-1.2009999752044678
1621937578537,-10.220000267028809,-32.018001556396484,-1.0260000228881836,0.3529999852180481,-10.345999717712402,-1.187000036239624
1621937578547,-10.779999732971191,-31.30900001525879,-0.6159999966621398,0.3919999897480011,-10.392000198364258,-1.1549999713897705
1621937578557,-10.779999732971191,-31.35700035095215,-0.3400000035762786,0.4309999942779541,-10.314000129699709,-1.1419999599456787
1621937578567,-10.710000038146973,-31.733999252319336,0.5879999995231628,0.4309999942779541,-10.321000099182127,-1.1030000448226929
1621937578577,-10.56999969482422,-32.922000885009766,3.2929999828338623,0.3529999852180481,-10.578000068664553,-1.2280000448226929
1621937578587,-10.43000030517578,-34.361000061035156,8.227999687194824,0.2750000059604644,-11.607000350952148,-1.4889999628067017
1621937578597,-10.359999656677246,-36.994998931884766,16.719999313354492,0.1180000007152557,-12.89799976348877,-1.3980000019073486
1621937578607,-12.31999969482422,-40.09600067138672,27.04800033569336,-0.3140000104904174,-12.630000114440918,-1.1119999885559082
1621937578617,-16.65999984741211,-40.027000427246094,29.47699928283691,-0.7450000047683715,-11.619000434875488,-0.9729999899864196
1621937578627,-15.399999618530272,-38.21500015258789,22.83099937438965,-0.7850000262260437,-11.574999809265137,-0.7659999728202819
1621937578637,-13.229999542236328,-38.43399810791016,22.863000869750977,-0.7450000047683715,-12.086999893188477,-0.578000009059906
1621937578647,-13.649999618530272,-39.64099884033203,30.11400032043457,-0.8629999756813049,-11.857000350952148,-0.2980000078678131
1621937578657,-12.880000114440918,-41.7130012512207,32.59199905395508,-1.1380000114440918,-11.336999893188477,-0.0869999974966049
1621937578667,-11.200000762939451,-42.577003479003906,30.236000061035156,-1.1770000457763672,-10.875,0.2329999953508377
1621937578677,-9.520000457763674,-43.44100189208984,27.8799991607666,-1.2549999952316284,-10.375,0.5600000023841857
1621937578687,-5.880000114440918,-45.86199951171875,25.888999938964844,-1.2940000295639038,-9.637000083923342,0.8899999856948853
1621937578697,-3.359999895095825,-47.779998779296875,26.687999725341797,-1.491000056266785,-8.82800006866455,1.2710000276565552
1621937578707,-0.7699999809265136,-49.47100067138672,25.395000457763672,-1.6480000019073486,-8.359999656677246,1.5529999732971191
1621937578717,1.6799999475479126,-50.667999267578125,20.493000030517575,-1.72599995136261,-8.303000450134277,1.6829999685287476
1621937578727,2.869999885559082,-51.9379997253418,18.42099952697754,-1.9220000505447388,-8.439000129699707,1.7779999971389773
1621937578737,2.0999999046325684,-52.73699951171875,18.920000076293945,-2.197000026702881,-8.6850004196167,1.815000057220459
1621937578747,0.699999988079071,-53.608001708984375,18.624000549316406,-2.431999921798706,-8.890999794006348,1.8580000400543213
1621937578757,-0.7699999809265136,-52.959999084472656,14.545000076293944,-2.628000020980835,-9.020999908447264,1.9149999618530271
1621937578767,-2.7300000190734863,-51.72800064086914,9.572999954223633,-2.8239998817443848,-9.161999702453612,1.809999942779541
1621937578777,-4.409999847412109,-49.51499938964844,4.2769999504089355,-2.9030001163482666,-9.315999984741213,1.7829999923706057
1621937578787,-6.090000152587891,-47.04999923706055,-2.0409998893737793,-2.941999912261963,-9.288999557495115,1.628000020980835
1621937578797,-6.71999979019165,-44.35900115966797,-8.03499984741211,-2.9030001163482666,-9.352999687194824,1.5369999408721924
1621937578807,-7.139999866485596,-41.869998931884766,-13.281999588012695,-2.864000082015991,-9.33199977874756,1.4220000505447388
1621937578817,-7.349999904632568,-39.95199966430664,-16.49799919128418,-2.8239998817443848,-9.312000274658203,1.305999994277954
1621937578827,-6.579999923706055,-38.39099884033203,-18.49799919128418,-2.746000051498413,-9.336999893188477,1.2220000028610227
1621937578837,-5.599999904632568,-37.56800079345703,-19.13400077819824,-2.7070000171661377,-9.406999588012695,1.1690000295639038
1621937578847,-3.990000009536743,-36.70000076293945,-18.413000106811523,-2.7070000171661377,-9.340999603271484,1.0219999551773071
1621937578857,-2.380000114440918,-35.37799835205078,-18.250999450683594,-2.746000051498413,-9.411999702453612,0.968999981880188
1621937578867,-1.5399999618530271,-34.250999450683594,-18.194000244140625,-2.7850000858306885,-9.50699996948242,0.8330000042915344
1621937578877,-2.380000114440918,-33.16400146484375,-17.5049991607666,-2.8239998817443848,-9.564000129699709,0.703000009059906
1621937578887,-2.940000057220459,-32.087501525878906,-17.56399917602539,-2.8239998817443848,-9.58899974822998,0.6190000176429749
1621937578897,-3.5,-31.01099967956543,-17.62299919128418,-2.8239998817443848,-9.536999702453612,0.5490000247955322
1621937578907,-4.550000190734863,-29.26300048828125,-18.665000915527344,-2.8239998817443848,-9.522999763488768,0.4720000028610229
1621937578917,-5.320000171661377,-27.73900032043457,-19.249000549316406,-2.7850000858306885,-9.362000465393066,0.4600000083446502
1621937578927,-5.949999809265137,-26.32799911499023,-18.78700065612793,-2.746000051498413,-9.187000274658203,0.3720000088214874
1621937578937,-6.090000152587891,-25.541000366210938,-19.21699905395508,-2.7070000171661377,-8.979999542236328,0.328000009059906
1621937578947,-5.670000076293945,-24.46299934387207,-20.093000411987305,-2.746000051498413,-8.87600040435791,0.1879999935626983
1621937578957,-4.96999979019165,-23.33099937438965,-21.67099952697754,-2.7070000171661377,-8.791999816894531,0.163000002503395
1621937578967,-3.9200000762939458,-21.957000732421875,-23.41900062561035,-2.6670000553131104,-8.72599983215332,0.0149999996647238
1621937578977,-3.569999933242798,-20.229999542236328,-24.749000549316406,-2.7070000171661377,-8.642000198364258,-0.0099999997764825
1621937578987,-2.940000057220459,-17.893999099731445,-25.900999069213867,-2.7070000171661377,-8.673999786376953,-0.0560000017285346
1621937578997,-2.1700000762939453,-15.631999969482422,-26.638999938964844,-2.6670000553131104,-8.621000289916992,-0.1260000020265579
1621937579007,-1.399999976158142,-14.102999687194824,-26.44099998474121,-2.6670000553131104,-8.729999542236328,-0.1850000023841857
1621937579017,-1.0499999523162842,-12.829999923706056,-26.003000259399418,-2.5889999866485596,-8.83899974822998,-0.2440000027418136
1621937579027,-0.8399999737739563,-12.715999603271484,-25.840999603271484,-2.431999921798706,-8.954999923706055,-0.2649999856948852
1621937579037,-0.5600000023841857,-12.666999816894531,-26.11599922180176,-2.3540000915527344,-8.994000434875488,-0.2709999978542327
1621937579047,0.0,-13.911999702453612,-27.118000030517575,-2.2750000953674316,-9.032999992370604,-0.277999997138977
1621937579057,0.9800000190734864,-15.210000038146973,-28.625999450683594,-2.197000026702881,-9.038999557495115,-0.2399999946355819
1621937579067,1.8899999856948853,-16.30900001525879,-30.454999923706055,-2.197000026702881,-8.968999862670898,-0.1870000064373016
1621937579077,3.5,-16.82900047302246,-32.75,-2.197000026702881,-8.814000129699707,-0.1599999964237213
1621937579087,4.409999847412109,-17.141000747680664,-35.007999420166016,-2.236000061035156,-8.821000099182129,-0.1209999993443489
1621937579097,4.900000095367432,-17.132999420166016,-35.86000061035156,-2.236000061035156,-8.82800006866455,-0.0829999968409538
1621937579107,5.074999809265137,-16.920499801635742,-35.858001708984375,-2.197000026702881,-8.911999702453613,-0.0579999983310699
1621937579117,5.25,-16.70800018310547,-35.85599899291992,-2.197000026702881,-9.072999954223633,-0.0460000000894069
1621937579127,4.480000019073486,-16.285999298095703,-35.42599868774414,-2.118000030517578,-9.189000129699709,-0.06700000166893
1621937579137,3.430000066757202,-16.114999771118164,-33.974998474121094,-1.9609999656677248,-9.312000274658203,-0.0489999987185001
1621937579147,2.869999885559082,-16.881999969482422,-33.25699996948242,-1.843999981880188,-9.343999862670898,-0.0939999967813491
1621937579157,2.380000114440918,-18.60099983215332,-31.56999969482422,-1.687000036239624,-9.4350004196167,-0.0299999993294477
1621937579167,1.9600000381469729,-20.385000228881836,-30.31999969482422,-1.569000005722046,-9.51900005340576,-0.0049999998882412
1621937579177,1.3300000429153442,-22.94300079345703,-28.709999084472656,-1.491000056266785,-9.642000198364256,0.0130000002682209
1621937579187,0.5600000023841857,-25.04700088500977,-26.451000213623047,-1.4119999408721924,-9.732000350952148,0.0759999975562095
1621937579197,-0.4900000095367431,-27.06999969482422,-24.249000549316406,-1.4119999408721924,-9.803000450134276,0.0240000002086162
1621937579207,-0.9800000190734864,-29.26799964904785,-23.072999954223633,-1.3730000257492063,-9.880000114440918,0.0099999997764825
1621937579217,-1.8200000524520872,-32.04600143432617,-22.638999938964844,-1.3339999914169312,-9.932000160217283,0.0810000002384185
1621937579227,-3.2899999618530273,-35.41899871826172,-22.45199966430664,-1.1380000114440918,-9.854999542236328,0.0949999988079071
1621937579237,-4.550000190734863,-39.757999420166016,-22.434999465942383,-0.8629999756813049,-9.770999908447264,0.0700000002980232
1621937579247,-5.320000171661377,-44.737998962402344,-21.60700035095215,-0.7059999704360961,-9.661999702453612,0.1289999932050705
1621937579257,-5.110000133514404,-49.92399978637695,-20.815000534057617,-0.5879999995231628,-9.770999908447264,0.0700000002980232
1621937579267,-4.690000057220459,-54.87900161743164,-18.91699981689453,-0.5490000247955322,-9.996000289916992,-0.0099999997764825
1621937579277,-3.990000009536743,-59.01900100708008,-15.595000267028809,-0.5099999904632568,-10.227999687194824,-0.0509999990463256
1621937579287,-3.6400001049041744,-62.31100082397461,-11.840000152587892,-0.5490000247955322,-10.678000450134276,-0.209999993443489
1621937579297,-4.480000019073486,-64.91000366210938,-9.597000122070312,-0.7450000047683715,-10.9350004196167,-0.3350000083446502
1621937579307,-4.059999942779541,-66.0739974975586,-10.654999732971191,-0.9020000100135804,-10.612000465393066,-0.3580000102519989
1621937579317,-2.7300000190734863,-66.7300033569336,-10.55799961090088,-0.981000006198883,-10.411999702453612,-0.3619999885559082
1621937579327,-1.75,-66.93900299072266,-9.17300033569336,-0.981000006198883,-10.612000465393066,-0.3580000102519989
1621937579337,-0.7699999809265136,-67.14800262451172,-7.788000106811523,-0.981000006198883,-11.036999702453612,-0.4320000112056732
1621937579347,2.0999999046325684,-68.6719970703125,-5.995999813079834,-1.0590000152587893,-11.166000366210938,-0.3759999871253967
1621937579357,5.039999961853027,-68.90799713134766,-9.093999862670898,-1.1380000114440918,-10.786999702453612,-0.2689999938011169
1621937579367,8.050000190734863,-67.99600219726562,-14.263999938964844,-1.0199999809265137,-10.406999588012695,-0.1620000004768371
1621937579377,10.220000267028809,-66.0989990234375,-17.76799964904785,-0.8240000009536743,-10.336999893188477,-0.1099999994039535
1621937579387,10.920000076293944,-63.694000244140625,-18.90800094604492,-0.7450000047683715,-10.329999923706056,-0.1490000039339065
1621937579397,11.6899995803833,-60.66600036621094,-21.57200050354004,-0.5099999904632568,-10.291000366210936,-0.1420000046491622
1621937579407,11.619999885559082,-56.64799880981445,-24.20400047302246,-0.3140000104904174,-10.130000114440918,-0.152999997138977
1621937579417,10.220000267028809,-52.92100143432618,-25.18199920654297,-0.1180000007152557,-9.944000244140623,-0.0799999982118606
1621937579427,8.050000190734863,-48.47700119018555,-24.184999465942383,0.0780000016093254,-9.67300033569336,-0.032999999821186
1621937579437,5.460000038146973,-44.051998138427734,-22.26799964904785,0.2750000059604644,-9.357000350952148,-0.0170000009238719
1621937579447,3.430000066757202,-39.790000915527344,-20.23699951171875,0.5490000247955322,-9.157999992370604,-0.0209999997168779
1621937579457,1.9600000381469729,-36.48500061035156,-18.018999099731445,0.8629999756813049,-9.086999893188477,0.0309999994933605
1621937579467,0.0,-33.500999450683594,-16.0,1.0980000495910645,-9.062000274658203,0.1150000020861625
1621937579477,-1.3300000429153442,-31.659000396728516,-14.751999855041504,1.3730000257492063,-9.10099983215332,0.1080000028014183
1621937579487,-2.240000009536743,-30.617000579833984,-14.213000297546388,1.6480000019073486,-9.1850004196167,0.1330000013113021
1621937579497,-1.8899999856948853,-30.621000289916992,-14.994999885559082,1.9220000505447388,-9.11400032043457,0.1850000023841857
1621937579507,-1.190000057220459,-31.51799964904785,-15.152999877929688,2.197000026702881,-9.121000289916992,0.2240000069141387
1621937579517,0.6299999952316284,-32.70600128173828,-14.864999771118164,2.3540000915527344,-9.314000129699709,0.1899999976158142
1621937579527,2.0299999713897705,-33.91400146484375,-14.864999771118164,2.431999921798706,-9.5600004196167,0.2259999960660934
1621937579537,2.869999885559082,-36.05500030517578,-14.815999984741213,2.549999952316284,-9.668999671936035,0.1669999957084655
1621937579547,3.184999942779541,-37.40299987792969,-14.02299976348877,2.6670000553131104,-9.869000434875488,0.1720000058412551
1621937579557,3.5,-38.750999450683594,-13.229999542236328,2.746000051498413,-9.92099952697754,0.2419999986886978
1621937579567,3.6400001049041744,-41.492000579833984,-10.586000442504885,2.8239998817443848,-9.87600040435791,0.209999993443489
1621937579577,3.569999933242798,-45.29499816894531,-7.559999942779541,2.864000082015991,-9.92099952697754,0.2419999986886978
1621937579587,3.359999895095825,-49.5,-4.677000045776367,2.746000051498413,-9.965999603271484,0.2739999890327453
1621937579597,2.5199999809265137,-53.34000015258789,-1.444000005722046,2.5889999866485596,-9.928000450134276,0.2809999883174896
1621937579607,1.75,-56.137001037597656,-0.0900000035762786,2.313999891281128,-9.857000350952148,0.3330000042915344
1621937579617,1.75,-58.20899963378906,-0.0280000008642673,2.0789999961853027,-9.619000434875488,0.3350000083446502
1621937579627,1.9600000381469729,-58.90299987792969,-0.9330000281333924,1.7649999856948853,-9.54800033569336,0.3880000114440918
1621937579637,2.1700000762939453,-58.9109992980957,-2.497999906539917,1.569000005722046,-9.432000160217283,0.4079999923706054
1621937579647,2.940000057220459,-58.051998138427734,-3.3410000801086426,1.4119999408721924,-9.354999542236328,0.4219999909400939
1621937579657,3.2200000286102295,-57.53300094604492,-3.4630000591278076,1.3730000257492063,-9.354999542236328,0.4219999909400939
1621937579666,2.5899999141693115,-57.41899871826172,-0.8840000033378601,1.3339999914169312,-9.470999717712402,0.4009999930858612
1621937579676,1.6799999475479126,-57.05699920654297,3.5160000324249268,1.215999960899353,-9.510000228881836,0.3939999938011169
1621937579686,0.3499999940395355,-56.13600158691406,5.952000141143799,1.0980000495910645,-9.510000228881836,0.3939999938011169
1621937579696,-0.6299999952316284,-55.005001068115234,6.791999816894531,0.9409999847412108,-9.510000228881836,0.3939999938011169
1621937579706,-1.2599999904632568,-53.40299987792969,6.577000141143799,0.8240000009536743,-9.425999641418455,0.3689999878406524
1621937579716,-1.0499999523162842,-51.70399856567382,5.809999942779541,0.7059999704360961,-9.39400005340576,0.4149999916553497
1621937579726,0.1400000005960464,-50.73899841308594,4.771999835968018,0.7059999704360961,-9.31700038909912,0.4280000030994415
1621937579736,1.5399999618530271,-49.4379997253418,3.437000036239624,0.6669999957084655,-9.322999954223633,0.4670000076293945
1621937579746,2.799999952316284,-47.970001220703125,2.7720000743865967,0.6280000209808348,-9.322999954223633,0.4670000076293945
1621937579756,3.429999828338623,-47.17749786376953,2.307500123977661,0.5879999995231628,-9.354999542236328,0.4219999909400939
1621937579766,4.059999942779541,-46.3849983215332,1.843000054359436,0.5099999904632568,-9.439000129699709,0.4469999969005584
1621937579776,5.389999866485596,-44.637001037597656,0.8009999990463256,0.5099999904632568,-9.477999687194824,0.4399999976158142
1621937579786,6.71999979019165,-42.90999984741211,0.6790000200271606,0.5490000247955322,-9.51599979400635,0.4329999983310699
1621937579796,8.1899995803833,-41.255001068115234,0.9710000157356262,0.5490000247955322,-9.562000274658203,0.4650000035762786
1621937579806,9.380000114440918,-39.19100189208984,0.5529999732971191,0.5099999904632568,-9.638999938964846,0.4510000050067901
1621937579816,10.5,-36.88800048828125,0.3899999856948852,0.4309999942779541,-9.6850004196167,0.4830000102519989
1621937579826,11.899999618530272,-34.220001220703125,-0.6320000290870667,0.3919999897480011,-9.697999954223633,0.5600000023841857
1621937579836,13.020000457763672,-31.211000442504883,-1.1679999828338623,0.3529999852180481,-9.652999877929688,0.5289999842643737
1621937579846,14.420000076293944,-28.413999557495117,-1.3140000104904177,0.2750000059604644,-9.550999641418455,0.6259999871253967
1621937579856,16.100000381469727,-25.708999633789062,-1.3350000381469729,0.2750000059604644,-9.58899974822998,0.6190000176429749
1621937579866,16.8700008392334,-22.66699981689453,-0.4429999887943267,0.1570000052452087,-9.666000366210936,0.606000006198883
1621937579876,16.799999237060547,-19.31399917602539,0.2910000085830688,0.0390000008046627,-9.697999954223633,0.5600000023841857
1621937579886,16.799999237060547,-15.125,0.3179999887943267,-0.0780000016093254,-9.845999717712402,0.4939999878406524
1621937579896,16.799999237060547,-9.850000381469728,-0.1729999929666519,-0.1959999948740005,-9.968999862670898,0.5130000114440918
1621937579906,17.56999969482422,-3.812000036239624,-0.955999970436096,-0.3529999852180481,-10.013999938964844,0.5440000295639038
1621937579916,18.829999923706055,2.1730000972747803,-2.246999979019165,-0.4309999942779541,-9.975000381469728,0.5509999990463256
1621937579926,20.020000457763672,8.045000076293945,-2.490999937057495,-0.4309999942779541,-10.0600004196167,0.5759999752044677
1621937579936,20.579999923706055,13.081000328063965,-3.23799991607666,-0.3529999852180481,-10.227999687194824,0.6259999871253967
1621937579946,20.510000228881836,17.47599983215332,-4.381999969482422,-0.2750000059604644,-10.30500030517578,0.6129999756813049
1621937579956,19.950000762939453,21.05299949645996,-5.315000057220459,-0.1180000007152557,-10.494000434875488,0.7789999842643737
1621937579966,19.98500061035156,22.62649917602539,-4.966500282287598,-0.1180000007152557,-10.996000289916992,0.6899999976158142
1621937579976,20.020000457763672,24.200000762939453,-4.618000030517578,-0.0390000008046627,-11.395999908447266,0.6990000009536743
1621937579986,19.38999938964844,25.972000122070312,-2.1730000972747803,-0.0780000016093254,-11.487000465393066,0.7630000114440918
1621937579996,18.40999984741211,27.597999572753903,-0.1089999973773956,-0.0780000016093254,-11.376999855041504,0.8220000267028807
1621937580006,17.920000076293945,29.468000411987305,-0.6330000162124633,-0.0390000008046627,-10.958999633789064,0.9350000023841856
1621937580016,17.149999618530273,31.67300033569336,-1.4520000219345093,0.0,-10.477999687194824,1.1399999856948853
1621937580026,17.010000228881836,33.810001373291016,-2.2839999198913574,0.0,-10.065999984741213,1.2920000553131104
1621937580036,16.309999465942383,35.643001556396484,-2.5999999046325684,0.0390000008046627,-9.647999763488768,1.406000018119812
1621937580046,15.890000343322754,36.3650016784668,-2.259999990463257,0.0390000008046627,-9.33899974822998,1.4600000381469729
1621937580056,15.050000190734863,35.88600158691406,-1.562000036239624,0.0780000016093254,-9.10099983215332,1.462000012397766
1621937580066,13.300000190734863,34.569000244140625,0.2669999897480011,0.0780000016093254,-8.95300006866455,1.5279999971389773
1621937580076,11.0600004196167,33.23500061035156,2.5910000801086426,0.0390000008046627,-8.939000129699707,1.4509999752044678
1621937580086,8.050000190734863,31.56100082397461,4.427999973297119,-0.0780000016093254,-9.17099952697754,1.4099999666213987
1621937580096,2.450000047683716,30.32799911499023,5.77400016784668,-0.1959999948740005,-9.512000083923342,1.309999942779541
1621937580106,-5.599999904632568,30.381000518798828,6.281000137329102,-0.3919999897480011,-9.873000144958496,1.3259999752044678
1621937580116,-14.770000457763672,30.55900001525879,5.672999858856201,-0.5099999904632568,-9.911999702453612,1.319000005722046
1621937580126,-22.75,30.98500061035156,4.4679999351501465,-0.5490000247955322,-9.694000244140623,1.437000036239624
1621937580136,-28.6299991607666,31.073999404907227,3.559999942779541,-0.4709999859333038,-9.42300033569336,1.4850000143051147
1621937580146,-31.219999313354492,29.739999771118164,4.675000190734863,-0.4309999942779541,-9.222999572753906,1.4809999465942385
1621937580156,-31.290000915527344,27.26300048828125,6.229000091552734,-0.3529999852180481,-8.913999557495117,1.5349999666213987
1621937580166,-30.135000228881836,25.523500442504883,7.02400016784668,-0.3140000104904174,-8.675999641418457,1.5369999408721924
1621937580176,-28.979999542236328,23.784000396728516,7.818999767303467,-0.3140000104904174,-8.48900032043457,1.6100000143051147
1621937580186,-24.63999938964844,19.947999954223633,9.416999816894531,-0.5879999995231628,-8.425999641418457,1.7009999752044678
1621937580196,-18.899999618530273,17.35700035095215,9.600000381469728,-0.981000006198883,-8.60099983215332,1.7899999618530271
1621937580206,-13.020000457763672,16.520999908447266,7.888999938964843,-1.3730000257492063,-8.975000381469727,1.8830000162124632
1621937580216,-7.630000114440918,17.121000289916992,5.293000221252441,-1.8040000200271609,-9.42099952697754,1.924000024795532
1621937580226,-3.6400001049041744,18.95800018310547,3.3429999351501465,-2.197000026702881,-9.75699996948242,2.0239999294281006
1621937580236,-2.380000114440918,22.95199966430664,2.056999921798706,-2.510999917984009,-9.95300006866455,2.2279999256134033
1621937580246,-2.450000047683716,27.659000396728516,0.7540000081062316,-2.6670000553131104,-10.036999702453612,2.253000020980835
1621937580256,-2.6600000858306885,32.61000061035156,-0.7179999947547911,-2.8239998817443848,-10.050000190734863,2.3310000896453857
1621937580266,-3.359999895095825,37.375,-1.9390000104904177,-3.0199999809265137,-9.947999954223633,2.427999973297119
1621937580276,-3.359999895095825,42.87300109863281,-2.888999938964844,-3.25600004196167,-9.92300033569336,2.51200008392334
1621937580286,-2.799999952316284,48.334999084472656,-4.840000152587891,-3.372999906539917,-10.006999969482422,2.5369999408721924
1621937580296,-3.1500000953674316,53.21599960327149,-8.741999626159668,-3.372999906539917,-10.04599952697754,2.5309998989105225
1621937580306,-3.359999895095825,57.44499969482422,-12.972000122070312,-3.2170000076293945,-9.902999877929688,2.3959999084472656
1621937580316,-4.340000152587891,60.266998291015625,-16.881000518798828,-2.9809999465942383,-9.812000274658203,2.3329999446868896
1621937580326,-5.949999809265137,61.4379997253418,-20.299999237060547,-2.7070000171661377,-9.66800022125244,2.1989998817443848
1621937580336,-7.070000171661377,61.222999572753906,-23.11000061035156,-2.1570000648498535,-9.446000099182127,1.8400000333786013
1621937580346,-7.980000019073486,59.292999267578125,-25.867000579833984,-2.0399999618530273,-9.449999809265137,1.6399999856948853
1621937580356,-8.609999656677246,57.14300155639648,-28.59199905395508,-1.8830000162124632,-9.468999862670898,1.5169999599456787
1621937580366,-9.9399995803833,55.382999420166016,-31.104999542236328,-1.843999981880188,-9.524999618530272,1.3869999647140503
1621937580376,-10.744999885559082,54.82099914550781,-32.55500030517578,-1.843999981880188,-9.564000129699709,1.38100004196167
1621937580386,-11.550000190734863,54.25899887084961,-34.005001068115234,-1.7649999856948853,-9.562000274658203,1.1419999599456787
1621937580396,-14.0,53.869998931884766,-36.63199996948242,-1.6080000400543213,-9.53499984741211,0.9879999756813048
1621937580406,-16.8700008392334,53.69900131225586,-38.08399963378906,-1.4509999752044678,-9.585000038146973,0.8190000057220459
1621937580416,-20.09000015258789,53.14799880981445,-36.972999572753906,-1.2940000295639038,-9.666000366210936,0.606000006198883
1621937580426,-23.729999542236328,52.2400016784668,-34.64500045776367,-1.1380000114440918,-9.645999908447264,0.4900000095367431
1621937580436,-26.11000061035156,50.354000091552734,-33.62699890136719,-0.9409999847412108,-9.510000228881836,0.3939999938011169
1621937580446,-26.38999938964844,47.28099822998047,-33.52899932861328,-0.8629999756813049,-9.411999702453612,0.2919999957084655
1621937580456,-24.850000381469727,43.198001861572266,-31.334999084472656,-0.8629999756813049,-9.25100040435791,0.2809999883174896
1621937580466,-21.979999542236328,39.402000427246094,-29.160999298095703,-0.9020000100135804,-9.11400032043457,0.1850000023841857
1621937580476,-18.270000457763672,35.65599822998047,-28.47100067138672,-0.9409999847412108,-9.107999801635742,0.1469999998807907
1621937580486,-14.630000114440918,32.52899932861328,-27.67200088500977,-0.981000006198883,-9.079999923706056,-0.0080000003799796
1621937580496,-11.970000267028809,30.28700065612793,-26.645999908447266,-0.981000006198883,-9.272999763488768,-0.0419999994337558
1621937580506,-10.010000228881836,28.48699951171875,-24.902000427246097,-0.9409999847412108,-9.45300006866455,-0.152999997138977
1621937580516,-9.520000457763674,26.468000411987305,-23.125,-0.8629999756813049,-9.638999938964846,-0.2259999960660934
1621937580526,-9.869999885559082,24.375999450683594,-20.934999465942383,-0.8240000009536743,-9.772999763488768,-0.3689999878406524
1621937580536,-10.289999961853027,21.440000534057617,-18.395999908447266,-0.7450000047683715,-9.79800033569336,-0.453000009059906
1621937580546,-11.0600004196167,18.305999755859375,-15.536999702453612,-0.7059999704360961,-9.836999893188477,-0.4600000083446502
1621937580556,-11.619999885559082,14.980999946594238,-13.208999633789064,-0.6669999957084655,-9.822999954223633,-0.537000000476837
1621937580566,-11.970000267028809,11.86299991607666,-12.053000450134276,-0.7059999704360961,-9.822999954223633,-0.537000000476837
1621937580576,-12.460000038146973,9.479000091552734,-10.625,-0.7850000262260437,-9.901000022888184,-0.5509999990463256
1621937580586,-12.914999961853027,8.544500350952148,-10.363500595092772,-0.9409999847412108,-9.939000129699709,-0.5580000281333923
1621937580596,-13.369999885559082,7.610000133514405,-10.10200023651123,-0.9409999847412108,-9.81700038909912,-0.5759999752044677
1621937580606,-14.630000114440918,6.543000221252441,-10.503000259399414,-0.9020000100135804,-9.81700038909912,-0.5759999752044677
1621937580616,-15.470000267028809,5.980000019073486,-10.531999588012695,-0.7850000262260437,-9.78499984741211,-0.5299999713897705
1621937580626,-16.030000686645508,5.011000156402588,-10.276000022888184,-0.6280000209808348,-9.630000114440918,-0.5030000209808348
1621937580636,-16.239999771118164,2.747999906539917,-9.538000106811523,-0.3919999897480011,-9.553000450134276,-0.488999992609024
1621937580646,-15.539999961853027,-0.2809999883174896,-8.081999778747559,-0.3529999852180481,-9.513999938964846,-0.4830000102519989
1621937580656,-14.489999771118164,-3.9830000400543217,-6.0329999923706055,-0.2750000059604644,-9.513999938964846,-0.4830000102519989
1621937580666,-13.300000190734863,-8.467000007629395,-3.9809999465942383,-0.1959999948740005,-9.437000274658203,-0.4690000116825103
1621937580676,-11.899999618530272,-12.550000190734863,-1.7869999408721924,-0.1180000007152557,-9.29599952697754,-0.3650000095367431
1621937580686,-10.56999969482422,-16.864999771118164,0.5090000033378601,-0.1180000007152557,-9.187000274658203,-0.3050000071525573
1621937580696,-9.170000076293944,-20.513999938964844,3.063999891281128,-0.0780000016093254,-9.085000038146973,-0.2080000042915344
1621937580706,-7.630000114440918,-24.048999786376953,5.7820000648498535,0.0,-8.904999732971191,-0.096000000834465
1621937580716,-5.880000114440918,-27.41900062561035,7.960000038146973,0.0780000016093254,-8.595999717712402,-0.0419999994337558
1621937580726,-4.059999942779541,-30.85700035095215,10.12600040435791,0.2349999994039535,-8.479999542236328,-0.0219999998807907
1621937580736,-3.0799999237060547,-34.81800079345703,12.83899974822998,0.3529999852180481,-8.595999717712402,-0.0419999994337558
1621937580746,-2.7300000190734863,-39.11600112915039,15.847999572753906,0.3919999897480011,-8.673999786376953,-0.0560000017285346
1621937580756,-4.690000057220459,-49.34600067138672,20.655000686645508,0.4709999859333038,-8.958000183105469,-0.0260000005364418
1621937580766,-6.019999980926514,-55.505001068115234,24.54400062561035,0.5099999904632568,-9.272999763488768,-0.0419999994337558
1621937580776,-6.789999961853027,-62.34199905395508,28.243999481201172,0.6280000209808348,-10.20699977874756,-0.1669999957084655
1621937580786,-6.929999828338623,-69.88300323486328,33.52399826049805,0.7850000262260437,-11.359000205993652,-0.4099999964237213
1621937580796,-6.789999961853027,-74.44650268554688,37.233001708984375,0.7450000047683715,-12.154999732971191,-0.1909999996423721
1621937580806,-6.650000095367432,-79.01000213623047,40.94200134277344,0.6280000209808348,-11.286999702453612,0.0810000002384185
1621937580816,-8.329999923706055,-89.63300323486328,45.9640007019043,0.7059999704360961,-10.006999969482422,0.5059999823570251
1621937580826,-8.050000190734863,-99.0770034790039,47.92399978637695,0.5490000247955322,-9.244000434875488,0.9190000295639038
1621937580836,-5.599999904632568,-106.15699768066406,50.584999084472656,0.1570000052452087,-8.852999687194824,1.187000036239624
1621937580846,-3.0799999237060547,-110.65399932861328,50.28900146484375,-0.3140000104904174,-8.880000114440918,1.3420000076293943
1621937580856,-0.1400000005960464,-113.177001953125,42.025001525878906,-0.6280000209808348,-9.385000228881836,1.4919999837875366
1621937580866,2.6600000858306885,-113.41000366210936,31.250999450683594,-0.8240000009536743,-9.779999732971191,1.7009999752044678
1621937580876,3.1500000953674316,-111.302001953125,24.941999435424805,-1.0199999809265137,-9.800000190734863,1.8170000314712524
1621937580886,3.990000009536743,-108.11900329589844,20.597999572753903,-1.1770000457763672,-9.82800006866455,1.9709999561309817
1621937580896,5.320000171661377,-104.85199737548828,16.981000900268555,-1.215999960899353,-9.732000350952148,2.1080000400543213
1621937580906,6.650000095367432,-101.74099731445312,16.676000595092773,-1.0590000152587893,-9.553000450134276,2.2190001010894775
1621937580916,8.119999885559082,-99.50299835205078,18.492000579833984,-0.9409999847412108,-9.604999542236328,2.2899999618530273
1621937580926,8.819999694824219,-97.49500274658205,20.40999984741211,-0.9409999847412108,-9.843000411987305,2.2869999408721924
1621937580936,6.929999828338623,-95.15200042724608,19.614999771118164,-0.981000006198883,-10.093000411987305,2.124000072479248
1621937580946,2.5899999141693115,-93.052001953125,15.364999771118164,-1.0590000152587893,-10.324999809265137,2.0829999446868896
1621937580956,-3.009999990463257,-89.90599822998047,10.020000457763672,-1.1770000457763672,-10.371000289916992,2.115000009536743
1621937580966,-9.170000076293944,-85.60800170898438,4.593999862670898,-1.2940000295639038,-10.36400032043457,2.075999975204468
1621937580976,-14.279999732971191,-80.45899963378906,0.3840000033378601,-1.3339999914169312,-10.234000205993652,2.0190000534057617
1621937580986,-15.75,-78.02400207519531,-0.9279999732971193,-1.3730000257492063,-10.13700008392334,1.9170000553131104
1621937580996,-17.219999313354492,-75.58899688720702,-2.240000009536743,-1.2940000295639038,-9.83899974822998,1.809999942779541
1621937581006,-18.690000534057617,-71.10900115966797,-2.6579999923706055,-1.215999960899353,-9.593999862670898,1.77400004863739
1621937581016,-18.200000762939453,-68.02300262451172,-0.4079999923706054,-1.0590000152587893,-9.340999603271484,1.6990000009536743
1621937581026,-15.81999969482422,-66.43199920654297,3.071000099182129,-0.9020000100135804,-9.211999893188477,1.6419999599456787
1621937581036,-13.789999961853027,-66.00599670410156,6.699999809265137,-0.8629999756813049,-9.244000434875488,1.5959999561309814
1621937581166,-1.9600000381469729,-37.709999084472656,-19.94099998474121,-2.0399999618530273,-9.793999671936035,1.7779999971389773
1621937581176,-2.380000114440918,-32.04600143432617,-23.847000122070312,-2.0399999618530273,-9.940999984741213,1.712000012397766
1621937581186,-3.2899999618530273,-26.909000396728516,-27.988000869750977,-1.9609999656677248,-9.88199996948242,1.6030000448226929
1621937581196,-4.96999979019165,-21.357999801635746,-32.055999755859375,-1.843999981880188,-9.746000289916992,1.5080000162124634
1621937581206,-5.880000114440918,-16.39900016784668,-35.5880012512207,-1.72599995136261,-9.75699996948242,1.3470000028610227
1621937581216,-6.650000095367432,-11.159999847412108,-37.08100128173828,-1.6080000400543213,-9.82800006866455,1.2940000295639038
1621937581226,-7.630000114440918,-6.2820000648498535,-36.93199920654297,-1.4119999408721924,-9.781999588012695,1.2630000114440918
1621937581236,-8.260000228881836,-1.7280000448226929,-36.555999755859375,-1.2549999952316284,-9.76900005340576,1.184999942779541
1621937581246,-8.119999885559082,2.2860000133514404,-35.137001037597656,-0.981000006198883,-9.715999603271484,1.1150000095367432
1621937581256,-8.119999885559082,4.954999923706055,-32.534000396728516,-0.8240000009536743,-9.67099952697754,1.0829999446868896
1621937581266,-7.8400001525878915,7.181000232696533,-29.440000534057617,-0.7450000047683715,-9.54800033569336,1.065000057220459
1621937581276,-7.699999809265136,8.317000389099121,-27.81800079345703,-0.7059999704360961,-9.53499984741211,0.9879999756813048
1621937581286,-7.630000114440918,9.17300033569336,-27.027999877929688,-0.7059999704360961,-9.585000038146973,0.8190000057220459
1621937581296,-8.260000228881836,9.659000396728516,-26.15999984741211,-0.6669999957084655,-9.873000144958496,0.6489999890327453
1621937581305,-9.239999771118164,10.300000190734863,-25.76300048828125,-0.6669999957084655,-10.097999572753906,0.5690000057220459
1621937581315,-9.484999656677246,10.36299991607666,-26.320499420166016,-0.6669999957084655,-10.085000038146973,0.492000013589859
1621937581325,-9.729999542236328,10.425999641418455,-26.878000259399418,-0.5490000247955322,-9.961999893188477,0.4740000069141387
1621937581335,-9.100000381469728,10.42099952697754,-28.868999481201172,-0.3919999897480011,-9.89099979400635,0.5260000228881835
1621937581345,-7.139999866485596,9.654999732971191,-29.358999252319336,-0.3529999852180481,-9.781999588012695,0.5849999785423278
1621937581355,-5.670000076293945,9.196999549865724,-28.374000549316406,-0.2750000059604644,-9.628000259399414,0.6129999756813049
1621937581365,-3.7100000381469727,8.081999778747559,-28.5,-0.2750000059604644,-9.557000160217283,0.6650000214576721
1621937581375,-2.240000009536743,7.440999984741211,-28.89699935913086,-0.3140000104904174,-9.595999717712402,0.6579999923706054
1621937581385,-2.450000047683716,7.245999813079834,-29.00200080871582,-0.3919999897480011,-9.75699996948242,0.6690000295639038
1621937581395,-3.0799999237060547,7.749000072479248,-28.628999710083008,-0.4709999859333038,-9.95699977874756,0.6740000247955322
1621937581405,-4.059999942779541,9.460000038146973,-28.256000518798828,-0.5879999995231628,-10.072999954223633,0.6539999842643737
1621937581415,-5.670000076293945,10.482000350952148,-28.0049991607666,-0.5879999995231628,-10.119000434875488,0.6850000023841857
1621937581425,-7.0,11.845000267028809,-26.05900001525879,-0.7059999704360961,-9.996000289916992,0.6669999957084655
1621937581435,-8.050000190734863,13.715000152587892,-24.166000366210938,-0.9020000100135804,-9.854999542236328,0.7720000147819519
1621937581445,-8.680000305175781,16.97100067138672,-22.881000518798828,-1.1380000114440918,-9.732000350952148,0.7530000209808348
1621937581455,-8.960000038146973,22.016000747680664,-22.062000274658203,-1.4509999752044678,-9.661999702453612,0.8059999942779541
1621937581465,-9.065000534057615,25.347000122070312,-22.007999420166016,-1.687000036239624,-9.661999702453612,0.8059999942779541
1621937581475,-9.170000076293944,28.67799949645996,-21.95400047302246,-1.9220000505447388,-9.661999702453612,0.8059999942779541
1621937581485,-9.029999732971191,37.119998931884766,-21.459999084472656,-2.118000030517578,-9.585000038146973,0.8190000057220459
1621937581495,-9.029999732971191,46.75899887084961,-20.89800071716309,-2.2750000953674316,-9.538999557495115,0.7879999876022338
1621937581505,-9.029999732971191,57.20100021362305,-20.052000045776367,-2.431999921798706,-9.461999893188477,0.8009999990463256
1621937581515,-8.819999694824219,68.60399627685547,-18.61000061035156,-2.628000020980835,-9.43000030517578,0.847000002861023
1621937581525,-8.050000190734863,81.08100128173828,-17.618000030517578,-2.864000082015991,-9.451000213623049,0.9629999995231628
1621937581535,-7.210000038146973,95.12000274658205,-17.41699981689453,-3.2950000762939453,-9.51599979400635,1.1100000143051147
1621937581545,-7.0,111.75299835205078,-17.825000762939453,-3.7660000324249263,-9.744000434875488,1.2690000534057615
1621937581555,-7.769999980926514,131.56900024414062,-20.159000396728516,-3.961999893188477,-9.918999671936035,1.3580000400543213
1621937581565,-7.559999942779541,151.2270050048828,-25.222999572753903,-3.8050000667572026,-10.029999732971191,1.5369999408721924
1621937581575,-7.980000019073486,168.16400146484375,-29.770999908447266,-3.2170000076293945,-9.972999572753906,1.6670000553131104
1621937581585,-8.960000038146973,181.5989990234375,-30.173999786376953,-2.4709999561309814,-9.772999763488768,1.6619999408721924
1621937581595,-9.3100004196167,190.42300415039065,-27.40999984741211,-1.7649999856948853,-9.689000129699709,1.6369999647140503
1621937581605,-9.239999771118164,195.08200073242188,-24.81100082397461,-1.1380000114440918,-9.630000114440918,1.5279999971389773
1621937581615,-9.274999618530272,195.57699584960935,-24.19099998474121,-0.5490000247955322,-9.538999557495115,1.4650000333786013
1621937581625,-9.3100004196167,196.0720062255859,-23.570999145507812,-0.0390000008046627,-9.479999542236328,1.3559999465942385
1621937581635,-9.100000381469728,194.2270050048828,-23.184999465942383,0.3919999897480011,-9.472999572753906,1.3170000314712524
1621937581645,-8.75,190.6580047607422,-23.104000091552734,0.7850000262260437,-9.362000465393066,1.1369999647140503
1621937581655,-7.8400001525878915,185.5449981689453,-22.72599983215332,1.2549999952316284,-9.25699996948242,0.996999979019165
1621937581665,-6.929999828338623,178.59100341796875,-22.38800048828125,1.72599995136261,-9.32800006866455,0.944000005722046
1621937581675,-5.809999942779541,169.64599609375,-20.83799934387207,2.0789999961853027,-9.286999702453612,0.7129999995231628
1621937581685,-4.760000228881836,158.83200073242188,-17.555999755859375,2.2750000953674316,-9.253000259399414,0.5189999938011169
1621937581695,-3.5,146.6219940185547,-15.230999946594238,2.431999921798706,-9.3100004196167,0.3899999856948852
1621937581705,-2.309999942779541,133.98300170898435,-12.484000205993652,2.3929998874664307,-9.404999732971191,0.2540000081062316
1621937581715,-1.3300000429153442,121.5510025024414,-9.699999809265137,2.3540000915527344,-9.50699996948242,0.1560000032186508
1621937581725,-1.0499999523162842,109.81600189208984,-6.438000202178955,2.197000026702881,-9.647999763488768,0.0509999990463256
1621937581735,-1.2599999904632568,99.0790023803711,-5.203999996185303,1.9220000505447388,-9.718999862670898,-0.0010000000474974
1621937581745,-2.7300000190734863,89.87000274658203,-4.980000019073486,1.6480000019073486,-9.79599952697754,-0.0149999996647238
1621937581755,-3.7799999713897705,82.79000091552734,-5.943999767303467,1.4509999752044678,-9.873000144958496,-0.0280000008642673
1621937581765,-4.409999847412109,79.40800476074219,-6.113999843597412,1.3339999914169312,-9.866000175476074,-0.06700000166893
1621937581775,-5.039999961853027,76.0260009765625,-6.283999919891357,1.1770000457763672,-9.82800006866455,-0.0599999986588954
1621937581785,-6.159999847412109,69.25399780273438,-5.771999835968018,1.1380000114440918,-9.75100040435791,-0.0460000000894069
1621937581795,-6.860000133514404,62.81100082397461,-4.703999996185303,1.0980000495910645,-9.697999954223633,-0.1169999986886978
1621937581805,-6.650000095367432,56.44100189208984,-2.8420000076293945,1.0199999809265137,-9.645999908447264,-0.1870000064373016
1621937581815,-5.880000114440918,50.3380012512207,-1.287999987602234,0.8240000009536743,-9.60099983215332,-0.2189999967813491
1621937581825,-4.550000190734863,45.0099983215332,-0.0949999988079071,0.6669999957084655,-9.593999862670898,-0.2579999864101409
1621937581835,-2.940000057220459,40.027000427246094,1.1579999923706057,0.5099999904632568,-9.55500030517578,-0.2509999871253967
1621937581845,-1.399999976158142,35.4370002746582,0.9890000224113464,0.4309999942779541,-9.522999763488768,-0.2049999982118606
1621937581855,0.2800000011920929,31.843999862670895,0.0,0.2750000059604644,-9.562000274658203,-0.2119999974966049
1621937581865,1.399999976158142,28.385000228881836,-1.7480000257492063,0.1959999948740005,-9.562000274658203,-0.2119999974966049
1621937581875,1.9600000381469729,25.72800064086914,-3.2109999656677246,0.0780000016093254,-9.60099983215332,-0.2189999967813491
1621937581885,2.1700000762939453,23.79400062561035,-4.334000110626221,0.0390000008046627,-9.60099983215332,-0.2189999967813491
1621937581895,2.309999942779541,22.114999771118164,-5.696000099182129,0.0390000008046627,-9.678000450134276,-0.2329999953508377
1621937581905,2.0999999046325684,20.38400077819824,-6.35699987411499,0.0780000016093254,-9.722999572753906,-0.2010000050067901
1621937581915,2.0299999713897705,18.68400001525879,-6.798999786376953,0.0,-9.76900005340576,-0.1689999997615814
1621937581925,1.8899999856948853,18.303001403808594,-6.6529998779296875,-0.0390000008046627,-9.807000160217283,-0.1759999990463256
1621937581935,1.75,17.922000885009766,-6.506999969482422,-0.1180000007152557,-9.800999641418455,-0.2150000035762786
1621937581945,1.3300000429153442,16.652999877929688,-6.1620001792907715,-0.1570000052452087,-9.814000129699709,-0.1369999945163726
1621937581955,0.9800000190734864,15.918999671936035,-6.433000087738037,-0.1959999948740005,-9.814000129699709,-0.1369999945163726
1621937581965,0.9800000190734864,15.598999977111816,-6.631999969482422,-0.2349999994039535,-9.859999656677246,-0.1049999967217445
1621937581975,0.4199999868869781,15.496999740600586,-6.86299991607666,-0.2349999994039535,-9.904999732971191,-0.0740000009536743
1621937581985,-0.209999993443489,15.534000396728516,-7.070000171661377,-0.2349999994039535,-9.904999732971191,-0.0740000009536743
1621937581995,-0.8399999737739563,16.041000366210938,-7.123000144958496,-0.2349999994039535,-9.904999732971191,-0.0740000009536743
1621937582005,-1.8200000524520872,16.21500015258789,-7.304999828338623,-0.2349999994039535,-9.951000213623049,-0.0419999994337558
1621937582015,-2.6600000858306885,16.364999771118164,-7.349999904632568,-0.2349999994039535,-9.982000350952148,-0.0869999974966049
1621937582025,-3.7799999713897705,16.23900032043457,-7.442999839782715,-0.1959999948740005,-9.937000274658203,-0.1190000027418136
1621937582035,-4.690000057220459,16.145999908447266,-7.316999912261963,-0.1570000052452087,-9.89099979400635,-0.1509999930858612
1621937582045,-5.039999961853027,15.534000396728516,-7.070000171661377,-0.0390000008046627,-9.793999671936035,-0.2529999911785125
1621937582055,-5.179999828338623,14.394000053405762,-7.058000087738037,0.0,-9.762000083923342,-0.2080000042915344
1621937582065,-5.179999828338623,12.744000434875488,-6.566999912261963,0.0390000008046627,-9.717000007629396,-0.2399999946355819
1621937582075,-4.619999885559082,10.862000465393066,-5.974999904632568,0.0,-9.717000007629396,-0.2399999946355819
1621937582085,-4.199999809265137,9.053999900817873,-5.796000003814697,-0.0390000008046627,-9.63199996948242,-0.2649999856948852
1621937582095,-3.7100000381469727,7.764999866485595,-5.738999843597412,-0.0390000008046627,-9.67099952697754,-0.2709999978542327
1621937582105,-3.570000171661377,7.381500244140625,-5.984000205993652,-0.1180000007152557,-9.748000144958496,-0.2849999964237213
1621937582115,-3.430000066757202,6.998000144958496,-6.229000091552734,-0.1180000007152557,-9.710000038146973,-0.277999997138977
1621937582125,-3.6400001049041744,6.195000171661377,-6.513000011444092,-0.1570000052452087,-9.67099952697754,-0.2709999978542327
1621937582135,-3.7799999713897705,6.078000068664551,-6.25,-0.1959999948740005,-9.593999862670898,-0.2579999864101409
1621937582145,-3.6400001049041744,5.7820000648498535,-6.585999965667725,-0.2349999994039535,-9.586999893188477,-0.2960000038146972
1621937582155,-3.569999933242798,5.854000091552734,-7.0,-0.2349999994039535,-9.54800033569336,-0.2899999916553497
1621937582165,-2.799999952316284,6.178999900817871,-7.2270002365112305,-0.1959999948740005,-9.517000198364256,-0.2440000027418136
1621937582175,-1.399999976158142,6.4670000076293945,-7.247000217437744,-0.1570000052452087,-9.54800033569336,-0.2899999916553497
1621937582185,-1.2599999904632568,6.263999938964844,-7.709000110626221,-0.0780000016093254,-9.656999588012695,-0.3490000069141387
1621937582195,-0.7699999809265136,6.178999900817871,-7.2270002365112305,-0.0780000016093254,-9.734999656677246,-0.3619999885559082
1621937582205,-0.4900000095367431,6.0,-6.61899995803833,-0.0390000008046627,-9.793999671936035,-0.2529999911785125
1621937582215,-0.7699999809265136,5.501999855041504,-6.209000110626221,-0.0780000016093254,-9.710000038146973,-0.277999997138977
1621937582225,-0.1400000005960464,4.86899995803833,-6.249000072479248,-0.0390000008046627,-9.63199996948242,-0.2649999856948852
1621937582235,0.699999988079071,3.9449999332427974,-5.843999862670898,-0.0390000008046627,-9.562000274658203,-0.2119999974966049
1621937582245,1.5399999618530271,2.9590001106262207,-6.302000045776367,-0.0390000008046627,-9.569000244140623,-0.1739999949932098
1621937582255,2.940000057220459,2.2090001106262207,-6.078999996185303,0.0,-9.645999908447264,-0.1870000064373016
1621937582265,4.340000152587891,0.7739999890327453,-5.195000171661377,0.0,-9.65999984741211,-0.1099999994039535
1621937582275,4.96999979019165,-0.3540000021457672,-5.250999927520752,-0.0390000008046627,-9.744000434875488,-0.0850000008940696
1621937582285,5.074999809265137,-1.0290000438690186,-5.05049991607666,-0.0780000016093254,-9.821000099182127,-0.0989999994635581
1621937582295,5.179999828338623,-1.7039999961853027,-4.849999904632568,-0.0780000016093254,-9.82800006866455,-0.0599999986588954
1621937582305,4.619999885559082,-2.7249999046325684,-3.8919999599456783,-0.1180000007152557,-9.866000175476074,-0.06700000166893
1621937582315,4.130000114440918,-3.650000095367432,-3.486999988555908,-0.1570000052452087,-9.873000144958496,-0.0280000008642673
1621937582325,3.6400001049041744,-4.485000133514404,-3.989000082015991,-0.1959999948740005,-9.873000144958496,-0.0280000008642673
1621937582335,2.6600000858306885,-5.171000003814697,-4.5370001792907715,-0.1180000007152557,-9.89400005340576,0.0879999995231628
1621937582345,1.4700000286102295,-5.547999858856201,-4.816999912261963,-0.0780000016093254,-9.89400005340576,0.0879999995231628
1621937582355,0.6299999952316284,-5.620999813079834,-5.611000061035156,-0.0780000016093254,-9.906999588012695,0.1650000065565109
1621937582365,0.0700000002980232,-6.25,-6.078000068664551,-0.0780000016093254,-9.89400005340576,0.0879999995231628
1621937582375,-0.6299999952316284,-6.942999839782715,-5.7729997634887695,-0.0390000008046627,-9.847999572753906,0.0560000017285346
1621937582385,-1.0499999523162842,-8.196000099182129,-5.922999858856201,0.0,-9.880000114440918,0.0099999997764825
1621937582395,-1.4700000286102295,-9.413000106811523,-6.28000020980835,-0.0390000008046627,-9.911999702453612,-0.0350000001490116
1621937582405,-1.9600000381469729,-11.010000228881836,-6.491000175476074,0.0,-9.904999732971191,-0.0740000009536743
1621937582415,-2.7300000190734863,-12.482000350952148,-6.607999801635742,0.0,-9.866000175476074,-0.06700000166893
1621937582425,-3.2200000286102295,-13.58899974822998,-6.376999855041504,-0.0390000008046627,-9.79599952697754,-0.0149999996647238
1621937582435,-3.569999933242798,-14.947999954223633,-6.331999778747559,0.0,-9.788999557495115,-0.0529999993741512
1621937582445,-3.849999904632568,-16.249000549316406,-6.205999851226807,0.0,-9.75699996948242,-0.0080000003799796
1621937582455,-3.5,-17.90399932861328,-5.289000034332275,0.0390000008046627,-9.718999862670898,-0.0010000000474974
1621937582465,-2.869999885559082,-19.76499938964844,-4.408999919891357,0.1180000007152557,-9.642000198364256,0.0130000002682209
1621937582475,-2.6600000858306885,-21.885000228881836,-4.072000026702881,0.1570000052452087,-9.642000198364256,0.0130000002682209
1621937582485,-1.6799999475479126,-24.2450008392334,-3.990999937057495,0.2349999994039535,-9.602999687194824,0.0199999995529651
1621937582495,-1.2599999904632568,-25.854999542236328,-4.132500171661377,0.3529999852180481,-9.564000129699709,0.0260000005364418
1621937582505,-0.8399999737739563,-27.46500015258789,-4.27400016784668,0.4709999859333038,-9.531999588012695,0.0719999969005584
1621937582515,0.0700000002980232,-31.584999084472656,-4.289999961853027,0.5099999904632568,-9.538999557495115,0.1099999994039535
1621937582525,0.8399999737739563,-36.402000427246094,-3.575000047683716,0.5879999995231628,-9.50100040435791,0.1169999986886978
1621937582535,1.4700000286102295,-41.689998626708984,-3.015000104904175,0.5490000247955322,-9.468999862670898,0.163000002503395
1621937582545,2.1700000762939453,-47.321998596191406,-2.5160000324249268,0.4709999859333038,-9.47599983215332,0.2010000050067901
1621937582555,3.359999895095825,-52.375,-2.4820001125335693,0.3919999897480011,-9.482000350952148,0.2399999946355819
1621937582565,4.340000152587891,-57.20800018310547,-2.4820001125335693,0.2750000059604644,-9.5600004196167,0.2259999960660934
1621937582575,5.039999961853027,-61.55899810791016,-2.3959999084472656,0.1570000052452087,-9.604999542236328,0.2579999864101409
1621937582585,5.880000114440918,-65.1520004272461,-2.177000045776367,0.0780000016093254,-9.689000129699709,0.2829999923706054
1621937582595,6.019999980926514,-68.08399963378906,-2.4800000190734863,-0.0390000008046627,-9.741000175476074,0.3540000021457672
1621937582605,5.53000020980835,-70.53299713134766,-2.6989998817443848,-0.1180000007152557,-9.786999702453612,0.3849999904632568
1621937582615,4.96999979019165,-72.11399841308594,-2.196000099182129,-0.3140000104904174,-9.793999671936035,0.4239999949932098
1621937582625,4.829999923706055,-72.83999633789062,-2.111000061035156,-0.4709999859333038,-9.788999557495115,0.6240000128746032
1621937582635,4.059999942779541,-72.58499908447266,-2.3499999046325684,-0.6280000209808348,-9.821000099182127,0.5789999961853027
1621937582645,3.6400001049041744,-71.22599792480469,-3.6029999256134033,-0.6280000209808348,-9.814000129699709,0.5400000214576721
1621937582655,3.7100000381469727,-69.4990005493164,-4.933000087738037,-0.7059999704360961,-9.859999656677246,0.5720000267028807
1621937582665,3.430000066757202,-67.28500366210938,-5.395999908447266,-0.7059999704360961,-9.852999687194824,0.5329999923706054
1621937582675,2.940000057220459,-65.13200378417969,-5.513999938964844,-0.6669999957084655,-9.89099979400635,0.5260000228881835
1621937582685,2.5899999141693115,-63.50199890136719,-5.084000110626221,-0.6280000209808348,-9.852999687194824,0.5329999923706054
1621937582695,2.380000114440918,-62.430999755859375,-3.900000095367432,-0.5490000247955322,-9.76900005340576,0.5080000162124633
1621937582705,2.309999942779541,-61.619998931884766,-3.259999990463257,-0.5879999995231628,-9.729999542236328,0.5149999856948853
1621937582715,2.0999999046325684,-61.222999572753906,-2.691999912261963,-0.6280000209808348,-9.807000160217283,0.5009999871253967
1621937582725,1.6100000143051147,-60.029998779296875,-2.197999954223633,-0.6669999957084655,-9.852999687194824,0.5329999923706054
1621937582735,0.9100000262260436,-58.44100189208984,-2.3440001010894775,-0.7850000262260437,-9.821000099182127,0.5789999961853027
1621937582745,0.209999993443489,-56.23099899291992,-2.38100004196167,-0.8629999756813049,-9.776000022888184,0.5469999909400939
1621937582755,0.0699999928474426,-54.86249923706055,-2.886000156402588,-0.8629999756813049,-9.729999542236328,0.5149999856948853
1621937582765,-0.0700000002980232,-53.493999481201165,-3.3910000324249268,-0.8240000009536743,-9.690999984741213,0.5220000147819519
1621937582775,-0.1400000005960464,-51.31600189208984,-3.6459999084472656,-0.7450000047683715,-9.65999984741211,0.5669999718666076
1621937582785,0.0,-49.67399978637695,-3.2860000133514404,-0.7450000047683715,-9.607000350952148,0.4970000088214874
1621937582795,0.2800000011920929,-48.5989990234375,-2.5280001163482666,-0.7059999704360961,-9.60099983215332,0.4580000042915344
1621937582805,0.7699999809265136,-47.88199996948242,-1.7610000371932983,-0.6669999957084655,-9.607000350952148,0.4970000088214874
1621937582815,1.1200000047683716,-47.61800003051758,-1.6440000534057615,-0.6280000209808348,-9.697999954223633,0.5600000023841857
1621937582825,1.399999976158142,-47.006000518798835,-1.8910000324249268,-0.7059999704360961,-9.776000022888184,0.5469999909400939
1621937582835,1.399999976158142,-45.89099884033203,-1.7660000324249268,-0.7450000047683715,-9.814000129699709,0.5400000214576721
1621937582845,-0.699999988079071,-42.702999114990234,-1.7009999752044678,-0.8240000009536743,-9.814000129699709,0.5400000214576721
1621937582855,-1.190000057220459,-40.959999084472656,-2.318000078201294,-0.7850000262260437,-9.821000099182127,0.5789999961853027
1621937582865,-1.6799999475479126,-39.89699935913086,-1.491000056266785,-0.7850000262260437,-9.814000129699709,0.5400000214576721
1621937582875,-2.240000009536743,-39.26499938964844,-0.2419999986886978,-0.7059999704360961,-9.776000022888184,0.5469999909400939
1621937582885,-2.309999942779541,-39.32500076293945,1.3109999895095823,-0.6669999957084655,-9.781999588012695,0.5849999785423278
1621937582895,-2.6600000858306885,-40.61399841308594,2.5769999027252197,-0.5490000247955322,-9.788999557495115,0.6240000128746032
1621937582904,-2.5899999141693115,-42.63800048828125,3.569999933242798,-0.3919999897480011,-9.75699996948242,0.6690000295639038
1621937582914,-3.009999990463257,-45.7599983215332,3.9440000057220455,-0.2349999994039535,-9.835000038146973,0.656000018119812
1621937582924,-3.7799999713897705,-48.50899887084961,5.0229997634887695,-0.1959999948740005,-9.847999572753906,0.7329999804496765
1621937582934,-5.110000133514404,-50.73500061035156,4.3460001945495605,-0.2349999994039535,-9.847999572753906,0.7329999804496765
1621937582944,-6.369999885559082,-52.44300079345703,2.3389999866485596,-0.3529999852180481,-9.880000114440918,0.6880000233650208
1621937582954,-8.329999923706055,-53.46900177001953,0.0970000028610229,-0.4309999942779541,-9.911999702453612,0.6420000195503234
1621937582964,-9.029999732971191,-53.84199905395508,-1.8170000314712524,-0.5879999995231628,-9.911999702453612,0.6420000195503234
1621937582974,-9.380000114440918,-53.189998626708984,-2.697000026702881,-0.7059999704360961,-9.880000114440918,0.6880000233650208
1621937582984,-9.520000457763674,-52.69499969482422,-2.680999994277954,-0.7850000262260437,-9.835000038146973,0.656000018119812
1621937582994,-9.170000076293944,-51.66899871826172,-2.8559999465942383,-0.8240000009536743,-9.75699996948242,0.6690000295639038
1621937583004,-8.680000305175781,-50.99599838256836,-2.239000082015991,-0.8629999756813049,-9.718999862670898,0.6759999990463256
1621937583014,-8.260000228881836,-49.770999908447266,-1.5260000228881836,-0.8629999756813049,-9.68000030517578,0.6830000281333923
1621937583024,-7.945000171661377,-49.34950256347656,-1.0959999561309814,-0.9020000100135804,-9.64099979400635,0.6899999976158142
1621937583034,-7.630000114440918,-48.928001403808594,-0.6660000085830688,-0.9020000100135804,-9.595999717712402,0.6579999923706054
1621937583044,-6.650000095367432,-47.21200180053711,-0.7189999818801879,-0.9409999847412108,-9.58899974822998,0.6190000176429749
1621937583054,-5.949999809265137,-45.96699905395508,0.2820000052452087,-0.9409999847412108,-9.628000259399414,0.6129999756813049
1621937583064,-5.460000038146973,-44.46699905395508,1.0440000295639038,-0.981000006198883,-9.652999877929688,0.5289999842643737
1621937583074,-4.619999885559082,-42.983001708984375,1.093000054359436,-1.0199999809265137,-9.652999877929688,0.5289999842643737
1621937583084,-4.130000114440918,-41.34000015258789,1.4529999494552612,-1.0199999809265137,-9.638999938964846,0.4510000050067901
1621937583094,-3.5,-38.178001403808594,1.656000018119812,-1.0199999809265137,-9.690999984741213,0.5220000147819519
1621937583104,-3.009999990463257,-36.79100036621094,2.25600004196167,-1.0199999809265137,-9.65999984741211,0.5669999718666076
1621937583114,-2.940000057220459,-35.80099868774414,3.496000051498413,-1.0199999809265137,-9.652999877929688,0.5289999842643737
1621937583124,-2.940000057220459,-34.64899826049805,4.623000144958496,-0.981000006198883,-9.65999984741211,0.5669999718666076
1621937583134,-3.0799999237060547,-33.987998962402344,5.309000015258789,-1.0590000152587893,-9.697999954223633,0.5600000023841857
1621937583144,-3.569999933242798,-33.380001068115234,5.486999988555908,-1.0199999809265137,-9.737000465393066,0.5540000200271606
1621937583154,-4.199999809265137,-32.584999084472656,5.414000034332275,-1.0199999809265137,-9.781999588012695,0.5849999785423278
1621937583164,-4.900000095367432,-31.652999877929688,5.364999771118164,-1.0199999809265137,-9.814000129699709,0.5400000214576721
1621937583174,-5.880000114440918,-30.992000579833984,4.8420000076293945,-1.0199999809265137,-9.781999588012695,0.5849999785423278
1621937583184,-6.579999923706055,-30.73200035095215,4.177000045776367,-1.0199999809265137,-9.781999588012695,0.5849999785423278
1621937583194,-7.0,-30.165000915527344,3.7790000438690186,-1.0199999809265137,-9.70300006866455,0.3600000143051147
1621937583204,-7.280000209808349,-29.770999908447266,3.563999891281128,-1.0590000152587893,-9.722999572753906,0.4760000109672546
1621937583214,-7.8400001525878915,-29.393999099731445,3.8440001010894775,-1.0590000152587893,-9.744000434875488,0.5920000076293945
1621937583224,-7.8400001525878915,-28.834999084472656,3.0899999141693115,-1.0980000495910645,-9.744000434875488,0.5920000076293945
1621937583234,-7.9099998474121085,-28.437000274658203,2.4489998817443848,-1.1380000114440918,-9.744000434875488,0.5920000076293945
1621937583244,-7.8400001525878915,-28.052000045776367,1.8769999742507937,-1.1380000114440918,-9.704999923706056,0.5989999771118164
1621937583254,-7.980000019073486,-27.951000213623047,1.5039999485015867,-1.0980000495910645,-9.737000465393066,0.5540000200271606
1621937583264,-8.119999885559082,-27.850000381469727,1.13100004196167,-1.0980000495910645,-9.737000465393066,0.5540000200271606
1621937583274,-8.050000190734863,-28.108999252319336,0.5879999995231628,-1.0590000152587893,-9.704999923706056,0.5989999771118164
1621937583284,-7.980000019073486,-28.125,-0.1260000020265579,-1.0590000152587893,-9.690999984741213,0.5220000147819519
1621937583294,-7.559999942779541,-28.600000381469727,-1.062000036239624,-1.0590000152587893,-9.652999877929688,0.5289999842643737
1621937583304,-7.210000038146973,-29.030000686645508,-1.8489999771118164,-1.0590000152587893,-9.652999877929688,0.5289999842643737
1621937583314,-6.789999961853027,-29.2450008392334,-2.2420001029968266,-1.0590000152587893,-9.645999908447264,0.4900000095367431
1621937583324,-6.019999980926514,-29.309999465942383,-2.680000066757202,-1.0199999809265137,-9.607000350952148,0.4970000088214874
1621937583334,-5.460000038146973,-29.79700088500977,-3.5480000972747803,-0.981000006198883,-9.562000274658203,0.4650000035762786
1621937583344,-4.829999923706055,-30.809999465942383,-3.441999912261963,-0.981000006198883,-9.569000244140623,0.5040000081062316
1621937583354,-4.690000057220459,-31.58099937438965,-3.506999969482422,-0.9409999847412108,-9.569000244140623,0.5040000081062316
1621937583364,-4.480000019073486,-32.439998626708984,-3.871999979019165,-0.9409999847412108,-9.569000244140623,0.5040000081062316
1621937583374,-4.059999942779541,-34.0620002746582,-3.9449999332427974,-0.9409999847412108,-9.569000244140623,0.5040000081062316
1621937583384,-3.9200000762939458,-35.0359992980957,-4.4720001220703125,-0.9409999847412108,-9.562000274658203,0.4650000035762786
1621937583394,-3.569999933242798,-35.87099838256836,-4.974999904632568,-0.9020000100135804,-9.607000350952148,0.4970000088214874
1621937583404,-3.359999895095825,-37.61100006103515,-4.783999919891357,-0.9020000100135804,-9.607000350952148,0.4970000088214874
1621937583414,-3.0799999237060547,-39.25299835205078,-5.144000053405762,-0.8629999756813049,-9.607000350952148,0.4970000088214874
1621937583424,-3.0799999237060547,-41.64899826049805,-4.855999946594238,-0.8240000009536743,-9.61400032043457,0.5350000262260437
1621937583434,-3.009999990463257,-42.94499969482422,-4.764499664306641,-0.7450000047683715,-9.61400032043457,0.5350000262260437
1621937583444,-2.940000057220459,-44.24100112915039,-4.672999858856201,-0.6669999957084655,-9.61400032043457,0.5350000262260437
1621937583454,-3.430000066757202,-47.777000427246094,-4.373000144958496,-0.5879999995231628,-9.65999984741211,0.5669999718666076
1621937583464,-3.7799999713897705,-51.71799850463867,-3.788000106811523,-0.4309999942779541,-9.704999923706056,0.5989999771118164
1621937583474,-4.96999979019165,-56.50699996948242,-3.638000011444092,-0.2750000059604644,-9.781999588012695,0.5849999785423278
1621937583484,-6.650000095367432,-62.722999572753906,-4.663000106811523,-0.1180000007152557,-9.835000038146973,0.656000018119812
1621937583494,-8.539999961853027,-70.60600280761719,-5.909999847412109,0.0780000016093254,-9.854999542236328,0.7720000147819519
1621937583504,-10.5,-79.8479995727539,-7.11299991607666,0.3140000104904174,-9.89400005340576,0.7649999856948853
1621937583514,-12.880000114440918,-90.6949996948242,-6.4670000076293945,0.5879999995231628,-9.939000129699709,0.7969999909400939
1621937583524,-16.030000686645508,-101.45600128173828,-3.88700008392334,0.8240000009536743,-9.991000175476074,0.8669999837875366
1621937583534,-18.1299991607666,-111.08699798583984,-1.6749999523162842,0.9020000100135804,-9.998000144958496,0.906000018119812
1621937583544,-20.229999542236328,-120.052001953125,-1.6210000514984133,0.8240000009536743,-10.005000114440918,0.944000005722046
1621937583554,-21.700000762939453,-128.08900451660156,-2.3989999294281006,0.6669999957084655,-9.972999572753906,0.9900000095367432
1621937583564,-23.100000381469727,-134.9709930419922,-2.4749999046325684,0.5490000247955322,-9.90999984741211,1.0809999704360962
1621937583574,-24.5,-141.30499267578125,-2.0280001163482666,0.4309999942779541,-9.878000259399414,1.1260000467300415
1621937583584,-25.690000534057617,-146.3939971923828,-1.787999987602234,0.2750000059604644,-9.93000030517578,1.1970000267028809
1621937583594,-26.11000061035156,-148.40899658203125,-2.25,-0.0780000016093254,-9.75,1.3079999685287476
1621937583604,-26.530000686645508,-150.4239959716797,-2.711999893188477,-0.2750000059604644,-9.68000030517578,1.3600000143051147
1621937583614,-26.38999938964844,-152.98699951171875,-4.301000118255615,-0.5490000247955322,-9.694000244140623,1.437000036239624
1621937583624,-26.38999938964844,-154.31399536132812,-6.453999996185303,-0.8240000009536743,-9.623000144958496,1.4900000095367432
1621937583634,-25.760000228881836,-153.93699645996094,-8.590999603271484,-1.0590000152587893,-9.54599952697754,1.503000020980835
1621937583644,-24.989999771118164,-152.70399475097656,-9.937999725341797,-1.2549999952316284,-9.54599952697754,1.503000020980835
1621937583654,-24.290000915527344,-150.0970001220703,-10.614999771118164,-1.4119999408721924,-9.57800006866455,1.4579999446868896
1621937583664,-23.520000457763672,-146.43499755859375,-10.822999954223633,-1.6080000400543213,-9.531999588012695,1.4259999990463257
1621937583674,-22.1200008392334,-141.65899658203125,-12.11299991607666,-1.7649999856948853,-9.524999618530272,1.3869999647140503
1621937583684,-21.6299991607666,-135.77499389648435,-13.633999824523926,-1.9220000505447388,-9.472999572753906,1.3170000314712524
1621937583694,-20.229999542236328,-129.50999450683594,-15.302000045776367,-2.0789999961853027,-9.512000083923342,1.309999942779541
1621937583704,-18.6200008392334,-122.21600341796876,-16.361000061035156,-2.1570000648498535,-9.543999671936035,1.2649999856948853
1621937583714,-17.149999618530273,-114.18699645996094,-17.14900016784668,-2.236000061035156,-9.536999702453612,1.22599995136261
1621937583724,-16.030000686645508,-106.4010009765625,-17.766000747680664,-2.2750000953674316,-9.600000381469728,1.1349999904632568
1621937583734,-15.119999885559082,-98.78199768066406,-17.8439998626709,-2.236000061035156,-9.600000381469728,1.1349999904632568
1621937583744,-14.559999465942385,-95.20950317382812,-17.747499465942383,-2.118000030517578,-9.663999557495115,1.0440000295639038
1621937583754,-14.0,-91.63700103759764,-17.650999069213867,-2.000999927520752,-9.67099952697754,1.0829999446868896
1621937583764,-13.369999885559082,-84.43900299072266,-16.950000762939453,-1.9609999656677248,-9.748000144958496,1.069000005722046
1621937583774,-13.090000152587892,-77.64299774169922,-16.392000198364258,-1.9220000505447388,-9.79800033569336,0.9010000228881836
1621937583784,-12.8100004196167,-71.47599792480469,-16.298999786376953,-1.843999981880188,-9.79800033569336,0.9010000228881836
1621937583794,-13.020000457763672,-65.76599884033203,-16.43000030517578,-1.687000036239624,-9.829999923706056,0.856000006198883
1621937583804,-13.090000152587892,-60.90399932861328,-15.78600025177002,-1.5299999713897705,-9.906999588012695,0.8420000076293945
1621937583814,-13.300000190734863,-56.77199935913086,-14.630999565124512,-1.4119999408721924,-9.822999954223633,0.8169999718666076
1621937583824,-13.369999885559082,-52.89899826049805,-14.019000053405762,-1.3339999914169312,-9.777999877929688,0.7850000262260437
1621937583834,-13.020000457763672,-49.59000015258789,-13.4350004196167,-1.2940000295639038,-9.732000350952148,0.7530000209808348
1621937583844,-12.8100004196167,-46.54499816894531,-12.968999862670898,-1.1770000457763672,-9.725000381469728,0.7149999737739563
1621937583854,-12.109999656677246,-43.243999481201165,-12.743000030517578,-1.1770000457763672,-9.68000030517578,0.6830000281333923
1621937583864,-11.199999809265137,-40.17499923706055,-12.414999961853027,-1.0980000495910645,-9.67300033569336,0.6439999938011169
1621937583874,-11.0600004196167,-37.542999267578125,-12.022000312805176,-1.0590000152587893,-9.666000366210936,0.606000006198883
1621937583884,-10.954999923706056,-36.35900115966797,-11.884000778198242,-0.981000006198883,-9.697999954223633,0.5600000023841857
1621937583894,-10.850000381469728,-35.17499923706055,-11.746000289916992,-0.9020000100135804,-9.737000465393066,0.5540000200271606
1621937583904,-10.850000381469728,-33.53200149536133,-11.38599967956543,-0.7059999704360961,-9.776000022888184,0.5469999909400939
1621937583914,-11.199999809265137,-31.48900032043457,-10.883000373840332,-0.6669999957084655,-9.807000160217283,0.5009999871253967
1621937583924,-11.6899995803833,-30.42200088500977,-10.482000350952148,-0.5490000247955322,-9.859999656677246,0.5720000267028807
1621937583934,-12.600000381469728,-30.15800094604492,-10.36400032043457,-0.4709999859333038,-9.859999656677246,0.5720000267028807
1621937583944,-13.300000190734863,-30.25200080871582,-10.23900032043457,-0.4309999942779541,-9.821000099182127,0.5789999961853027
1621937583954,-13.4399995803833,-30.007999420166016,-10.409000396728516,-0.4709999859333038,-9.814000129699709,0.5400000214576721
1621937583964,-13.510000228881836,-30.211000442504883,-10.871000289916992,-0.4709999859333038,-9.729999542236328,0.5149999856948853
1621937583974,-13.229999542236328,-29.850000381469727,-11.30500030517578,-0.5099999904632568,-9.678000450134276,0.4440000057220459
1621937583984,-12.31999969482422,-28.926000595092773,-11.711000442504885,-0.5490000247955322,-9.638999938964846,0.4510000050067901
1621937583994,-11.340000152587892,-28.131000518798828,-11.784000396728516,-0.5879999995231628,-9.60099983215332,0.4580000042915344
1621937584004,-10.5,-26.83300018310547,-11.484000205993652,-0.6280000209808348,-9.55500030517578,0.4259999990463256
1621937584014,-9.800000190734863,-25.378000259399418,-10.871999740600586,-0.6280000209808348,-9.586999893188477,0.3810000121593475
1621937584024,-8.75,-23.864999771118164,-10.178999900817873,-0.6280000209808348,-9.619000434875488,0.3350000083446502
1621937584034,-8.329999923706055,-22.94649887084961,-9.946000099182127,-0.7059999704360961,-9.619000434875488,0.3350000083446502
1621937584044,-7.9099998474121085,-22.027999877929688,-9.713000297546388,-0.7059999704360961,-9.656999588012695,0.3289999961853027
1621937584054,-6.929999828338623,-20.729999542236328,-9.413000106811523,-0.7450000047683715,-9.619000434875488,0.3350000083446502
1621937584064,-5.949999809265137,-18.44300079345703,-9.081000328063965,-0.7059999704360961,-9.572999954223633,0.3039999902248382
1621937584074,-4.900000095367432,-16.683000564575195,-8.984000205993652,-0.7059999704360961,-9.572999954223633,0.3039999902248382
1621937584084,-4.199999809265137,-14.843000411987305,-8.942999839782715,-0.7850000262260437,-9.520999908447264,0.2329999953508377
1621937584094,-3.430000066757202,-13.46399974822998,-8.699999809265137,-0.7059999704360961,-9.520999908447264,0.2329999953508377
1621937584104,-2.799999952316284,-12.03600025177002,-8.732999801635742,-0.6280000209808348,-9.565999984741213,0.2649999856948852
1621937584114,-2.309999942779541,-10.746999740600586,-8.789999961853027,-0.6280000209808348,-9.604999542236328,0.2579999864101409
1621937584124,-2.0299999713897705,-9.647999763488768,-9.378000259399414,-0.5879999995231628,-9.682000160217283,0.2440000027418136
1621937584134,-1.8200000524520872,-8.869999885559082,-10.164999961853027,-0.5099999904632568,-9.772999763488768,0.3079999983310699
1621937584144,-1.8899999856948853,-8.383000373840332,-10.505000114440918,-0.5099999904632568,-9.76599979400635,0.2689999938011169
1621937584154,-1.8899999856948853,-8.15999984741211,-10.96399974822998,-0.4309999942779541,-9.760000228881836,0.231000006198883
1621937584164,-1.9600000381469729,-7.993999958038329,-11.503000259399414,-0.4309999942779541,-9.727999687194824,0.2759999930858612
1621937584174,-1.9600000381469729,-7.913000106811523,-11.5600004196167,-0.3919999897480011,-9.696000099182127,0.3219999969005584
1621937584184,-1.924999952316284,-7.868499755859375,-12.013999938964844,-0.4309999942779541,-9.70300006866455,0.3600000143051147
1621937584194,-1.8899999856948853,-7.823999881744384,-12.468000411987305,-0.3919999897480011,-9.656999588012695,0.3289999961853027
1621937584204,-1.8200000524520872,-7.013000011444092,-13.03600025177002,-0.3919999897480011,-9.651000022888184,0.2899999916553497
1621937584214,-1.3300000429153442,-6.50600004196167,-13.08899974822998,-0.3919999897480011,-9.64400005340576,0.2509999871253967
1621937584224,-1.1200000047683716,-6.538000106811523,-13.30799961090088,-0.3140000104904174,-9.64400005340576,0.2509999871253967
1621937584234,-0.4199999868869781,-6.190000057220459,-13.67300033569336,-0.3140000104904174,-9.64400005340576,0.2509999871253967
1621937584244,-0.209999993443489,-5.4029998779296875,-14.102999687194824,-0.3529999852180481,-9.682000160217283,0.2440000027418136
1621937584254,0.3499999940395355,-4.6570000648498535,-13.899999618530272,-0.3529999852180481,-9.720999717712402,0.2380000054836273
1621937584264,0.7699999809265136,-3.934999942779541,-13.559000015258787,-0.3140000104904174,-9.689000129699709,0.2829999923706054
1621937584274,1.3300000429153442,-3.1530001163482666,-13.564000129699709,-0.3140000104904174,-9.76599979400635,0.2689999938011169
1621937584284,1.399999976158142,-2.247999906539917,-13.048999786376951,-0.3140000104904174,-9.80500030517578,0.2630000114440918
1621937584294,1.3300000429153442,-1.22599995136261,-12.796999931335447,-0.2750000059604644,-9.80500030517578,0.2630000114440918
1621937584304,1.2599999904632568,-0.3549999892711639,-12.50100040435791,-0.2750000059604644,-9.812000274658203,0.3009999990463256
1621937584314,0.8399999737739563,0.4519999921321868,-12.644000053405762,-0.2750000059604644,-9.772999763488768,0.3079999983310699
1621937584324,0.7699999809265136,1.1540000438690186,-12.590999603271484,-0.2750000059604644,-9.772999763488768,0.3079999983310699
1621937584334,0.7350000143051147,1.6829999685287476,-12.568499565124512,-0.3529999852180481,-9.727999687194824,0.2759999930858612
1621937584344,0.699999988079071,2.211999893188477,-12.54599952697754,-0.4309999942779541,-9.689000129699709,0.2829999923706054
1621937584354,0.7699999809265136,3.194000005722046,-11.663000106811523,-0.4709999859333038,-9.689000129699709,0.2829999923706054
1621937584364,1.6100000143051147,4.90500020980835,-11.289999961853027,-0.5490000247955322,-9.70300006866455,0.3600000143051147
1621937584374,2.450000047683716,6.985000133514404,-10.994000434875488,-0.5490000247955322,-9.696000099182127,0.3219999969005584
1621937584384,3.0799999237060547,9.251999855041506,-10.949999809265137,-0.5879999995231628,-9.710000038146973,0.3989999890327453
1621937584394,3.5,11.822999954223633,-11.42099952697754,-0.5879999995231628,-9.67099952697754,0.4059999883174896
1621937584404,4.130000114440918,14.680999755859377,-11.911999702453612,-0.5879999995231628,-9.67099952697754,0.4059999883174896
1621937584414,4.690000057220459,17.540000915527344,-12.402999877929688,-0.5879999995231628,-9.678000450134276,0.4440000057220459
1621937584424,4.760000228881836,20.163999557495117,-12.366000175476074,-0.6280000209808348,-9.638999938964846,0.4510000050067901
1621937584434,5.320000171661377,23.152000427246097,-13.1899995803833,-0.6669999957084655,-9.607000350952148,0.4970000088214874
1621937584444,5.739999771118164,26.253999710083008,-13.85099983215332,-0.7850000262260437,-9.562000274658203,0.4650000035762786
1621937584454,6.510000228881836,29.79400062561035,-14.578000068664553,-0.981000006198883,-9.569000244140623,0.5040000081062316
1621937584464,7.420000076293945,34.35200119018555,-14.626999855041504,-1.1770000457763672,-9.58199977874756,0.5809999704360961
1621937584474,8.609999656677246,39.882999420166016,-15.357999801635742,-1.3339999914169312,-9.564000129699709,0.703000009059906
1621937584484,9.309999465942385,43.39649963378906,-15.73349952697754,-1.491000056266785,-9.526000022888184,0.7099999785423278
1621937584494,10.010000228881836,46.90999984741211,-16.108999252319336,-1.6480000019073486,-9.50699996948242,0.8330000042915344
1621937584504,12.18000030517578,54.777000427246094,-16.783000946044922,-1.72599995136261,-9.54599952697754,0.8259999752044677
1621937584514,14.279999732971191,63.891998291015625,-16.881999969482422,-1.6480000019073486,-9.590999603271484,0.8579999804496765
1621937584524,15.75,73.3479995727539,-16.493999481201172,-1.491000056266785,-9.720999717712402,0.915000021457672
1621937584534,16.940000534057617,82.58599853515625,-16.072999954223633,-1.3730000257492063,-9.741000175476074,1.031000018119812
1621937584543,17.360000610351562,91.03199768066406,-16.006000518798828,-1.215999960899353,-9.70300006866455,1.037999987602234
1621937584553,17.780000686645508,98.16500091552734,-16.951000213623047,-1.0590000152587893,-9.678000450134276,1.121999979019165
1621937584563,17.850000381469727,104.18199920654295,-18.02300071716309,-0.9409999847412108,-9.690999984741213,1.1990000009536743
1621937584573,17.920000076293945,109.18199920654295,-18.562999725341797,-0.8629999756813049,-9.628000259399414,1.2899999618530271
1621937584583,18.270000457763672,114.63200378417967,-19.23699951171875,-0.8629999756813049,-9.557000160217283,1.3420000076293943
1621937584593,19.18000030517578,119.72100067138672,-19.47699928283691,-0.8240000009536743,-9.623000144958496,1.4900000095367432
1621937584603,20.09000015258789,125.23500061035156,-20.92099952697754,-0.5099999904632568,-9.73900032043457,1.468999981880188
1621937584613,20.579999923706055,130.1540069580078,-22.613000869750977,-0.1570000052452087,-9.932000160217283,1.434999942779541
1621937584623,19.739999771118164,132.52200317382812,-22.336999893188477,0.1180000007152557,-9.984000205993652,1.50600004196167
1621937584633,17.780000686645508,133.35800170898435,-20.625999450683594,0.2750000059604644,-9.984000205993652,1.50600004196167
1621937584643,15.81999969482422,132.25100708007812,-19.18600082397461,0.4709999859333038,-9.946000099182127,1.5119999647140503
1621937584653,14.734999656677246,131.4095001220703,-19.049999237060547,0.5490000247955322,-9.946000099182127,1.5119999647140503
1621937584663,13.649999618530272,130.5679931640625,-18.913999557495117,0.6669999957084655,-9.899999618530272,1.4809999465942385
1621937584673,12.109999656677246,128.61000061035156,-18.69099998474121,0.7059999704360961,-9.791000366210936,1.5399999618530271
1621937584683,11.340000152587892,126.48500061035156,-17.929000854492188,0.8629999756813049,-9.854999542236328,1.4490000009536743
1621937584693,10.850000381469728,123.99099731445312,-17.089000701904297,1.0199999809265137,-9.925000190734863,1.3969999551773071
1621937584703,9.869999885559082,120.9739990234375,-15.70199966430664,1.1380000114440918,-10.04800033569336,1.4149999618530271
1621937584713,8.680000305175781,117.41000366210936,-14.836999893188477,1.215999960899353,-10.119000434875488,1.3630000352859497
1621937584723,6.929999828338623,112.28500366210936,-13.182000160217283,1.1380000114440918,-10.079999923706056,1.36899995803833
1621937584733,4.480000019073486,106.91200256347656,-10.930999755859377,1.1380000114440918,-10.065999984741213,1.2920000553131104
1621937584743,3.2200000286102295,102.10700225830078,-10.28600025177002,1.0199999809265137,-9.949999809265137,1.312999963760376
1621937584753,1.399999976158142,97.18800354003906,-11.01099967956543,0.8240000009536743,-9.866000175476074,1.287999987602234
1621937584763,-0.0700000002980232,93.25499725341795,-11.277999877929688,0.5099999904632568,-9.737000465393066,1.2309999465942385
1621937584773,-0.3499999940395355,91.5199966430664,-11.512999534606934,0.4309999942779541,-9.697999954223633,1.2380000352859497
1621937584783,0.1400000005960464,90.16500091552734,-11.894000053405762,0.4309999942779541,-9.652999877929688,1.2059999704360962
1621937584793,0.8399999737739563,89.26100158691406,-12.409000396728516,0.3919999897480011,-9.645999908447264,1.1670000553131104
1621937584803,1.190000057220459,88.50700378417967,-11.760000228881836,0.5099999904632568,-9.722999572753906,1.1529999971389773
1621937584813,0.9800000190734864,87.53399658203125,-9.869999885559082,0.5490000247955322,-9.793999671936035,1.10099995136261
1621937584823,0.4900000095367431,85.93599700927734,-7.664000034332275,0.5490000247955322,-9.824999809265137,1.055999994277954
1621937584833,-0.7699999809265136,83.47100067138672,-6.178999900817871,0.5879999995231628,-9.824999809265137,1.055999994277954
1621937584843,-1.2599999904632568,82.01150512695312,-5.761499881744385,0.6280000209808348,-9.824999809265137,1.055999994277954
1621937584853,-1.75,80.552001953125,-5.343999862670898,0.5879999995231628,-9.772999763488768,0.9850000143051147
1621937584863,-2.450000047683716,77.48999786376953,-5.315000057220459,0.5099999904632568,-9.663999557495115,1.0440000295639038
1621937584873,-3.0799999237060547,74.51000213623047,-5.3429999351501465,0.3919999897480011,-9.638999938964846,1.128000020980835
1621937584883,-2.6600000858306885,71.9469985961914,-5.723999977111816,0.2750000059604644,-9.619000434875488,1.0130000114440918
1621937584893,-2.0299999713897705,70.36900329589844,-6.855000019073486,0.1570000052452087,-9.565999984741213,0.9419999718666076
1621937584903,-0.7699999809265136,69.08399963378906,-7.223000049591064,0.1180000007152557,-9.612000465393066,0.9739999771118164
1621937584913,-0.0700000002980232,68.33799743652344,-7.426000118255616,0.1570000052452087,-9.682000160217283,0.921999990940094
1621937584923,0.1400000005960464,67.75800323486328,-6.960000038146973,0.2349999994039535,-9.829999923706056,0.856000006198883
1621937584933,0.0,67.1780014038086,-6.493000030517578,0.3140000104904174,-9.869000434875488,0.8489999771118164
1621937584943,-0.699999988079071,65.86900329589844,-5.515999794006348,0.3140000104904174,-9.829999923706056,0.856000006198883
1621937584953,-1.75,64.35199737548828,-4.574999809265137,0.3140000104904174,-9.791000366210936,0.8629999756813049
1621937584963,-3.009999990463257,62.42599868774414,-4.132999897003174,0.2750000059604644,-9.753000259399414,0.8690000176429749
1621937584973,-3.430000066757202,60.04999923706055,-4.764999866485596,0.1959999948740005,-9.71399974822998,0.8759999871253967
1621937584983,-3.849999904632568,58.06700134277344,-5.611999988555908,0.1570000052452087,-9.675000190734863,0.8830000162124633
1621937584993,-4.199999809265137,56.165000915527344,-6.515999794006348,0.0780000016093254,-9.630000114440918,0.8510000109672546
1621937585003,-4.059999942779541,54.5099983215332,-6.808000087738037,0.0390000008046627,-9.553000450134276,0.865000009536743
1621937585013,-3.569999933242798,53.415000915527344,-6.644999980926514,-0.0390000008046627,-9.590999603271484,0.8579999804496765
1621937585023,-2.7300000190734863,52.86399841308594,-6.743000030517578,-0.1180000007152557,-9.585000038146973,0.8190000057220459
1621937585033,-1.9600000381469729,52.74599838256836,-6.479000091552734,-0.1959999948740005,-9.590999603271484,0.8579999804496765
1621937585043,-1.2599999904632568,53.05500030517578,-6.211999893188477,-0.2750000059604644,-9.675000190734863,0.8830000162124633
1621937585053,-0.8399999737739563,53.6875,-6.171500205993652,-0.3140000104904174,-9.71399974822998,0.8759999871253967
1621937585063,-0.4199999868869781,54.31999969482422,-6.13100004196167,-0.3140000104904174,-9.71399974822998,0.8759999871253967
1621937585073,-0.5600000023841857,55.630001068115234,-5.900000095367432,-0.2349999994039535,-9.70699977874756,0.8379999995231628
1621937585083,-0.699999988079071,56.57400131225586,-6.017000198364258,-0.1570000052452087,-9.668999671936035,0.8439999818801879
1621937585093,-0.2800000011920929,57.368999481201165,-6.090000152587891,-0.0780000016093254,-9.623000144958496,0.8130000233650208
1621937585103,-0.0700000002980232,57.895999908447266,-5.855000019073486,-0.0390000008046627,-9.585000038146973,0.8190000057220459
1621937585113,0.0,58.37900161743164,-5.769999980926514,-0.0390000008046627,-9.54599952697754,0.8259999752044677
1621937585123,0.5600000023841857,58.15999984741211,-5.73799991607666,-0.0390000008046627,-9.54599952697754,0.8259999752044677
1621937585133,1.399999976158142,57.40599822998047,-6.296999931335449,-0.0390000008046627,-9.538999557495115,0.7879999876022338
1621937585143,2.240000009536743,56.720001220703125,-6.84499979019165,0.0,-9.57800006866455,0.781000018119812
1621937585153,3.2899999618530273,56.05099868774414,-6.677999973297119,0.0,-9.661999702453612,0.8059999942779541
