timestamp,gyro_x,gyro_y,gyro_z,acc_x,acc_y,acc_z
1622109309300,0.0,0.0,0.0,0.0,0.0,0.0
1622109309309,10.465000152587892,8.173500061035156,-10.07349967956543,0.5490000247955322,-8.977999687194824,2.7980000972747803
1622109309319,20.93000030517578,16.347000122070312,-20.14699935913086,0.6280000209808348,-8.946000099182129,2.8440001010894775
1622109309329,19.600000381469727,14.282999992370604,-18.520999908447266,0.7450000047683715,-8.822999954223633,2.825999975204468
1622109309339,18.6200008392334,13.50100040435791,-17.30900001525879,0.7450000047683715,-8.73900032043457,2.8010001182556152
1622109309349,17.920000076293945,12.53600025177002,-16.270000457763672,0.8629999756813049,-8.661999702453613,2.813999891281128
1622109309359,17.56999969482422,12.130000114440918,-15.986000061035156,0.8629999756813049,-8.437000274658203,2.8940000534057617
1622109309369,17.780000686645508,11.696000099182127,-16.347000122070312,0.9409999847412108,-8.39799976348877,2.9010000228881836
1622109309379,18.1299991607666,11.720999717712402,-16.485000610351562,0.981000006198883,-8.366000175476074,2.946000099182129
1622109309389,18.690000534057617,11.845999717712402,-16.392000198364258,1.0590000152587893,-8.340999603271484,3.0299999713897705
1622109309399,19.18000030517578,11.291000366210938,-16.062999725341797,1.0980000495910645,-8.340999603271484,3.0299999713897705
1622109309409,19.670000076293945,11.307000160217283,-15.350000381469728,1.1770000457763672,-8.470999717712402,3.086999893188477
1622109309419,20.649999618530273,10.532999992370604,-13.779999732971191,1.2549999952316284,-8.52299976348877,3.1570000648498535
1622109309429,22.190000534057617,9.567999839782717,-11.534000396728516,1.2940000295639038,-8.555000305175781,3.111999988555908
1622109309439,23.729999542236328,7.864999771118165,-9.133000373840332,1.3339999914169312,-8.715999603271484,3.122999906539917
1622109309449,25.270000457763672,5.769000053405762,-6.517000198364258,1.3339999914169312,-8.904999732971191,3.2890000343322754
1622109309459,26.809999465942383,3.9530000686645503,-3.069999933242798,1.3339999914169312,-8.866000175476074,3.2960000038146973
1622109309469,28.84000015258789,1.7150000333786013,-1.2610000371932983,1.3339999914169312,-8.82800006866455,3.302999973297119
1622109309479,31.079999923706055,-0.3529999852180481,-0.4180000126361846,1.2549999952316284,-8.763999938964844,3.3940000534057617
1622109309489,34.15999984741211,-1.6950000524520874,-0.8679999709129333,1.1770000457763672,-8.692999839782715,3.446000099182129
1622109309499,37.310001373291016,-2.802000045776367,-1.8450000286102295,1.215999960899353,-8.553000450134277,3.5510001182556152
1622109309509,41.15999984741211,-4.433000087738037,-3.4830000400543213,1.2549999952316284,-8.404999732971191,3.615999937057495
1622109309519,45.63999938964844,-6.039000034332275,-5.257999897003174,1.2940000295639038,-8.347999572753906,3.7460000514984126
1622109309529,50.540000915527344,-8.012999534606934,-5.749000072479248,1.2940000295639038,-8.291000366210938,3.875
1622109309539,52.88500213623047,-8.87299919128418,-6.11400032043457,1.2940000295639038,-8.241000175476074,4.044000148773193
1622109309549,55.22999954223633,-9.732999801635742,-6.479000091552734,1.2940000295639038,-8.255000114440918,4.120999813079834
1622109309559,59.08000183105469,-11.29800033569336,-6.46999979019165,1.2940000295639038,-8.274999618530273,4.236999988555908
1622109309569,61.529998779296875,-13.041999816894531,-5.854000091552734,1.215999960899353,-8.303000450134277,4.390999794006348
1622109309579,63.279998779296875,-14.281999588012695,-3.6559998989105225,1.1380000114440918,-8.23900032043457,4.48199987411499
1622109309589,63.77000045776367,-15.501999855041504,-1.1699999570846558,1.0980000495910645,-8.20199966430664,4.728000164031982
1622109309599,64.4000015258789,-16.4950008392334,1.6410000324249268,1.0590000152587893,-8.26200008392334,4.836999893188477
1622109309609,64.47000122070312,-16.871999740600586,3.7780001163482666,0.9409999847412108,-8.359000205993652,4.939000129699707
1622109309619,63.77000045776367,-16.621000289916992,5.171999931335449,0.7850000262260437,-8.418000221252441,5.047999858856201
1622109309629,63.06999969482422,-15.883000373840332,3.809999942779541,0.7850000262260437,-8.392999649047852,5.131999969482422
1622109309639,61.66999816894531,-15.340000152587892,1.1330000162124634,0.7450000047683715,-8.347999572753906,5.099999904632568
1622109309649,59.56999969482422,-14.383000373840332,-1.4700000286102295,0.7450000047683715,-8.38599967956543,5.0929999351501465
1622109309659,57.189998626708984,-12.97599983215332,-2.999000072479248,0.7450000047683715,-8.432000160217285,5.125
1622109309669,54.599998474121094,-12.397000312805176,-3.4649999141693115,0.7059999704360961,-8.439000129699707,5.164000034332275
1622109309679,51.72999954223633,-11.560999870300291,-4.171000003814697,0.7450000047683715,-8.399999618530273,5.171000003814697
1622109309689,49.41999816894531,-11.010000228881836,-4.073999881744385,0.7850000262260437,-8.220999717712402,5.2820000648498535
1622109309699,47.31999969482422,-10.855999946594238,-3.3359999656677246,0.7850000262260437,-7.956999778747559,5.368000030517578
1622109309709,46.20000076293945,-10.961000442504885,-1.9329999685287476,0.8240000009536743,-7.616000175476073,5.4679999351501465
1622109309719,45.43000030517578,-10.79800033569336,0.3709999918937683,0.8240000009536743,-7.334000110626221,5.677000045776367
1622109309729,45.220001220703125,-10.725000381469728,1.1649999618530271,0.8240000009536743,-7.192999839782715,5.7820000648498535
1622109309739,45.220001220703125,-10.10099983215332,0.8489999771118164,0.8240000009536743,-7.22100019454956,5.935999870300293
1622109309749,45.290000915527344,-8.64900016784668,-0.5299999713897705,0.8240000009536743,-7.4089999198913565,6.1020002365112305
1622109309759,45.01000213623047,-7.856500148773193,-1.5985000133514404,0.8629999756813049,-7.623000144958496,6.184000015258789
1622109309769,44.72999954223633,-7.064000129699707,-2.6670000553131104,0.9020000100135804,-7.790999889373779,6.234000205993652
1622109309779,43.04999923706055,-5.710000038146973,-4.703000068664551,1.0199999809265137,-7.952000141143799,6.244999885559082
1622109309789,40.25,-4.372000217437744,-5.035999774932861,1.0980000495910645,-8.08899974822998,6.341000080108643
1622109309799,36.400001525878906,-3.3949999809265137,-3.7260000705718994,1.0980000495910645,-8.064000129699707,6.425000190734863
1622109309809,32.20000076293945,-1.8739999532699585,-2.6760001182556152,1.0980000495910645,-7.960999965667725,6.5229997634887695
1622109309819,28.770000457763672,-0.4300000071525573,-3.203000068664551,1.1380000114440918,-7.820000171661377,6.626999855041504
1622109309829,26.25,0.6729999780654907,-4.2170000076293945,1.215999960899353,-7.679999828338623,6.73199987411499
1622109309839,24.43000030517578,2.7690000534057617,-5.625,1.2940000295639038,-7.609000205993653,6.783999919891357
1622109309849,22.61000061035156,4.196000099182129,-6.866000175476074,1.2940000295639038,-7.577000141143799,6.828999996185303
1622109309859,20.299999237060547,5.955999851226807,-7.9770002365112305,1.3339999914169312,-7.655000209808349,6.815999984741211
1622109309869,17.920000076293945,7.844999790191651,-9.42099952697754,1.2940000295639038,-7.717999935150147,6.724999904632568
1622109309879,14.979999542236328,9.982000350952148,-10.251999855041504,1.2940000295639038,-7.8410000801086435,6.743000030517578
1622109309889,11.409999847412108,12.19200038909912,-10.288999557495115,1.2940000295639038,-7.969999790191651,6.800000190734863
1622109309899,7.420000076293945,14.105999946594238,-9.45400047302246,1.2940000295639038,-8.034000396728516,6.709000110626221
1622109309909,3.430000066757202,15.607000350952148,-7.484000205993653,1.3730000257492063,-7.789000034332275,6.672999858856201
1622109309919,0.0700000002980232,16.458999633789062,-5.059000015258789,1.2940000295639038,-7.564000129699707,6.751999855041504
1622109309929,-2.5199999809265137,17.691999435424805,-2.7799999713897705,1.2549999952316284,-7.293000221252441,6.800000190734863
1622109309939,-3.569999933242798,18.170000076293945,-2.2690000534057617,1.1770000457763672,-7.015999794006348,6.809000015258789
1622109309949,-3.7799999713897705,18.031999588012695,-2.2939999103546143,1.0590000152587893,-6.861999988555908,6.835999965667725
1622109309959,-2.450000047683716,17.773000717163086,-1.6289999485015867,0.9409999847412108,-6.998000144958496,6.932000160217285
1622109309969,-0.2800000011920929,18.07699966430664,-0.9350000023841856,0.7850000262260437,-7.289000034332275,7.0
1622109309979,1.7150000333786013,18.39349937438965,-0.9149999618530272,0.5490000247955322,-7.723000049591064,7.202000141143799
1622109309989,3.7100000381469727,18.709999084472656,-0.8949999809265136,0.3529999852180481,-8.027000427246094,7.348000049591064
1622109309999,8.260000228881836,19.63400077819824,-2.509000062942505,0.1959999948740005,-8.086000442504883,7.456999778747559
1622109310009,11.6899995803833,20.128000259399418,-6.118000030517578,0.1180000007152557,-8.125,7.449999809265136
1622109310019,14.489999771118164,20.650999069213867,-7.874000072479248,0.0,-8.215999603271484,7.513000011444091
1622109310029,16.799999237060547,22.14699935913086,-6.685999870300293,-0.1959999948740005,-8.243000030517578,7.668000221252441
1622109310039,18.40999984741211,23.343999862670895,-5.408999919891357,-0.3140000104904174,-8.428999900817871,7.594999790191651
1622109310049,20.09000015258789,24.301000595092773,-6.803999900817871,-0.5490000247955322,-8.527000427246094,7.697999954223632
1622109310059,22.68000030517578,25.825000762939453,-9.80500030517578,-0.7059999704360961,-8.319999694824219,7.65399980545044
1622109310069,23.3799991607666,27.767000198364254,-13.157999992370604,-0.7450000047683715,-8.04800033569336,7.4629998207092285
1622109310079,22.540000915527344,28.29700088500977,-16.974000930786133,-0.7850000262260437,-7.873000144958496,7.375
1622109310089,21.700000762939453,30.024999618530273,-18.304000854492188,-0.9020000100135804,-7.729000091552734,7.241000175476073
1622109310099,19.459999084472656,31.683000564575195,-19.64699935913086,-1.1380000114440918,-7.664000034332275,7.0929999351501465
1622109310109,17.079999923706055,33.417999267578125,-23.03700065612793,-1.3339999914169312,-7.474999904632568,6.927000045776367
1622109310119,14.699999809265137,35.2140007019043,-27.979999542236328,-1.4119999408721924,-7.248000144958496,6.76800012588501
1622109310129,11.409999847412108,37.082000732421875,-32.12900161743164,-1.491000056266785,-6.8460001945495605,6.519999980926514
1622109310139,8.260000228881836,39.18299865722656,-35.16999816894531,-1.6480000019073486,-6.547999858856201,6.413000106811523
1622109310149,5.809999942779541,40.8489990234375,-36.15599822998047,-1.72599995136261,-6.2179999351501465,6.3520002365112305
1622109310159,4.199999809265137,42.12200164794922,-36.926998138427734,-1.7649999856948853,-5.998000144958496,6.23199987411499
1622109310169,2.6600000858306885,42.993999481201165,-36.631000518798835,-1.7649999856948853,-5.978000164031982,6.116000175476074
1622109310179,2.0299999713897705,43.41999816894531,-36.62699890136719,-1.7649999856948853,-6.008999824523926,6.070000171661377
1622109310189,1.399999976158142,43.84600067138672,-36.62300109863281,-1.843999981880188,-6.061999797821045,6.140999794006348
1622109310199,0.2800000011920929,44.72999954223633,-36.395999908447266,-1.9220000505447388,-6.120999813079834,6.25
1622109310209,0.209999993443489,45.28900146484375,-37.150001525878906,-2.000999927520752,-6.179999828338623,6.359000205993652
1622109310219,1.1200000047683716,45.297000885009766,-38.00199890136719,-2.0789999961853027,-6.252999782562256,6.545000076293945
1622109310229,2.240000009536743,45.48400115966797,-38.25299835205078,-2.1570000648498535,-6.265999794006348,6.622000217437744
1622109310239,3.569999933242798,45.617000579833984,-37.803001403808594,-2.1570000648498535,-6.248000144958496,6.744999885559082
1622109310249,5.320000171661377,45.6619987487793,-36.44499969482422,-2.236000061035156,-6.26200008392334,6.822000026702881
1622109310259,7.0,45.525001525878906,-35.2599983215332,-2.197000026702881,-6.321000099182129,6.932000160217285
1622109310269,8.890000343322754,44.86800003051758,-33.95500183105469,-2.1570000648498535,-6.38700008392334,7.078999996185303
1622109310279,10.289999961853027,44.053001403808594,-32.96099853515625,-2.118000030517578,-6.5929999351501465,7.122000217437744
1622109310289,11.130000114440918,43.380001068115234,-32.36899948120117,-2.313999891281128,-6.7729997634887695,7.011000156402588
1622109310299,11.340000152587892,42.34199905395508,-32.125,-2.2750000953674316,-7.025000095367432,7.085999965667725
1622109310309,10.850000381469728,41.52299880981445,-33.12300109863281,-2.313999891281128,-7.276999950408936,7.160999774932861
1622109310319,9.170000076293944,41.03200149536133,-34.77299880981445,-2.313999891281128,-7.425000190734864,7.09499979019165
1622109310329,7.0,40.82099914550781,-36.80099868774414,-2.3540000915527344,-7.5339999198913565,7.035999774932861
1622109310339,4.409999847412109,41.165000915527344,-39.15700149536133,-2.313999891281128,-7.565999984741211,6.991000175476074
1622109310349,0.699999988079071,41.62699890136719,-41.7760009765625,-2.2750000953674316,-7.48199987411499,6.966000080108643
1622109310359,-2.450000047683716,42.77799987792969,-44.27399826049805,-2.2750000953674316,-7.275000095367432,6.922999858856201
1622109310369,-5.110000133514404,43.45500183105469,-46.500999450683594,-2.1570000648498535,-7.177000045776367,6.820000171661377
1622109310379,-7.139999866485596,43.571998596191406,-47.972999572753906,-2.0789999961853027,-7.0929999351501465,6.795000076293945
1622109310389,-7.595000267028808,43.66349792480469,-47.885498046875,-2.000999927520752,-7.085999965667725,6.756999969482422
1622109310399,-8.050000190734863,43.755001068115234,-47.79800033569336,-1.9220000505447388,-7.111000061035156,6.672999858856201
1622109310409,-8.470000267028809,43.34099960327149,-46.66299819946289,-1.8830000162124632,-7.123000144958496,6.511000156402588
1622109310419,-8.819999694824219,42.72100067138672,-45.56399917602539,-1.687000036239624,-7.192999839782715,6.459000110626221
1622109310429,-9.3100004196167,41.577999114990234,-43.91699981689453,-1.5299999713897705,-7.186999797821045,6.420000076293945
1622109310439,-9.9399995803833,39.882999420166016,-42.36800003051758,-1.4509999752044678,-7.32100009918213,6.2769999504089355
1622109310449,-11.130000114440918,37.479000091552734,-41.22800064086914,-1.4509999752044678,-7.34600019454956,6.192999839782715
1622109310459,-13.369999885559082,35.79999923706055,-38.96500015258789,-1.569000005722046,-7.2870001792907715,6.084000110626221
1622109310469,-15.050000190734863,34.23899841308594,-36.96599960327149,-1.6080000400543213,-7.265999794006347,5.9679999351501465
1622109310479,-16.450000762939453,33.76900100708008,-35.9119987487793,-1.8040000200271609,-7.388999938964843,5.986000061035156
1622109310489,-16.65999984741211,34.29600143432617,-35.676998138427734,-1.8830000162124632,-7.206999778747559,5.859000205993652
1622109310499,-18.059999465942383,34.632999420166016,-37.180999755859375,-1.843999981880188,-7.116000175476074,5.795000076293945
1622109310509,-17.920000076293945,35.25299835205078,-39.487998962402344,-1.7649999856948853,-7.109000205993652,5.756999969482422
1622109310519,-17.010000228881836,36.19300079345703,-40.38899993896485,-1.6480000019073486,-7.238999843597413,5.814000129699707
1622109310529,-16.520000457763672,36.48600006103515,-38.417999267578125,-1.569000005722046,-7.348000049591064,5.755000114440918
1622109310539,-17.290000915527344,36.10499954223633,-35.85499954223633,-1.569000005722046,-7.4770002365112305,5.810999870300293
1622109310549,-18.829999923706055,35.1150016784668,-34.67900085449219,-1.5299999713897705,-7.631999969482423,5.783999919891357
1622109310559,-20.3700008392334,33.69599914550781,-34.290000915527344,-1.4509999752044678,-7.613999843597413,5.9070000648498535
1622109310569,-21.84000015258789,31.441999435424805,-33.194000244140625,-1.4119999408721924,-7.434000015258789,6.01800012588501
1622109310579,-22.88999938964844,29.511999130249023,-31.118000030517575,-1.3339999914169312,-7.525000095367432,6.081999778747559
1622109310589,-23.450000762939453,27.309999465942383,-28.308000564575195,-1.4119999408721924,-7.5910000801086435,6.230000019073486
1622109310599,-23.310001373291016,26.257999420166016,-27.17850112915039,-1.3730000257492063,-7.71400022506714,6.248000144958496
1622109310609,-23.170000076293945,25.20599937438965,-26.048999786376953,-1.4119999408721924,-7.875,6.258999824523926
1622109310619,-24.36000061035156,22.549999237060547,-26.304000854492188,-1.491000056266785,-8.01099967956543,6.355000019073486
1622109310629,-26.040000915527344,19.554000854492188,-25.836999893188477,-1.569000005722046,-8.031999588012695,6.46999979019165
1622109310639,-27.93000030517578,17.190000534057617,-24.121000289916992,-1.6080000400543213,-8.006999969482422,6.554999828338623
1622109310649,-29.329999923706055,15.38599967956543,-21.95199966430664,-1.72599995136261,-8.013999938964844,6.5929999351501465
1622109310659,-29.75,13.560999870300291,-20.06999969482422,-1.7649999856948853,-8.142999649047852,6.650000095367432
1622109310669,-29.61000061035156,12.060999870300291,-19.624000549316406,-1.8040000200271609,-8.22700023651123,6.675000190734863
1622109310679,-29.68000030517578,11.02299976348877,-19.3799991607666,-1.8040000200271609,-8.322999954223633,6.539000034332275
1622109310689,-29.88999938964844,9.77400016784668,-18.74799919128418,-1.7649999856948853,-8.498000144958496,6.626999855041504
1622109310699,-31.219999313354492,9.10099983215332,-18.155000686645508,-1.72599995136261,-8.67300033569336,6.716000080108643
1622109310709,-31.43000030517578,8.062999725341797,-17.91200065612793,-1.5299999713897705,-8.770000457763672,6.817999839782715
1622109310719,-29.68000030517578,8.317999839782715,-19.36000061035156,-1.4509999752044678,-8.892999649047852,6.835999965667725
1622109310729,-27.229999542236328,7.576000213623046,-22.405000686645508,-1.3339999914169312,-9.008999824523924,6.815999984741211
1622109310739,-25.270000457763672,5.790999889373779,-25.98900032043457,-1.2549999952316284,-9.118000030517578,6.756999969482422
1622109310749,-24.5,4.890999794006348,-26.93000030517578,-1.1380000114440918,-9.279000282287598,6.76800012588501
1622109310759,-23.3799991607666,5.2270002365112305,-26.01799964904785,-1.1770000457763672,-9.159000396728516,6.988999843597412
1622109310769,-21.06999969482422,6.824999809265137,-25.80699920654297,-1.1380000114440918,-8.687999725341797,7.0320000648498535
1622109310779,-20.09000015258789,8.121999740600586,-29.131999969482425,-0.9409999847412108,-8.003999710083008,6.993000030517578
1622109310789,-20.09000015258789,9.229000091552734,-32.98899841308594,-0.7059999704360961,-7.565999984741211,6.991000175476074
1622109310799,-20.09000015258789,11.130000114440918,-33.292999267578125,-0.6280000209808348,-7.442999839782715,6.9730000495910645
1622109310809,-20.3700008392334,14.187999725341797,-31.687999725341797,-0.6669999957084655,-7.425000190734864,7.09499979019165
1622109310819,-20.825000762939453,15.866999626159668,-31.534000396728516,-0.7059999704360961,-7.295000076293945,7.038000106811523
1622109310829,-21.280000686645508,17.54599952697754,-31.3799991607666,-0.5490000247955322,-7.089000225067139,6.994999885559082
1622109310839,-22.75,20.878999710083008,-32.143001556396484,-0.3140000104904174,-6.9070000648498535,6.868000030517578
1622109310849,-24.780000686645508,24.569000244140625,-31.704999923706055,-0.1570000052452087,-6.802000045776367,6.7270002365112305
1622109310859,-28.209999084472656,28.097000122070312,-28.738000869750977,0.0390000008046627,-6.697999954223633,6.585999965667725
1622109310869,-31.079999923706055,30.899999618530273,-25.684999465942383,0.1959999948740005,-6.716000080108643,6.4629998207092285
1622109310879,-33.599998474121094,32.882999420166016,-23.628999710083008,0.3140000104904174,-6.7729997634887695,6.334000110626221
1622109310889,-35.06999969482422,33.709999084472656,-23.482999801635746,0.5490000247955322,-6.836999893188477,6.243000030517578
1622109310899,-35.4900016784668,33.83599853515625,-23.38999938964844,0.7059999704360961,-6.855000019073486,6.119999885559082
1622109310908,-35.349998474121094,33.51900100708008,-22.805999755859375,0.7850000262260437,-6.956999778747559,6.0229997634887695
1622109310918,-34.02000045776367,32.69599914550781,-22.16900062561035,0.7850000262260437,-6.988999843597412,5.9770002365112305
1622109310928,-32.40999984741211,32.00699996948242,-22.291000366210938,0.7850000262260437,-7.150000095367432,5.988999843597412
1622109310938,-30.520000457763672,31.23699951171875,-22.354999542236328,0.7850000262260437,-7.265999794006347,5.9679999351501465
1622109310948,-28.700000762939453,30.13800048828125,-21.767000198364254,0.7850000262260437,-7.421000003814697,5.940999984741211
1622109310958,-26.8799991607666,29.420000076293945,-21.325000762939453,0.8240000009536743,-7.421000003814697,5.940999984741211
1622109310968,-25.1299991607666,28.804000854492188,-21.86000061035156,0.8240000009536743,-7.414000034332275,5.9019999504089355
1622109310978,-23.940000534057617,27.756999969482425,-21.974000930786133,0.8629999756813049,-7.561999797821045,5.835999965667725
1622109310988,-22.959999084472656,26.6299991607666,-20.82200050354004,0.8629999756813049,-7.664000034332275,5.738999843597412
1622109310998,-21.979999542236328,25.604999542236328,-19.43899917602539,0.7850000262260437,-7.888999938964843,5.658999919891357
1622109311008,-21.6299991607666,24.72100067138672,-18.45800018310547,0.7059999704360961,-8.029999732971191,5.554999828338623
1622109311018,-21.6299991607666,24.16900062561035,-18.55500030517578,0.6669999957084655,-8.156999588012695,5.373000144958496
1622109311028,-22.01499938964844,23.727001190185547,-18.66849899291992,0.6669999957084655,-8.329999923706055,5.2230000495910645
1622109311038,-22.399999618530273,23.28499984741211,-18.781999588012695,0.6280000209808348,-8.456999778747559,5.040999889373779
1622109311048,-24.290000915527344,23.357999801635746,-19.195999145507812,0.5879999995231628,-8.583999633789062,4.859000205993652
1622109311058,-27.020000457763672,23.33799934387207,-19.482999801635746,0.5879999995231628,-8.626999855041504,4.6529998779296875
1622109311068,-30.450000762939453,23.698999404907227,-19.91699981689453,0.5490000247955322,-8.607000350952148,4.5370001792907715
1622109311078,-34.02000045776367,24.70400047302246,-20.3799991607666,0.5490000247955322,-8.572999954223633,4.343999862670898
1622109311088,-36.68000030517578,25.518999099731445,-21.37299919128418,0.5490000247955322,-8.468000411987305,4.203000068664551
1622109311098,-38.63999938964844,26.545000076293945,-22.756000518798828,0.5879999995231628,-8.371000289916992,4.099999904632568
1622109311108,-39.970001220703125,27.599000930786133,-23.493999481201172,0.6280000209808348,-8.343000411987305,3.946000099182129
1622109311118,-40.880001068115234,28.60099983215332,-23.531000137329105,0.6669999957084655,-8.329999923706055,3.8689999580383305
1622109311128,-41.22999954223633,29.386999130249023,-22.753000259399418,0.6669999957084655,-8.284000396728516,3.836999893188477
1622109311138,-41.15999984741211,29.89800071716309,-22.02300071716309,0.6669999957084655,-8.23900032043457,3.8050000667572026
1622109311148,-40.25,30.604000091552734,-22.395999908447266,0.7059999704360961,-8.187000274658203,3.7349998950958256
1622109311158,-38.91999816894531,31.23200035095215,-23.13800048828125,0.7850000262260437,-8.14799976348877,3.740999937057495
1622109311168,-37.2400016784668,31.85700035095215,-23.45400047302246,0.9020000100135804,-8.187000274658203,3.7349998950958256
1622109311178,-35.279998779296875,31.89699935913086,-22.878999710083008,0.9409999847412108,-8.270999908447266,3.759999990463257
1622109311188,-33.38999938964844,31.52899932861328,-21.593000411987305,1.0199999809265137,-8.340999603271484,3.7070000171661377
1622109311198,-31.850000381469727,30.91699981689453,-20.136999130249023,1.0199999809265137,-8.46399974822998,3.7260000705718994
1622109311208,-30.59000015258789,30.20299911499023,-18.913000106811523,1.0199999809265137,-8.503000259399414,3.7190001010894775
1622109311218,-29.81999969482422,29.334999084472656,-17.218000411987305,0.981000006198883,-8.612000465393066,3.660000085830689
1622109311228,-29.190000534057617,28.849000930786133,-16.87700080871582,0.981000006198883,-8.572999954223633,3.6659998893737793
1622109311238,-28.525001525878903,28.849000930786133,-16.87700080871582,0.981000006198883,-8.579999923706055,3.7049999237060542
1622109311248,-27.86000061035156,28.849000930786133,-16.87700080871582,1.0590000152587893,-8.642999649047852,3.614000082015991
1622109311258,-27.15999984741211,28.61400032043457,-17.558000564575195,1.0980000495910645,-8.725000381469727,3.4010000228881836
1622109311268,-26.040000915527344,28.492000579833984,-18.07699966430664,1.0590000152587893,-8.840999603271484,3.380000114440918
1622109311278,-25.760000228881836,28.868999481201172,-17.797000885009766,1.0199999809265137,-8.873000144958496,3.3350000381469727
1622109311288,-25.6200008392334,29.20199966430664,-17.667999267578125,1.0199999809265137,-8.890999794006348,3.211999893188477
1622109311298,-25.899999618530273,29.829999923706055,-17.201000213623047,1.0590000152587893,-8.954999923706055,3.121000051498413
1622109311308,-26.31999969482422,31.02199935913086,-16.707000732421875,1.0199999809265137,-8.947999954223633,3.0829999446868896
1622109311318,-26.670000076293945,32.3650016784668,-16.256999969482422,0.981000006198883,-8.831999778747559,3.1029999256134033
1622109311328,-26.38999938964844,34.165000915527344,-16.79199981689453,1.0590000152587893,-8.670999526977539,3.0920000076293945
1622109311338,-25.200000762939453,35.74599838256836,-18.503999710083008,1.1770000457763672,-8.555000305175781,3.111999988555908
1622109311348,-23.59000015258789,37.4900016784668,-19.1200008392334,1.2549999952316284,-8.432000160217285,3.0940001010894775
1622109311358,-21.350000381469727,38.78300094604492,-19.60300064086914,1.3730000257492063,-8.347999572753906,3.069000005722046
1622109311368,-19.31999969482422,39.52899932861328,-19.400999069213867,1.4119999408721924,-8.411999702453613,2.9779999256134033
1622109311378,-17.149999618530273,40.77799987792969,-18.825000762939453,1.491000056266785,-8.482000350952148,2.9260001182556152
1622109311388,-15.75,42.35599899291992,-17.694000244140625,1.569000005722046,-8.553000450134277,2.872999906539917
1622109311398,-15.1899995803833,42.93600082397461,-16.95199966430664,1.569000005722046,-8.720999717712402,2.9230000972747803
1622109311408,-14.770000457763672,43.86100006103515,-16.14900016784668,1.6080000400543213,-8.727999687194824,2.961999893188477
1622109311418,-13.93000030517578,45.130001068115234,-15.284999847412108,1.6080000400543213,-8.734000205993652,3.000999927520752
1622109311428,-12.949999809265137,45.90900039672851,-13.654999732971191,1.6480000019073486,-8.715999603271484,3.122999906539917
1622109311438,-12.18000030517578,46.41600036621094,-13.104000091552734,1.687000036239624,-8.767999649047852,3.194000005722046
1622109311448,-11.409999847412108,46.92300033569336,-12.553000450134276,1.687000036239624,-8.807000160217285,3.187000036239624
1622109311458,-9.9399995803833,47.676998138427734,-11.993000030517578,1.6480000019073486,-8.937000274658203,3.24399995803833
1622109311468,-8.609999656677246,48.459999084472656,-11.996999740600586,1.687000036239624,-8.982000350952148,3.2760000228881836
1622109311478,-8.399999618530273,49.5989990234375,-12.010000228881836,1.687000036239624,-9.027999877929688,3.308000087738037
1622109311488,-8.539999961853027,49.89099884033203,-11.246999740600586,1.687000036239624,-9.072999954223633,3.3389999866485596
1622109311498,-8.819999694824219,50.435001373291016,-10.298999786376951,1.6080000400543213,-9.163999557495115,3.4030001163482666
1622109311508,-8.819999694824219,51.290000915527344,-9.508000373840332,1.491000056266785,-9.345999717712402,3.5299999713897705
1622109311518,-8.539999961853027,52.040000915527344,-9.730999946594238,1.3730000257492063,-9.590999603271484,3.566999912261963
1622109311528,-8.819999694824219,52.327999114990234,-9.75100040435791,1.3730000257492063,-9.899999618530272,3.51200008392334
1622109311538,-8.890000343322754,53.756000518798835,-9.784000396728516,1.1770000457763672,-10.550000190734863,3.3580000400543213
1622109311548,-7.489999771118165,56.35499954223633,-10.817999839782717,1.0980000495910645,-10.822999954223633,3.549000024795532
1622109311558,-6.300000190734863,58.000999450683594,-14.508999824523926,1.0590000152587893,-10.513999938964844,3.6029999256134033
1622109311568,-7.980000019073486,57.2130012512207,-18.91200065612793,1.1770000457763672,-10.27299976348877,3.3670001029968266
1622109311578,-9.239999771118164,57.76100158691406,-17.180999755859375,1.1380000114440918,-10.291000366210938,3.24399995803833
1622109311588,-9.729999542236328,59.82600021362305,-12.765000343322754,0.981000006198883,-10.406999588012695,3.2239999771118164
1622109311598,-8.539999961853027,61.43899917602539,-14.258000373840332,0.5879999995231628,-10.368000030517578,3.2300000190734863
1622109311608,-6.300000190734863,62.7599983215332,-20.13800048828125,0.5099999904632568,-10.404999732971191,2.984999895095825
1622109311618,-2.450000047683716,64.94999694824219,-21.67099952697754,0.5099999904632568,-10.66100025177002,2.859999895095825
1622109311628,1.5399999618530271,67.13200378417969,-18.72699928283691,0.4309999942779541,-10.777000427246094,2.8399999141693115
1622109311638,3.4649999141693115,67.81550598144531,-17.966999053955078,0.3529999852180481,-10.777000427246094,2.8399999141693115
1622109311648,5.389999866485596,68.4990005493164,-17.207000732421875,0.2750000059604644,-10.784000396728516,2.878000020980835
1622109311658,10.359999656677246,69.0459976196289,-17.892000198364258,0.1570000052452087,-10.758999824523926,2.961999893188477
1622109311668,14.699999809265137,69.25299835205078,-17.856000900268555,0.1180000007152557,-10.751999855041504,2.924000024795532
1622109311678,17.709999084472656,69.1760025024414,-14.598999977111816,0.0780000016093254,-10.66100025177002,2.859999895095825
1622109311688,19.459999084472656,69.9749984741211,-11.472999572753906,-0.1570000052452087,-10.513999938964844,2.9260001182556152
1622109311698,20.299999237060547,70.77400207519531,-10.763999938964844,-0.3529999852180481,-10.345999717712402,2.875999927520752
1622109311708,20.579999923706055,70.63600158691406,-13.204999923706056,-0.4309999942779541,-10.074999809265137,2.924000024795532
1622109311718,21.13999938964844,70.84700012207031,-16.01099967956543,-0.5490000247955322,-9.682000160217283,2.953000068664551
1622109311728,21.350000381469727,70.48100280761719,-17.56800079345703,-0.6669999957084655,-9.321000099182127,2.937000036239624
1622109311738,21.06999969482422,69.5530014038086,-19.152999877929688,-0.7850000262260437,-9.067999839782717,2.861999988555908
1622109311748,21.280000686645508,68.4540023803711,-19.77400016784668,-0.7850000262260437,-8.699999809265137,2.808000087738037
1622109311758,21.489999771118164,66.96900177001953,-19.82200050354004,-0.9409999847412108,-8.770999908447266,2.755000114440918
1622109311768,21.06999969482422,65.58300018310547,-19.214000701904297,-1.0980000495910645,-8.880000114440918,2.696000099182129
1622109311778,19.600000381469727,63.58000183105469,-19.13999938964844,-1.215999960899353,-8.873000144958496,2.6579999923706055
1622109311788,18.1299991607666,61.65800094604492,-19.124000549316406,-1.3730000257492063,-8.982000350952148,2.5989999771118164
1622109311798,15.329999923706056,60.09600067138672,-18.33300018310547,-1.4509999752044678,-8.961999893188477,2.4830000400543213
1622109311808,12.600000381469728,59.358001708984375,-18.179000854492188,-1.569000005722046,-8.852999687194824,2.5420000553131104
1622109311818,10.149999618530272,58.59600067138672,-19.094999313354492,-1.6480000019073486,-8.621000289916992,2.5829999446868896
1622109311828,8.680000305175781,57.915000915527344,-20.06800079345703,-1.7649999856948853,-8.494000434875488,2.763999938964844
1622109311838,7.8400001525878915,57.43199920654297,-20.152999877929688,-1.8040000200271609,-8.378000259399414,2.7850000858306885
1622109311848,7.489999771118165,57.198997497558594,-19.23450088500977,-1.7649999856948853,-8.269000053405762,2.8440001010894775
1622109311858,7.139999866485596,56.96599960327149,-18.31599998474121,-1.8040000200271609,-8.229999542236328,2.8510000705718994
1622109311868,7.280000209808349,56.59700012207031,-17.0310001373291,-1.7649999856948853,-8.274999618530273,2.881999969482422
1622109311878,8.960000038146973,56.249000549316406,-16.666000366210938,-1.687000036239624,-8.307000160217285,2.836999893188477
1622109311888,10.359999656677246,55.42499923706055,-18.445999145507812,-1.6080000400543213,-8.33899974822998,2.7920000553131104
1622109311898,10.710000038146973,54.20800018310547,-20.01099967956543,-1.5299999713897705,-8.416000366210938,2.7780001163482666
1622109311908,9.800000190734863,52.68000030517578,-20.208999633789062,-1.491000056266785,-8.416000366210938,2.7780001163482666
1622109311918,8.819999694824219,50.90399932861328,-19.812000274658203,-1.491000056266785,-8.40999984741211,2.739000082015991
1622109311928,7.9099998474121085,49.244998931884766,-19.67799949645996,-1.491000056266785,-8.385000228881836,2.822999954223633
1622109311938,6.860000133514404,47.46500015258789,-20.062999725341797,-1.491000056266785,-8.461999893188477,2.809999942779541
1622109311948,6.019999980926514,45.676998138427734,-20.804000854492188,-1.4509999752044678,-8.531999588012695,2.7579998970031734
1622109311958,5.53000020980835,43.98199844360352,-20.464000701904297,-1.4119999408721924,-8.616000175476074,2.7829999923706055
1622109311968,4.409999847412109,42.37200164794922,-19.39699935913086,-1.4119999408721924,-8.654999732971191,2.7760000228881836
1622109311978,3.2899999618530273,40.814998626708984,-19.031999588012695,-1.3730000257492063,-8.694000244140625,2.7690000534057617
1622109311988,2.240000009536743,39.84600067138672,-19.983999252319336,-1.2940000295639038,-8.687000274658203,2.7300000190734863
1622109311998,0.699999988079071,39.233001708984375,-20.94499969482422,-1.1770000457763672,-8.635000228881836,2.6600000858306885
1622109312008,-0.7699999809265136,38.77899932861328,-21.593999862670895,-1.0980000495910645,-8.621000289916992,2.5829999446868896
1622109312018,-1.8200000524520872,37.55799865722656,-21.524999618530273,-0.981000006198883,-8.621000289916992,2.5829999446868896
1622109312028,-2.6600000858306885,35.895999908447266,-20.96500015258789,-0.8629999756813049,-8.628000259399414,2.621000051498413
1622109312038,-3.0799999237060547,34.07899856567383,-19.934999465942383,-0.8629999756813049,-8.58899974822998,2.628000020980835
1622109312048,-3.5,31.82900047302246,-19.266000747680664,-0.8240000009536743,-8.666000366210938,2.614000082015991
1622109312058,-3.53499984741211,30.626998901367188,-18.695999145507812,-0.7850000262260437,-8.67300033569336,2.6530001163482666
1622109312068,-3.569999933242798,29.424999237060547,-18.125999450683594,-0.7059999704360961,-8.67300033569336,2.6530001163482666
1622109312078,-3.6400001049041744,27.218999862670895,-17.305999755859375,-0.6669999957084655,-8.680000305175781,2.691999912261963
1622109312088,-3.0799999237060547,25.17099952697754,-17.382999420166016,-0.6280000209808348,-8.847999572753906,2.7420001029968266
1622109312098,-2.940000057220459,23.15999984741211,-17.66699981689453,-0.5490000247955322,-8.899999618530273,2.812000036239624
1622109312108,-3.0799999237060547,21.13999938964844,-18.30699920654297,-0.5099999904632568,-8.946000099182129,2.8440001010894775
1622109312118,-3.569999933242798,18.447999954223633,-18.354999542236328,-0.4709999859333038,-9.050000190734863,2.984999895095825
1622109312128,-3.9200000762939458,15.621000289916992,-17.645000457763672,-0.3529999852180481,-9.102999687194824,3.055000066757202
1622109312138,-4.690000057220459,12.604999542236328,-16.257999420166016,-0.3140000104904174,-9.147999763488768,3.086999893188477
1622109312148,-5.110000133514404,8.857999801635742,-14.359999656677246,-0.1959999948740005,-9.053000450134276,3.2230000495910645
1622109312158,-5.460000038146973,5.241000175476074,-12.793999671936035,-0.0780000016093254,-9.065999984741213,3.3010001182556152
1622109312168,-5.110000133514404,0.8939999938011169,-11.925999641418455,0.0,-9.156999588012695,3.364000082015991
1622109312178,-4.900000095367432,-4.185999870300293,-11.32900047302246,0.0390000008046627,-9.300000190734863,3.497999906539917
1622109312188,-5.039999961853027,-8.979000091552734,-10.753000259399414,0.0780000016093254,-9.461999893188477,3.509999990463257
1622109312198,-6.090000152587891,-13.894000053405762,-9.487000465393066,0.0390000008046627,-9.54599952697754,3.5350000858306885
1622109312208,-7.139999866485596,-18.844999313354492,-8.013999938964844,0.0390000008046627,-9.642999649047852,3.63700008392334
1622109312218,-8.329999923706055,-23.5,-6.204999923706055,-0.0390000008046627,-9.70699977874756,3.5460000038146973
1622109312228,-9.520000457763674,-27.732999801635746,-5.173999786376953,-0.1570000052452087,-9.70699977874756,3.5460000038146973
1622109312238,-10.359999656677246,-30.607999801635746,-5.396999835968018,-0.2750000059604644,-9.630000114440918,3.559999942779541
1622109312248,-10.710000038146973,-33.50699996948242,-6.690000057220459,-0.3529999852180481,-9.647999763488768,3.437000036239624
1622109312258,-12.31999969482422,-36.321998596191406,-7.256999969482423,-0.3919999897480011,-9.833999633789062,3.364000082015991
1622109312268,-12.844999313354492,-37.020999908447266,-6.918499946594238,-0.4309999942779541,-9.91100025177002,3.3510000705718994
1622109312278,-13.369999885559082,-37.720001220703125,-6.579999923706055,-0.4709999859333038,-9.982000350952148,3.299000024795532
1622109312288,-13.4399995803833,-38.65700149536133,-7.314000129699707,-0.3919999897480011,-10.013999938964844,3.253000020980835
1622109312298,-11.899999618530272,-38.82400131225586,-10.399999618530272,-0.3919999897480011,-9.91800022125244,3.388999938964844
1622109312308,-9.520000457763674,-38.56100082397461,-15.116000175476074,-0.3529999852180481,-9.685999870300291,3.430000066757202
1622109312318,-7.559999942779541,-38.19300079345703,-18.81800079345703,-0.3140000104904174,-9.479999542236328,3.38700008392334
1622109312328,-7.0,-37.770999908447266,-20.80500030517578,-0.1959999948740005,-9.241000175476074,3.388999938964844
1622109312338,-7.280000209808349,-37.847999572753906,-19.965999603271484,-0.0780000016093254,-8.840999603271484,3.380000114440918
1622109312348,-6.440000057220459,-38.20899963378906,-17.114999771118164,-0.0390000008046627,-8.668000221252441,3.5299999713897705
1622109312358,-4.690000057220459,-37.59199905395508,-15.371000289916992,0.0,-8.534000396728516,3.67300009727478
1622109312368,-2.240000009536743,-36.57400131225586,-15.902999877929688,0.1570000052452087,-8.425000190734863,3.73200011253357
1622109312378,0.7699999809265136,-35.76300048828125,-17.679000854492188,0.2349999994039535,-8.425000190734863,3.73200011253357
1622109312388,3.2200000286102295,-34.3849983215332,-19.85300064086914,0.3529999852180481,-8.432000160217285,3.7709999084472656
1622109312398,4.96999979019165,-33.13199996948242,-20.910999298095703,0.4709999859333038,-8.586999893188477,3.7439999580383305
1622109312408,6.300000190734863,-31.51799964904785,-21.19499969482422,0.5490000247955322,-8.748000144958496,3.755000114440918
1622109312418,6.789999961853027,-30.32200050354004,-21.125999450683594,0.6280000209808348,-9.012000083923342,3.6689999103546143
1622109312428,6.440000057220459,-28.83799934387207,-21.07799911499023,0.7450000047683715,-9.359000205993652,3.6080000400543217
1622109312438,4.96999979019165,-27.195999145507812,-20.71699905395508,0.7850000262260437,-9.590999603271484,3.566999912261963
1622109312448,3.009999990463257,-25.840999603271484,-20.336000442504883,0.9020000100135804,-9.66800022125244,3.552999973297119
1622109312458,1.3300000429153442,-24.503000259399418,-19.461000442504883,1.0199999809265137,-9.623000144958496,3.5209999084472656
1622109312468,-1.399999976158142,-23.420000076293945,-18.34600067138672,1.0980000495910645,-9.531999588012695,3.4579999446868896
1622109312478,-3.7100000381469727,-21.854999542236328,-17.145999908447266,1.1770000457763672,-9.440999984741213,3.3940000534057617
1622109312488,-4.760000228881836,-21.363998413085938,-16.703998565673828,1.2940000295639038,-9.286999702453612,3.4210000038146973
1622109312498,-5.809999942779541,-20.87299919128418,-16.261999130249023,1.2549999952316284,-9.104999542236328,3.2939999103546143
1622109312508,-7.210000038146973,-19.441999435424805,-16.719999313354492,1.2940000295639038,-8.975000381469727,3.236999988555908
1622109312518,-6.929999828338623,-17.885000228881836,-18.29400062561035,1.3339999914169312,-8.883999824523926,3.1730000972747803
1622109312528,-6.300000190734863,-16.035999298095703,-19.104999542236328,1.4509999752044678,-8.831999778747559,3.1029999256134033
1622109312538,-5.739999771118164,-14.244000434875488,-18.788999557495117,1.569000005722046,-8.805000305175781,2.947999954223633
1622109312548,-4.900000095367432,-13.395999908447266,-18.354999542236328,1.687000036239624,-8.79800033569336,2.9100000858306885
1622109312558,-3.7100000381469727,-12.965999603271484,-17.56800079345703,1.7649999856948853,-8.829999923706055,2.864000082015991
1622109312568,-3.5,-12.630000114440918,-16.6560001373291,1.843999981880188,-8.906999588012695,2.8510000705718994
1622109312577,-3.569999933242798,-12.694000244140623,-15.88599967956543,1.9220000505447388,-8.939000129699707,2.805000066757202
1622109312587,-3.990000009536743,-13.204999923706056,-14.199000358581545,2.000999927520752,-8.932000160217285,2.7669999599456787
1622109312597,-4.900000095367432,-13.420000076293944,-12.175000190734863,2.000999927520752,-8.925000190734863,2.7279999256134033
1622109312607,-5.880000114440918,-13.472000122070312,-10.265000343322754,2.000999927520752,-8.996000289916992,2.6760001182556152
1622109312617,-6.929999828338623,-13.967000007629396,-9.072999954223633,2.000999927520752,-9.04800033569336,2.746000051498413
1622109312627,-7.070000171661377,-15.032999992370604,-8.265999794006348,2.0399999618530273,-8.98900032043457,2.63700008392334
1622109312637,-6.929999828338623,-14.960000038146973,-7.47100019454956,2.0399999618530273,-8.866000175476074,2.61899995803833
1622109312647,-5.320000171661377,-15.31700038909912,-6.255000114440918,2.0399999618530273,-8.737000465393066,2.562000036239624
1622109312657,-3.5,-15.734000205993652,-4.692999839782715,2.0789999961853027,-8.781999588012695,2.5940001010894775
1622109312667,-1.8200000524520872,-16.297000885009766,-3.513000011444092,2.0399999618530273,-8.944000244140625,2.6050000190734863
1622109312677,-0.4199999868869781,-16.788000106811523,-2.746999979019165,2.0399999618530273,-9.090999603271484,2.5390000343322754
1622109312687,0.2800000011920929,-17.0310001373291,-2.5769999027252197,2.000999927520752,-9.23900032043457,2.4739999771118164
1622109312697,0.7699999809265136,-16.836999893188477,-2.4709999561309814,1.9609999656677248,-9.270999908447264,2.427999973297119
1622109312707,0.9449999928474426,-16.64849853515625,-2.330999851226806,2.000999927520752,-9.25699996948242,2.3510000705718994
1622109312717,1.1200000047683716,-16.459999084472656,-2.190999984741211,1.9609999656677248,-9.211999893188477,2.319000005722046
1622109312727,1.4700000286102295,-16.33799934387207,-1.6720000505447388,2.000999927520752,-9.166000366210936,2.2869999408721924
1622109312737,1.0499999523162842,-15.725000381469728,-0.7110000252723693,1.9609999656677248,-9.095999717712402,2.3399999141693115
1622109312747,1.1200000047683716,-15.505999565124512,-0.7440000176429749,1.9609999656677248,-9.050000190734863,2.308000087738037
1622109312757,0.8399999737739563,-15.765999794006348,-0.0790000036358833,1.9220000505447388,-9.01900005340576,2.3529999256134033
1622109312767,0.6299999952316284,-15.404999732971191,0.6959999799728394,1.8830000162124632,-8.987000465393066,2.3989999294281006
1622109312777,0.4900000095367431,-13.843999862670898,1.1130000352859497,1.9609999656677248,-8.940999984741211,2.3670001029968266
1622109312787,0.7699999809265136,-12.270000457763672,0.2529999911785125,2.0399999618530273,-9.01900005340576,2.3529999256134033
1622109312797,0.8399999737739563,-11.20400047302246,-1.7619999647140503,2.1570000648498535,-9.057000160217283,2.3459999561309814
1622109312807,0.4900000095367431,-9.777000427246092,-3.003000020980835,2.197000026702881,-9.102999687194824,2.378000020980835
1622109312817,0.1400000005960464,-8.309000015258789,-3.6689999103546143,2.236000061035156,-9.25699996948242,2.3510000705718994
1622109312827,0.1400000005960464,-6.484000205993652,-3.134000062942505,2.2750000953674316,-9.380000114440918,2.36899995803833
1622109312837,-0.0700000002980232,-5.283999919891357,-2.2820000648498535,2.2750000953674316,-9.46399974822998,2.3940000534057617
1622109312847,0.0700000002980232,-4.011000156402588,-1.843999981880188,2.313999891281128,-9.508999824523924,2.4260001182556152
1622109312857,0.1400000005960464,-2.2179999351501465,-1.5279999971389773,2.313999891281128,-9.541000366210936,2.380000114440918
1622109312867,0.1400000005960464,-0.7139999866485595,-1.1920000314712524,2.313999891281128,-9.496000289916992,2.3489999771118164
1622109312877,0.209999993443489,1.0049999952316284,-1.6710000038146973,2.2750000953674316,-9.482000350952148,2.2709999084472656
1622109312887,0.6299999952316284,2.3350000381469727,-2.359999895095825,2.3540000915527344,-9.496000289916992,2.3489999771118164
1622109312897,0.7699999809265136,3.763000011444092,-2.3929998874664307,2.313999891281128,-9.508999824523924,2.4260001182556152
1622109312907,0.4199999868869781,4.992000102996826,-0.8970000147819519,2.2750000953674316,-9.425000190734863,2.4010000228881836
1622109312917,0.3499999940395355,6.638000011444092,0.2460000067949295,2.2750000953674316,-9.354999542236328,2.453000068664551
1622109312927,0.1049999967217445,7.364000320434569,0.76500004529953,2.236000061035156,-9.354999542236328,2.453000068664551
1622109312937,-0.1400000005960464,8.09000015258789,1.284000039100647,2.197000026702881,-9.354999542236328,2.453000068664551
1622109312947,-0.699999988079071,9.659000396728516,2.059000015258789,2.0789999961853027,-9.309000015258787,2.4210000038146973
1622109312957,-0.7699999809265136,11.609999656677246,2.687000036239624,2.000999927520752,-9.225000381469728,2.3959999084472656
1622109312967,-1.3300000429153442,13.37399959564209,3.566999912261963,1.9220000505447388,-9.14099979400635,2.371000051498413
1622109312977,-1.8200000524520872,15.576000213623049,4.38100004196167,1.8830000162124632,-9.18000030517578,2.365000009536743
1622109312987,-2.380000114440918,18.33300018310547,4.867000102996826,1.8830000162124632,-9.218999862670898,2.3580000400543213
1622109312997,-3.7799999713897705,20.628000259399418,4.3480000495910645,1.7649999856948853,-9.128000259399414,2.2939999103546143
1622109313007,-5.460000038146973,22.76499938964844,3.5169999599456787,1.72599995136261,-9.14099979400635,2.371000051498413
1622109313017,-6.579999923706055,25.197999954223633,3.0220000743865967,1.687000036239624,-9.232000350952148,2.434999942779541
1622109313027,-7.9099998474121085,28.121999740600582,2.9679999351501465,1.6480000019073486,-9.309000015258787,2.4210000038146973
1622109313037,-9.170000076293944,30.90399932861328,3.316999912261963,1.687000036239624,-9.277999877929688,2.4670000076293945
1622109313047,-10.079999923706056,33.16999816894531,3.361000061035156,1.72599995136261,-9.23900032043457,2.4739999771118164
1622109313057,-11.199999809265137,35.132999420166016,2.711999893188477,1.72599995136261,-9.23900032043457,2.4739999771118164
1622109313067,-11.899999618530272,37.56600189208984,2.2170000076293945,1.72599995136261,-9.309000015258787,2.4210000038146973
1622109313077,-12.460000038146973,40.00299835205078,1.2960000038146973,1.687000036239624,-9.399999618530272,2.484999895095825
1622109313087,-14.140000343322754,42.430999755859375,0.0179999992251396,1.6480000019073486,-9.51599979400635,2.4649999141693115
1622109313097,-16.239999771118164,44.77899932861328,-1.2020000219345093,1.5299999713897705,-9.762000083923342,2.500999927520752
1622109313107,-18.1299991607666,48.319000244140625,-1.9290000200271609,1.4509999752044678,-9.897999763488768,2.5959999561309814
1622109313117,-20.440000534057617,52.20800018310547,-3.0199999809265137,1.3339999914169312,-10.013999938964844,2.575999975204468
1622109313127,-22.399999618530273,56.257999420166016,-4.224999904632568,1.2549999952316284,-10.097999572753906,2.6010000705718994
1622109313137,-24.56999969482422,60.016998291015625,-4.984000205993652,1.2549999952316284,-10.20699977874756,2.5420000553131104
1622109313147,-25.30500030517578,61.930999755859375,-5.357000350952148,1.2549999952316284,-10.354999542236328,2.4760000705718994
1622109313157,-26.040000915527344,63.845001220703125,-5.730000019073486,1.2940000295639038,-10.340999603271484,2.3989999294281006
1622109313167,-27.790000915527344,67.19000244140625,-6.561999797821045,1.4119999408721924,-10.33899974822998,2.1600000858306885
1622109313177,-29.469999313354492,69.71199798583984,-6.756999969482422,1.3730000257492063,-10.300000190734863,2.1670000553131104
1622109313187,-30.100000381469727,71.375,-6.109000205993652,1.4509999752044678,-10.100000381469728,2.1619999408721924
1622109313197,-31.290000915527344,72.16600036621094,-5.75600004196167,1.4509999752044678,-9.95699977874756,2.0280001163482666
1622109313207,-31.850000381469727,72.28800201416016,-5.236999988555908,1.4509999752044678,-9.859000205993652,1.9259999990463257
1622109313217,-33.040000915527344,72.16600036621094,-4.547999858856201,1.491000056266785,-9.652999877929688,1.8830000162124632
1622109313227,-34.5099983215332,71.68800354003906,-3.849999904632568,1.4509999752044678,-9.484000205993652,1.8329999446868896
1622109313237,-35.70000076293945,70.74299621582031,-3.73200011253357,1.4119999408721924,-9.322999954223633,1.8209999799728391
1622109313247,-36.04999923706055,70.34500122070312,-4.300000190734863,1.3339999914169312,-9.263999938964846,1.712000012397766
1622109313257,-36.33000183105469,69.50199890136719,-3.950999975204468,1.3339999914169312,-9.102999687194824,1.7009999752044678
1622109313267,-36.470001220703125,67.8759994506836,-3.5980000495910645,1.2549999952316284,-8.928000450134277,1.6119999885559082
1622109313277,-35.97999954223633,65.94599914550781,-3.937999963760376,1.2940000295639038,-8.822999954223633,1.4709999561309814
1622109313287,-36.119998931884766,64.42500305175781,-3.7799999713897705,1.215999960899353,-8.932000160217285,1.4119999408721924
1622109313297,-36.81999969482422,62.617000579833984,-3.6010000705718994,1.0199999809265137,-9.010000228881836,1.39900004863739
1622109313307,-37.310001373291016,60.73099899291992,-3.7920000553131104,0.9409999847412108,-8.932000160217285,1.4119999408721924
1622109313317,-37.52000045776367,58.80500030517578,-5.765999794006348,0.9020000100135804,-8.847999572753906,1.3869999647140503
1622109313327,-37.380001068115234,57.39699935913086,-6.6539998054504395,0.7850000262260437,-8.803000450134277,1.3559999465942385
1622109313337,-36.61000061035156,56.87799835205078,-6.5320000648498535,0.6669999957084655,-8.835000038146973,1.309999942779541
1622109313347,-35.4900016784668,56.027000427246094,-6.539999961853027,0.5879999995231628,-8.873000144958496,1.3029999732971191
1622109313357,-34.29999923706055,54.91600036621094,-7.0920000076293945,0.5099999904632568,-8.918999671936035,1.3350000381469729
1622109313367,-32.83000183105469,53.4109992980957,-7.427999973297118,0.5490000247955322,-8.88700008392334,1.38100004196167
1622109313377,-30.8700008392334,51.391998291015625,-6.860000133514404,0.5490000247955322,-8.96399974822998,1.3669999837875366
1622109313387,-30.065000534057617,50.55699920654297,-6.1545000076293945,0.5490000247955322,-9.041000366210936,1.3530000448226929
1622109313397,-29.260000228881836,49.72200012207031,-5.448999881744385,0.4709999859333038,-9.079999923706056,1.3459999561309814
1622109313407,-27.510000228881836,47.38999938964844,-3.513999938964844,0.4709999859333038,-9.156999588012695,1.3329999446868896
1622109313417,-25.6200008392334,45.22100067138672,-1.6929999589920044,0.3140000104904174,-9.178000450134276,1.4490000009536743
1622109313427,-23.8700008392334,43.31100082397461,-0.537000000476837,0.2750000059604644,-9.229999542236328,1.5190000534057615
1622109313437,-21.700000762939453,41.98099899291992,-1.055999994277954,0.1570000052452087,-9.33899974822998,1.4600000381469729
1622109313447,-19.11000061035156,40.93899917602539,-2.803999900817871,0.0,-9.619000434875488,1.690000057220459
1622109313457,-18.270000457763672,40.19599914550781,-4.639999866485596,0.0,-9.616000175476074,1.4509999752044678
1622109313467,-17.43000030517578,40.04999923706055,-5.021999835968018,0.0390000008046627,-9.64099979400635,1.3669999837875366
1622109313477,-16.030000686645508,38.89500045776367,-5.7230000495910645,0.0390000008046627,-9.694000244140623,1.437000036239624
1622109313487,-14.279999732971191,37.59299850463867,-4.388999938964844,0.0,-9.770999908447264,1.4240000247955322
1622109313497,-12.390000343322754,36.37300109863281,-1.9029999971389773,-0.1570000052452087,-9.809000015258787,1.4170000553131104
1622109313507,-11.199999809265137,34.28099822998047,0.2870000004768371,-0.2750000059604644,-9.939000129699709,1.4739999771118164
1622109313517,-9.800000190734863,33.486000061035156,0.3600000143051147,-0.3529999852180481,-10.02299976348877,1.4989999532699585
1622109313527,-8.819999694824219,32.7400016784668,0.1580000072717666,-0.4709999859333038,-10.029999732971191,1.5369999408721924
1622109313537,-8.050000190734863,32.63800048828125,-1.281999945640564,-0.4709999859333038,-10.062000274658203,1.4919999837875366
1622109313547,-7.699999809265136,32.20500183105469,-1.6430000066757202,-0.4309999942779541,-10.093999862670898,1.4470000267028809
1622109313557,-7.980000019073486,31.30900001525879,-0.5920000076293945,-0.3919999897480011,-10.093999862670898,1.4470000267028809
1622109313567,-8.539999961853027,30.322999954223633,0.1580000072717666,-0.3919999897480011,-10.17099952697754,1.4329999685287476
1622109313577,-9.029999732971191,29.56100082397461,0.449999988079071,-0.3919999897480011,-10.178000450134276,1.4720000028610227
1622109313587,-10.149999618530272,28.790000915527344,0.3849999904632568,-0.4309999942779541,-10.178000450134276,1.4720000028610227
1622109313597,-11.340000152587892,28.084999084472656,-0.449999988079071,-0.4709999859333038,-10.093999862670898,1.4470000267028809
1622109313607,-12.529999732971191,28.007999420166016,-0.8190000057220459,-0.4309999942779541,-10.008999824523926,1.4220000505447388
1622109313617,-13.649999618530272,27.086999893188477,-0.8389999866485595,-0.3919999897480011,-9.932000160217283,1.434999942779541
1622109313627,-13.93000030517578,26.263999938964844,-1.4110000133514404,-0.3919999897480011,-9.809000015258787,1.4170000553131104
1622109313637,-14.210000038146973,25.595001220703125,-1.244499921798706,-0.3529999852180481,-9.725000381469728,1.3919999599456787
1622109313647,-14.489999771118164,24.926000595092773,-1.0779999494552612,-0.3919999897480011,-9.68000030517578,1.3600000143051147
1622109313657,-14.140000343322754,23.701000213623047,-0.5830000042915344,-0.4309999942779541,-9.711999893188477,1.315000057220459
1622109313667,-14.210000038146973,22.534000396728516,-0.0070000002160668,-0.4709999859333038,-9.737000465393066,1.2309999465942385
1622109313677,-13.859999656677246,21.19099998474121,0.7509999871253967,-0.4709999859333038,-9.793999671936035,1.10099995136261
1622109313687,-14.279999732971191,19.55699920654297,1.955999970436096,-0.5879999995231628,-9.741000175476074,1.031000018119812
1622109313697,-15.470000267028809,18.47100067138672,2.4749999046325684,-0.6280000209808348,-9.779999732971191,1.02400004863739
1622109313707,-16.170000076293945,17.038999557495117,2.933000087738037,-0.6669999957084655,-9.80500030517578,0.9399999976158142
1622109313717,-17.079999923706055,15.52299976348877,2.6659998893737793,-0.7059999704360961,-9.791000366210936,0.8629999756813049
1622109313727,-18.1299991607666,13.779000282287598,3.2829999923706055,-0.6669999957084655,-9.822999954223633,0.8169999718666076
1622109313737,-18.899999618530273,12.644000053405762,4.078000068664551,-0.7850000262260437,-9.732000350952148,0.7530000209808348
1622109313747,-19.25,11.61400032043457,3.4690001010894775,-0.8240000009536743,-9.647999763488768,0.7279999852180481
1622109313757,-19.040000915527344,10.397000312805176,3.11299991607666,-0.8629999756813049,-9.487000465393066,0.7170000076293945
1622109313767,-18.200000762939453,9.246000289916992,1.9859999418258667,-0.9020000100135804,-9.440999984741213,0.6850000023841857
1622109313777,-16.8700008392334,7.97599983215332,1.121999979019165,-0.8629999756813049,-9.395999908447264,0.652999997138977
1622109313787,-15.68000030517578,6.715000152587891,0.615000009536743,-0.8629999756813049,-9.388999938964846,0.615000009536743
1622109313797,-15.050000190734863,6.050000190734863,-0.8519999980926513,-0.9020000100135804,-9.484999656677246,0.4790000021457672
1622109313807,-14.770000457763672,5.295000076293945,-2.619999885559082,-0.8629999756813049,-9.60099983215332,0.4580000042915344
1622109313817,-15.050000190734863,5.335999965667725,-4.460999965667725,-0.8629999756813049,-9.70300006866455,0.3600000143051147
1622109313827,-16.309999465942383,5.047999858856201,-5.64900016784668,-0.8240000009536743,-9.79800033569336,0.2240000069141387
1622109313837,-17.43000030517578,4.783999919891357,-6.974999904632568,-0.7059999704360961,-9.887000083923342,0.0489999987185001
1622109313847,-18.549999237060547,5.011000156402588,-7.859000205993653,-0.5879999995231628,-10.003000259399414,0.0289999991655349
1622109313857,-19.950000762939453,5.368000030517578,-9.076000213623049,-0.5099999904632568,-10.020999908447266,-0.0939999967813491
1622109313867,-20.09000015258789,5.322999954223633,-9.829999923706056,-0.3919999897480011,-9.968999862670898,-0.164000004529953
1622109313877,-20.229999542236328,5.2779998779296875,-10.583999633789064,-0.2750000059604644,-9.979999542236328,-0.3260000050067901
1622109313887,-20.229999542236328,4.763000011444092,-10.887999534606934,-0.2349999994039535,-10.08199977874756,-0.4239999949932098
1622109313897,-20.020000457763672,4.357999801635742,-9.395999908447264,-0.1959999948740005,-10.152999877929688,-0.4760000109672546
1622109313907,-18.690000534057617,3.7339999675750737,-7.870999813079834,-0.1570000052452087,-10.02299976348877,-0.5329999923706054
1622109313917,-18.34000015258789,2.950999975204468,-6.658999919891357,-0.1180000007152557,-9.819000244140623,-0.3370000123977661
1622109313927,-18.270000457763672,2.427999973297119,-4.9029998779296875,-0.1180000007152557,-9.57800006866455,-0.5740000009536743
1622109313937,-17.43000030517578,2.0190000534057617,-2.984999895095825,-0.1180000007152557,-9.487000465393066,-0.637000024318695
1622109313947,-15.329999923706056,2.9149999618530273,-1.618000030517578,-0.1570000052452087,-9.494000434875488,-0.5989999771118164
1622109313957,-13.159999847412108,3.9170000553131104,-1.6549999713897705,-0.1959999948740005,-9.333000183105469,-0.6100000143051147
1622109313967,-10.56999969482422,4.500999927520752,-3.7560000419616695,-0.1180000007152557,-9.326000213623049,-0.6489999890327453
1622109313977,-8.119999885559082,5.460999965667725,-5.576000213623047,0.0,-9.40999984741211,-0.6240000128746032
1622109313987,-6.230000019073486,6.705999851226807,-5.7829999923706055,0.0,-9.44200038909912,-0.6690000295639038
1622109313997,-4.480000019073486,7.520999908447266,-5.568999767303467,0.0780000016093254,-9.40999984741211,-0.6240000128746032
1622109314007,-3.1500000953674316,7.309999942779541,-6.388000011444092,0.0780000016093254,-9.494000434875488,-0.5989999771118164
1622109314017,-1.9600000381469729,7.179999828338623,-7.263000011444091,0.1570000052452087,-9.758000373840332,-0.6850000023841857
1622109314027,-2.799999952316284,6.820000171661377,-6.829999923706055,0.1180000007152557,-9.814000129699709,-0.8140000104904174
1622109314037,-4.409999847412109,6.966000080108643,-6.447999954223633,0.0780000016093254,-9.80799961090088,-0.8529999852180481
1622109314047,-5.809999942779541,6.5920000076293945,-7.1539998054504395,0.1180000007152557,-9.814000129699709,-0.8140000104904174
1622109314057,-7.0,6.195000171661377,-7.722000122070312,0.1570000052452087,-9.814000129699709,-0.8140000104904174
1622109314067,-7.280000209808349,5.388000011444092,-7.579999923706055,0.1959999948740005,-9.859999656677246,-0.7829999923706054
1622109314077,-7.349999904632568,4.864999771118164,-7.0320000648498535,0.2349999994039535,-9.97599983215332,-0.8029999732971191
1622109314087,-7.80500030517578,4.7779998779296875,-6.33650016784668,0.2750000059604644,-10.00100040435791,-0.887000024318695
1622109314097,-8.260000228881836,4.690999984741211,-5.640999794006348,0.2750000059604644,-9.92300033569336,-0.8730000257492065
1622109314107,-10.220000267028809,4.285999774932861,-4.14900016784668,0.2750000059604644,-9.871000289916992,-0.944000005722046
1622109314117,-12.31999969482422,3.7260000705718994,-3.3949999809265137,0.3140000104904174,-9.762000083923342,-0.8849999904632568
1622109314127,-13.789999961853027,4.010000228881836,-2.989000082015991,0.2750000059604644,-9.638999938964846,-0.902999997138977
1622109314137,-14.350000381469728,4.156000137329102,-2.6080000400543213,0.3140000104904174,-9.562000274658203,-0.8889999985694885
1622109314147,-13.859999656677246,4.447999954223633,-1.8459999561309817,0.3529999852180481,-9.517000198364256,-0.9210000038146972
1622109314157,-13.020000457763672,4.565999984741211,-0.9010000228881836,0.3140000104904174,-9.6850004196167,-0.8709999918937683
1622109314167,-13.4399995803833,4.392000198364258,0.4900000095367431,0.3529999852180481,-9.413999557495115,-0.8240000009536743
1622109314177,-14.0,4.322999954223633,1.6859999895095823,0.3529999852180481,-9.277999877929688,-0.9190000295639038
1622109314187,-13.4399995803833,4.585999965667725,1.8040000200271609,0.3919999897480011,-9.413999557495115,-0.8240000009536743
1622109314197,-12.529999732971191,5.01200008392334,3.0160000324249268,0.3140000104904174,-9.569000244140623,-0.8510000109672546
1622109314207,-11.6899995803833,5.122000217437744,3.6040000915527344,0.3140000104904174,-9.491999626159668,-0.8370000123977661
1622109314217,-10.850000381469728,5.1579999923706055,2.188999891281128,0.3529999852180481,-9.529999732971191,-0.8439999818801879
1622109314227,-10.710000038146973,5.085000038146973,1.3940000534057615,0.3529999852180481,-9.569000244140623,-0.8510000109672546
1622109314237,-11.479999542236328,5.110000133514404,2.4649999141693115,0.2750000059604644,-9.543999671936035,-0.7670000195503234
1622109314246,-11.760000228881836,4.88700008392334,2.9230000972747803,0.1959999948740005,-9.477999687194824,-0.9139999747276306
1622109314256,-11.760000228881836,4.801000118255615,2.197000026702881,0.1959999948740005,-9.45300006866455,-0.8299999833106994
1622109314266,-12.039999961853027,4.423999786376953,1.9170000553131104,0.2349999994039535,-9.413999557495115,-0.8240000009536743
1622109314276,-11.6899995803833,4.22599983215332,2.23799991607666,0.2750000059604644,-9.383000373840332,-0.777999997138977
1622109314286,-10.640000343322754,3.3340001106262207,2.861999988555908,0.3140000104904174,-9.357999801635742,-0.6940000057220459
1622109314296,-10.255000114440918,3.001500129699707,3.3365001678466797,0.3140000104904174,-9.319000244140623,-0.6869999766349792
1622109314306,-9.869999885559082,2.6689999103546143,3.811000108718872,0.3529999852180481,-9.279999732971191,-0.6800000071525573
1622109314316,-8.960000038146973,1.6749999523162842,4.204999923706055,0.3140000104904174,-9.286999702453612,-0.6420000195503234
1622109314326,-8.1899995803833,0.4059999883174896,4.550000190734863,0.3529999852180481,-9.402999877929688,-0.662000000476837
1622109314336,-7.139999866485596,-0.4329999983310699,4.4730000495910645,0.3140000104904174,-9.494000434875488,-0.5989999771118164
1622109314346,-6.159999847412109,-0.559000015258789,4.379000186920166,0.2750000059604644,-9.571000099182127,-0.6119999885559082
1622109314356,-5.110000133514404,-0.6890000104904174,2.2950000762939453,0.2750000059604644,-9.647999763488768,-0.6259999871253967
1622109314366,-4.059999942779541,-1.1599999666213987,0.9330000281333924,0.3140000104904174,-9.654999732971191,-0.5870000123977661
1622109314376,-3.1500000953674316,-1.837000012397766,0.7419999837875366,0.3529999852180481,-9.623000144958496,-0.5419999957084655
1622109314386,-2.5899999141693115,-2.1610000133514404,0.968999981880188,0.3140000104904174,-9.623000144958496,-0.5419999957084655
1622109314396,-2.7300000190734863,-2.5299999713897705,1.0470000505447388,0.3140000104904174,-9.654999732971191,-0.5870000123977661
1622109314406,-2.240000009536743,-2.691999912261963,1.1599999666213987,0.2750000059604644,-9.701000213623049,-0.5550000071525573
1622109314416,-1.8899999856948853,-2.7170000076293945,0.0900000035762786,0.2750000059604644,-9.746000289916992,-0.5239999890327453
1622109314426,-2.0299999713897705,-2.8829998970031734,-0.5789999961853027,0.2750000059604644,-9.791999816894531,-0.492000013589859
1622109314436,-1.8899999856948853,-3.0940001010894775,-0.1899999976158142,0.3140000104904174,-9.869000434875488,-0.5049999952316284
1622109314446,-2.5899999141693115,-3.114000082015991,0.7300000190734863,0.3140000104904174,-9.843999862670898,-0.4210000038146972
1622109314456,-2.940000057220459,-3.178999900817871,1.5010000467300415,0.3140000104904174,-9.767000198364256,-0.4079999923706054
1622109314466,-2.799999952316284,-3.434000015258789,1.7400000095367432,0.2750000059604644,-9.619000434875488,-0.3420000076293945
1622109314476,-1.8200000524520872,-3.252000093460083,1.9140000343322752,0.2750000059604644,-9.62600040435791,-0.3030000030994415
1622109314486,-2.240000009536743,-3.003999948501587,2.5269999504089355,0.3140000104904174,-9.772999763488768,-0.3689999878406524
1622109314496,-2.799999952316284,-2.7730000019073486,2.424999952316284,0.3140000104904174,-9.720999717712402,-0.4390000104904174
1622109314506,-2.7300000190734863,-2.8545000553131104,1.877500057220459,0.3529999852180481,-9.604999542236328,-0.4189999997615814
1622109314516,-2.6600000858306885,-2.936000108718872,1.3300000429153442,0.3529999852180481,-9.56700038909912,-0.4120000004768371
1622109314526,-1.9600000381469729,-3.9579999446868896,1.0789999961853027,0.3140000104904174,-9.527999877929688,-0.4050000011920929
1622109314536,-0.4900000095367431,-4.666999816894531,1.878000020980835,0.3140000104904174,-9.48900032043457,-0.3989999890327453
1622109314546,1.190000057220459,-5.072000026702881,2.1619999408721924,0.2349999994039535,-9.541999816894531,-0.328000009059906
1622109314556,2.869999885559082,-5.428999900817871,2.1700000762939453,0.2349999994039535,-9.579999923706056,-0.3350000083446502
1622109314566,4.130000114440918,-6.13100004196167,0.9089999794960022,0.1959999948740005,-9.619000434875488,-0.3420000076293945
1622109314576,5.179999828338623,-6.665999889373779,0.31700000166893,0.1570000052452087,-9.663999557495115,-0.3100000023841857
1622109314586,6.579999923706055,-7.222000122070312,-0.5630000233650208,0.0780000016093254,-9.62600040435791,-0.3030000030994415
1622109314596,7.769999980926514,-7.25,-1.2070000171661377,0.0390000008046627,-9.651000022888184,-0.3869999945163726
1622109314606,8.260000228881836,-7.047999858856201,-1.9539999961853027,0.0390000008046627,-9.696000099182127,-0.3549999892711639
1622109314616,8.1899995803833,-6.926000118255615,-2.6429998874664307,0.0390000008046627,-9.767000198364256,-0.4079999923706054
1622109314626,7.699999809265136,-6.646999835968018,-3.0199999809265137,0.0,-9.760000228881836,-0.4460000097751617
1622109314636,7.139999866485596,-6.590000152587891,-2.938999891281128,0.0,-9.753000259399414,-0.4850000143051147
1622109314646,6.789999961853027,-6.824999809265137,-2.4119999408721924,0.0,-9.843999862670898,-0.4210000038146972
1622109314656,6.230000019073486,-6.921999931335449,-1.8600000143051147,0.0,-9.843999862670898,-0.4210000038146972
1622109314666,5.460000038146973,-6.941999912261963,-0.9399999976158142,-0.0390000008046627,-9.88199996948242,-0.4280000030994415
1622109314676,4.269999980926514,-7.164999961853027,-0.4819999933242797,-0.0390000008046627,-9.843999862670898,-0.4210000038146972
1622109314686,4.619999885559082,-7.453000068664551,-0.460999995470047,-0.0390000008046627,-9.630000114440918,-0.5030000209808348
1622109314696,4.96999979019165,-7.955999851226807,-0.8339999914169312,-0.0390000008046627,-9.661999702453612,-0.5490000247955322
1622109314706,5.739999771118164,-8.105999946594238,-0.7900000214576721,-0.0390000008046627,-9.668999671936035,-0.5099999904632568
1622109314716,5.949999809265137,-8.378000259399414,-1.2640000581741333,-0.0780000016093254,-9.668999671936035,-0.5099999904632568
1622109314726,6.159999847412109,-8.649999618530273,-1.7380000352859497,-0.0780000016093254,-9.73900032043457,-0.5619999766349792
1622109314736,6.510000228881836,-8.645999908447266,-2.1640000343322754,-0.1180000007152557,-9.694000244140623,-0.5939999818801879
1622109314746,6.579999923706055,-8.70199966430664,-2.244999885559082,-0.1570000052452087,-9.770999908447264,-0.6079999804496765
1622109314756,5.739999771118164,-8.782999992370605,-2.187999963760376,-0.1959999948740005,-9.770999908447264,-0.6079999804496765
1622109314766,5.320000171661377,-8.861000061035156,-2.556999921798706,-0.1959999948740005,-9.763999938964846,-0.6460000276565551
1622109314776,5.320000171661377,-8.543999671936035,-3.1410000324249268,-0.1570000052452087,-9.763999938964846,-0.6460000276565551
1622109314786,5.25,-8.362000465393066,-2.9670000076293945,-0.2349999994039535,-9.72599983215332,-0.6389999985694885
1622109314796,5.179999828338623,-7.842999935150147,-3.0889999866485596,-0.3140000104904174,-9.564000129699709,-0.6510000228881835
1622109314806,5.599999904632568,-7.48199987411499,-3.5230000019073486,-0.2750000059604644,-9.526000022888184,-0.6439999938011169
1622109314816,6.090000152587891,-7.619999885559082,-3.546999931335449,-0.2349999994039535,-9.564000129699709,-0.6510000228881835
1622109314826,6.230000019073486,-7.563000202178955,-3.4660000801086426,-0.1959999948740005,-9.487000465393066,-0.637000024318695
1622109314836,6.71999979019165,-7.651999950408936,-3.7660000324249263,-0.1959999948740005,-9.494000434875488,-0.5989999771118164
1622109314846,7.139999866485596,-7.892000198364258,-4.020999908447266,-0.1570000052452087,-9.487000465393066,-0.637000024318695
1622109314856,7.9099998474121085,-8.00100040435791,-3.4010000228881836,-0.1180000007152557,-9.447999954223633,-0.6299999952316284
1622109314866,8.399999618530273,-8.244000434875488,-3.2309999465942383,-0.1180000007152557,-9.454999923706056,-0.5920000076293945
1622109314876,9.380000114440918,-8.758999824523926,-3.5350000858306885,-0.0780000016093254,-9.461999893188477,-0.5529999732971191
1622109314886,10.289999961853027,-9.331000328063965,-3.9200000762939458,-0.0780000016093254,-9.42300033569336,-0.5460000038146972
1622109314896,11.829999923706056,-10.069000244140623,-3.7660000324249263,-0.0390000008046627,-9.43000030517578,-0.5080000162124633
1622109314906,12.949999809265137,-10.807000160217283,-3.611000061035156,0.0,-9.508000373840332,-0.5210000276565551
1622109314916,12.914999961853027,-11.395000457763672,-3.501500129699707,0.0,-9.468999862670898,-0.5149999856948853
1622109314926,12.880000114440918,-11.982999801635742,-3.3919999599456787,0.0780000016093254,-9.33899974822998,-0.5709999799728394
1622109314936,13.300000190734863,-13.51200008392334,-3.5910000801086426,0.1180000007152557,-9.276000022888184,-0.4799999892711639
1622109314946,14.0,-15.633000373840332,-4.461999893188477,0.1180000007152557,-9.218999862670898,-0.3510000109672546
1622109314956,15.68000030517578,-17.42099952697754,-3.9960000514984126,0.1180000007152557,-9.194000244140623,-0.2669999897480011
1622109314966,18.059999465942383,-19.2450008392334,-3.322000026702881,0.0780000016093254,-9.322999954223633,-0.209999993443489
1622109314976,19.809999465942383,-21.215999603271484,-3.0299999713897705,0.0,-9.406999588012695,-0.1850000023841857
1622109314986,21.0,-22.988000869750977,-3.058000087738037,-0.0390000008046627,-9.498000144958496,-0.1209999993443489
1622109314996,21.559999465942383,-24.066999435424805,-3.3910000324249268,-0.0780000016093254,-9.58199977874756,-0.096000000834465
1622109315006,21.420000076293945,-24.51300048828125,-4.890999794006348,-0.1570000052452087,-9.642000198364256,0.0130000002682209
1622109315016,21.350000381469727,-24.801000595092773,-6.078999996185303,-0.2349999994039535,-9.73900032043457,0.1150000020861625
1622109315026,20.93000030517578,-25.05299949645996,-7.473999977111816,-0.2750000059604644,-9.753000259399414,0.19200000166893
1622109315036,20.3700008392334,-25.506999969482425,-8.123000144958496,-0.2750000059604644,-9.80500030517578,0.2630000114440918
1622109315046,19.809999465942383,-25.207000732421875,-8.211999893188477,-0.2750000059604644,-9.83199977874756,0.4169999957084655
1622109315056,19.739999771118164,-24.8700008392334,-8.508000373840332,-0.2750000059604644,-9.762000083923342,0.4690000116825103
1622109315066,19.950000762939453,-24.538000106811523,-8.378000259399414,-0.2750000059604644,-9.744000434875488,0.5920000076293945
1622109315076,20.09000015258789,-24.19300079345703,-8.317000389099121,-0.3140000104904174,-9.75699996948242,0.6690000295639038
1622109315086,19.459999084472656,-23.357999801635746,-7.815000057220459,-0.3140000104904174,-9.763999938964846,0.7080000042915344
1622109315096,19.530000686645508,-22.28300094604492,-7.057000160217285,-0.3140000104904174,-9.822999954223633,0.8169999718666076
1622109315106,19.565000534057617,-21.928001403808594,-6.8520002365112305,-0.3529999852180481,-9.906999588012695,0.8420000076293945
1622109315116,19.600000381469727,-21.572999954223633,-6.646999835968018,-0.3529999852180481,-9.92099952697754,0.9190000295639038
1622109315126,19.31999969482422,-20.406000137329105,-7.223000049591064,-0.3919999897480011,-9.972999572753906,0.9900000095367432
1622109315136,19.18000030517578,-19.399999618530273,-7.685999870300293,-0.3919999897480011,-10.050000190734863,0.9760000109672546
1622109315146,18.690000534057617,-17.867000579833984,-7.913000106811523,-0.3919999897480011,-10.057000160217283,1.0149999856948853
1622109315156,17.639999389648438,-16.533000946044922,-7.820000171661377,-0.3919999897480011,-10.064000129699709,1.0529999732971191
1622109315166,17.360000610351562,-15.175000190734863,-7.864999771118165,-0.3919999897480011,-10.078000068664553,1.13100004196167
1622109315176,16.799999237060547,-13.784000396728516,-7.690000057220459,-0.3529999852180481,-10.04599952697754,1.1759999990463257
1622109315186,16.309999465942383,-12.8149995803833,-7.94600009918213,-0.3529999852180481,-9.975000381469728,1.2280000448226929
1622109315196,16.309999465942383,-11.845999717712402,-8.20199966430664,-0.3140000104904174,-9.93000030517578,1.1970000267028809
1622109315206,16.030000686645508,-10.609000205993652,-7.557000160217285,-0.3140000104904174,-9.93000030517578,1.1970000267028809
1622109315216,15.81999969482422,-9.347999572753906,-7.050000190734863,-0.3529999852180481,-9.968999862670898,1.190000057220459
1622109315226,15.81999969482422,-8.520000457763672,-6.9039998054504395,-0.3529999852180481,-9.947999954223633,1.0740000009536743
1622109315236,15.329999923706056,-7.554999828338623,-6.734000205993652,-0.3529999852180481,-9.916000366210936,1.11899995803833
1622109315246,14.489999771118164,-6.432000160217285,-7.460000038146973,-0.3529999852180481,-9.83899974822998,1.1330000162124634
1622109315256,14.279999732971191,-5.316999912261963,-7.335000038146973,-0.3140000104904174,-9.793999671936035,1.10099995136261
1622109315266,14.0,-4.421000003814697,-7.177000045776367,-0.3140000104904174,-9.755000114440918,1.1080000400543213
1622109315276,13.859999656677246,-3.3949999809265137,-7.35099983215332,-0.3529999852180481,-9.748000144958496,1.069000005722046
1622109315286,13.720000267028809,-2.8559999465942383,-7.184999942779541,-0.3529999852180481,-9.762000083923342,1.1469999551773071
1622109315296,13.579999923706056,-2.5215001106262207,-7.267999649047852,-0.3529999852180481,-9.755000114440918,1.1080000400543213
1622109315306,13.4399995803833,-2.187000036239624,-7.35099983215332,-0.3529999852180481,-9.748000144958496,1.069000005722046
1622109315316,13.090000152587892,-1.4730000495910645,-7.368000030517577,-0.3529999852180481,-9.871000289916992,1.0880000591278076
1622109315326,12.18000030517578,-0.8199999928474426,-7.039000034332275,-0.3140000104904174,-9.90999984741211,1.0809999704360962
1622109315336,11.130000114440918,-0.2930000126361846,-6.803999900817871,-0.3140000104904174,-9.90999984741211,1.0809999704360962
1622109315346,9.9399995803833,0.2179999947547912,-7.282999992370605,-0.3140000104904174,-9.902999877929688,1.0420000553131104
1622109315356,8.260000228881836,0.1809999942779541,-7.076000213623047,-0.2750000059604644,-9.9350004196167,0.996999979019165
1622109315366,6.440000057220459,0.3479999899864196,-6.4070000648498535,-0.2750000059604644,-9.940999984741213,1.0349999666213987
1622109315376,5.039999961853027,0.4569999873638153,-5.818999767303467,-0.2349999994039535,-9.940999984741213,1.0349999666213987
1622109315386,3.430000066757202,0.4569999873638153,-5.818999767303467,-0.2750000059604644,-9.940999984741213,1.0349999666213987
1622109315396,1.75,0.3799999952316284,-6.188000202178955,-0.1959999948740005,-9.972999572753906,0.9900000095367432
1622109315406,-0.0700000002980232,0.6719999909400939,-5.426000118255615,-0.1959999948740005,-9.960000038146973,0.9129999876022338
1622109315416,-1.9600000381469729,1.1430000066757202,-5.271999835968018,-0.1959999948740005,-9.95300006866455,0.8740000128746032
1622109315426,-3.569999933242798,1.25600004196167,-5.109000205993652,-0.2349999994039535,-9.95300006866455,0.8740000128746032
1622109315436,-5.179999828338623,0.7820000052452087,-4.8379998207092285,-0.1959999948740005,-9.939000129699709,0.7969999909400939
1622109315446,-6.929999828338623,0.4210000038146972,-4.4039998054504395,-0.1959999948740005,-9.939000129699709,0.7969999909400939
1622109315456,-8.260000228881836,-0.1509999930858612,-3.5810000896453857,-0.1570000052452087,-9.932000160217283,0.7580000162124633
1622109315466,-8.890000343322754,-0.1589999943971633,-2.7290000915527344,-0.1959999948740005,-9.803000450134276,0.7009999752044677
1622109315476,-9.100000381469728,-0.449999988079071,-2.2829999923706055,-0.1570000052452087,-9.718999862670898,0.6759999990463256
1622109315486,-9.065000534057615,-0.68149995803833,-2.18149995803833,-0.1959999948740005,-9.67300033569336,0.6439999938011169
1622109315496,-9.029999732971191,-0.9129999876022338,-2.0799999237060547,-0.2349999994039535,-9.557000160217283,0.6650000214576721
1622109315506,-8.399999618530273,-0.9210000038146972,-1.2289999723434448,-0.2349999994039535,-9.479999542236328,0.6779999732971191
1622109315516,-7.699999809265136,-1.062999963760376,-0.8270000219345092,-0.2750000059604644,-9.454999923706056,0.7630000114440918
1622109315526,-6.860000133514404,-0.9160000085830688,-0.4460000097751617,-0.3140000104904174,-9.479999542236328,0.6779999732971191
1622109315536,-5.880000114440918,-1.2849999666213987,-0.3689999878406524,-0.3140000104904174,-9.479999542236328,0.6779999732971191
1622109315546,-4.760000228881836,-1.1799999475479126,-0.5630000233650208,-0.3529999852180481,-9.505000114440918,0.5939999818801879
1622109315556,-4.059999942779541,-1.1599999666213987,-0.2759999930858612,-0.3529999852180481,-9.543999671936035,0.5879999995231628
1622109315566,-3.5,-1.0019999742507937,0.0370000004768371,-0.3919999897480011,-9.550999641418455,0.6259999871253967
1622109315576,-3.2200000286102295,-1.0099999904632568,-0.3199999928474426,-0.4309999942779541,-9.58899974822998,0.6190000176429749
1622109315586,-3.2899999618530273,-1.062999963760376,-0.8270000219345092,-0.4709999859333038,-9.58899974822998,0.6190000176429749
1622109315596,-3.1500000953674316,-0.6119999885559082,-0.9610000252723692,-0.4709999859333038,-9.64099979400635,0.6899999976158142
1622109315606,-2.869999885559082,0.0850000008940696,-1.6909999847412107,-0.5099999904632568,-9.647999763488768,0.7279999852180481
1622109315616,-2.5899999141693115,0.125,-2.3239998817443848,-0.5099999904632568,-9.64099979400635,0.6899999976158142
1622109315626,-2.309999942779541,0.3479999899864196,-2.7820000648498535,-0.4709999859333038,-9.609999656677246,0.7350000143051147
1622109315636,-1.75,0.8270000219345092,-3.4790000915527344,-0.5099999904632568,-9.616000175476074,0.7739999890327453
1622109315646,-1.5399999618530271,1.5770000219345093,-3.70199990272522,-0.5490000247955322,-9.694000244140623,0.7599999904632568
1622109315656,-1.8200000524520872,1.98199999332428,-3.986000061035156,-0.5099999904632568,-9.73900032043457,0.7919999957084655
1622109315666,-2.309999942779541,2.111999988555908,-4.318999767303467,-0.5099999904632568,-9.668999671936035,0.8439999818801879
1622109315676,-2.309999942779541,2.622999906539917,-4.796999931335449,-0.4709999859333038,-9.675000190734863,0.8830000162124633
1622109315686,-2.2049999237060547,2.750499963760376,-4.916999816894531,-0.3919999897480011,-9.64400005340576,0.9279999732971193
1622109315696,-2.0999999046325684,2.878000020980835,-5.0370001792907715,-0.3529999852180481,-9.619000434875488,1.0130000114440918
1622109315706,-1.399999976158142,2.934999942779541,-4.955999851226807,-0.3529999852180481,-9.586999893188477,1.0579999685287476
1622109315716,-0.3499999940395355,2.9920001029968266,-4.875,-0.3140000104904174,-9.63199996948242,1.0900000333786013
1622109315726,0.5600000023841857,3.125999927520752,-5.632999897003174,-0.2750000059604644,-9.710000038146973,1.0759999752044678
1622109315736,0.9100000262260436,2.7239999771118164,-5.775000095367432,-0.2349999994039535,-9.779999732971191,1.02400004863739
1622109315746,1.2599999904632568,2.489000082015991,-6.455999851226807,-0.1959999948740005,-9.850000381469728,0.9720000028610228
1622109315756,1.190000057220459,2.424000024795532,-6.894000053405762,-0.2349999994039535,-9.819000244140623,1.0169999599456787
1622109315766,0.9100000262260436,1.7910000085830688,-6.934000015258789,-0.1959999948740005,-9.824999809265137,1.055999994277954
1622109315776,0.209999993443489,1.5759999752044678,-7.328000068664551,-0.1570000052452087,-9.779999732971191,1.02400004863739
1622109315786,-0.2800000011920929,1.1469999551773071,-6.906000137329102,-0.1180000007152557,-9.741000175476074,1.031000018119812
1622109315796,-0.7699999809265136,0.8790000081062316,-6.5980000495910645,-0.1180000007152557,-9.734999656677246,0.9919999837875366
1622109315806,-1.1200000047683716,0.6200000047683715,-5.933000087738037,-0.1180000007152557,-9.696000099182127,0.9990000128746032
1622109315816,-1.2599999904632568,0.1570000052452087,-5.730000019073486,-0.1570000052452087,-9.689000129699709,0.9599999785423278
1622109315826,-1.190000057220459,-0.3089999854564666,-5.10099983215332,-0.1570000052452087,-9.720999717712402,0.915000021457672
1622109315836,-1.3300000429153442,-0.8970000147819519,-4.992000102996826,-0.1570000052452087,-9.71399974822998,0.8759999871253967
1622109315846,-1.6799999475479126,-0.7139999866485595,-4.816999912261963,-0.1570000052452087,-9.746000289916992,0.8309999704360961
1622109315856,-2.450000047683716,-0.6489999890327453,-4.379000186920166,-0.1570000052452087,-9.777999877929688,0.7850000262260437
1622109315866,-2.940000057220459,-0.9900000095367432,-3.6570000648498535,-0.1570000052452087,-9.770999908447264,0.746999979019165
1622109315876,-3.849999904632568,-1.0829999446868896,-3.5320000648498535,-0.1959999948740005,-9.79599952697754,0.6629999876022338
1622109315886,-4.760000228881836,-0.9129999876022338,-3.288000106811523,-0.1959999948740005,-9.75699996948242,0.6690000295639038
1622109315896,-5.670000076293945,-1.0670000314712524,-2.818000078201294,-0.1570000052452087,-9.744000434875488,0.5920000076293945
1622109315906,-5.949999809265137,-1.0444999933242798,-2.743000030517578,-0.1570000052452087,-9.744000434875488,0.5920000076293945
1622109315916,-6.230000019073486,-1.0219999551773071,-2.6679999828338623,-0.2349999994039535,-9.729999542236328,0.5149999856948853
1622109315925,-6.579999923706055,-1.256999969482422,-2.1410000324249268,-0.2349999994039535,-9.652999877929688,0.5289999842643737
1622109315935,-7.139999866485596,-1.4919999837875366,-1.6139999628067017,-0.2349999994039535,-9.621000289916992,0.5740000009536743
1622109315945,-7.280000209808349,-1.7480000257492063,-1.3739999532699585,-0.2750000059604644,-9.621000289916992,0.5740000009536743
1622109315955,-7.280000209808349,-1.7359999418258667,-1.4429999589920044,-0.2750000059604644,-9.61400032043457,0.5350000262260437
1622109315965,-7.559999942779541,-1.784000039100647,-1.1679999828338623,-0.2750000059604644,-9.61400032043457,0.5350000262260437
1622109315975,-7.349999904632568,-1.6549999713897705,-1.5,-0.3140000104904174,-9.576000213623049,0.5419999957084655
1622109315985,-7.139999866485596,-1.7929999828338623,-1.52400004863739,-0.2750000059604644,-9.576000213623049,0.5419999957084655
1622109315995,-6.789999961853027,-1.6909999847412107,-1.2929999828338623,-0.2750000059604644,-9.576000213623049,0.5419999957084655
1622109316005,-6.090000152587891,-1.4279999732971191,-1.1759999990463257,-0.3140000104904174,-9.61400032043457,0.5350000262260437
1622109316015,-5.880000114440918,-1.5900000333786013,-1.062000036239624,-0.3140000104904174,-9.576000213623049,0.5419999957084655
1622109316025,-5.460000038146973,-1.569000005722046,-0.7739999890327453,-0.3140000104904174,-9.536999702453612,0.5490000247955322
1622109316035,-4.760000228881836,-1.444000005722046,-0.6809999942779541,-0.3529999852180481,-9.58199977874756,0.5809999704360961
1622109316045,-4.130000114440918,-1.4559999704360962,-0.6119999885559082,-0.3529999852180481,-9.576000213623049,0.5419999957084655
1622109316055,-3.990000009536743,-1.524999976158142,-0.6240000128746032,-0.4309999942779541,-9.576000213623049,0.5419999957084655
1622109316065,-3.6400001049041744,-1.5570000410079956,-0.8429999947547911,-0.4709999859333038,-9.569000244140623,0.5040000081062316
1622109316075,-3.2899999618530273,-1.718999981880188,-0.7300000190734863,-0.4309999942779541,-9.61400032043457,0.5350000262260437
1622109316085,-2.6600000858306885,-1.2730000019073486,-0.4379999935626983,-0.4309999942779541,-9.58899974822998,0.6190000176429749
1622109316095,-2.450000047683716,-1.087000012397766,-0.6890000104904174,-0.3919999897480011,-9.628000259399414,0.6129999756813049
1622109316105,-1.8200000524520872,-1.406999945640564,-0.8880000114440918,-0.3529999852180481,-9.595999717712402,0.6579999923706054
1622109316115,-1.3300000429153442,-1.2769999504089355,-1.2200000286102295,-0.3919999897480011,-9.595999717712402,0.6579999923706054
1622109316125,-1.190000057220459,-1.2609999179840088,-1.1105000972747805,-0.4309999942779541,-9.635000228881836,0.6510000228881835
1622109316135,-1.0499999523162842,-1.2450000047683716,-1.0010000467300415,-0.4309999942779541,-9.67300033569336,0.6439999938011169
1622109316145,-0.9800000190734864,-0.9290000200271606,-1.5850000381469729,-0.4309999942779541,-9.68000030517578,0.6830000281333923
1622109316155,-0.9800000190734864,-0.6729999780654907,-1.825000047683716,-0.4309999942779541,-9.687000274658203,0.722000002861023
1622109316165,-0.699999988079071,-0.6290000081062316,-1.6749999523162842,-0.4309999942779541,-9.654999732971191,0.7670000195503234
1622109316175,-0.699999988079071,-0.2349999994039535,-1.8899999856948853,-0.4709999859333038,-9.647999763488768,0.7279999852180481
1622109316185,-0.0700000002980232,0.2060000002384185,-2.380000114440918,-0.4709999859333038,-9.647999763488768,0.7279999852180481
1622109316195,0.4199999868869781,0.2549999952316284,-2.6559998989105225,-0.4309999942779541,-9.616000175476074,0.7739999890327453
1622109316205,1.3300000429153442,0.6480000019073486,-2.871000051498413,-0.3919999897480011,-9.616000175476074,0.7739999890327453
1622109316215,1.8200000524520872,0.4979999959468841,-2.825999975204468,-0.3529999852180481,-9.616000175476074,0.7739999890327453
1622109316225,2.309999942779541,0.968999981880188,-2.671999931335449,-0.3919999897480011,-9.661999702453612,0.8059999942779541
1622109316235,2.7300000190734863,0.9240000247955322,-2.822000026702881,-0.3919999897480011,-9.699999809265137,0.7990000247955322
1622109316245,2.7300000190734863,1.39900004863739,-3.0940001010894775,-0.3919999897480011,-9.699999809265137,0.7990000247955322
1622109316255,2.0999999046325684,1.5970000028610227,-3.4149999618530273,-0.4309999942779541,-9.732000350952148,0.7530000209808348
1622109316265,1.4700000286102295,1.7350000143051147,-3.390000104904175,-0.3919999897480011,-9.777999877929688,0.7850000262260437
1622109316275,0.5600000023841857,1.9739999771118164,-3.134999990463257,-0.4309999942779541,-9.847999572753906,0.7329999804496765
1622109316285,-0.4900000095367431,2.319000005722046,-3.0739998817443848,-0.4309999942779541,-9.880000114440918,0.6880000233650208
1622109316295,-1.5399999618530271,2.6480000019073486,-2.5190000534057617,-0.4709999859333038,-9.840999603271484,0.6940000057220459
1622109316305,-2.450000047683716,3.061000108718872,-2.446000099182129,-0.5099999904632568,-9.840999603271484,0.6940000057220459
1622109316315,-3.2200000286102295,3.5480000972747803,-2.7860000133514404,-0.5099999904632568,-9.835000038146973,0.656000018119812
1622109316325,-3.7100000381469727,3.70199990272522,-2.0480000972747803,-0.4309999942779541,-9.788999557495115,0.6240000128746032
1622109316335,-3.7799999713897705,3.6289999485015874,-1.6349999904632568,-0.3919999897480011,-9.718999862670898,0.6759999990463256
1622109316345,-3.6400001049041744,3.775000095367432,-1.2539999485015867,-0.4309999942779541,-9.666000366210936,0.606000006198883
1622109316355,-3.570000171661377,3.7039999961853023,-1.0529999732971191,-0.4709999859333038,-9.621000289916992,0.5740000009536743
1622109316365,-3.5,3.6329998970031734,-0.8519999980926513,-0.4709999859333038,-9.58899974822998,0.6190000176429749
1622109316375,-3.0799999237060547,4.066999912261963,-0.4909999966621398,-0.5099999904632568,-9.550999641418455,0.6259999871253967
1622109316385,-2.7300000190734863,4.1479997634887695,-0.5479999780654907,-0.5490000247955322,-9.543999671936035,0.5879999995231628
1622109316395,-2.309999942779541,4.1519999504089355,-0.9739999771118164,-0.5490000247955322,-9.61400032043457,0.5350000262260437
1622109316405,-2.0999999046325684,4.026000022888184,-1.0670000314712524,-0.5490000247955322,-9.645999908447264,0.4900000095367431
1622109316415,-1.8200000524520872,3.888999938964844,-1.090999960899353,-0.5490000247955322,-9.645999908447264,0.4900000095367431
1622109316425,-1.5399999618530271,4.063000202178955,-1.27400004863739,-0.5879999995231628,-9.61400032043457,0.5350000262260437
1622109316435,-1.4700000286102295,3.937000036239624,-1.3669999837875366,-0.5879999995231628,-9.61400032043457,0.5350000262260437
1622109316445,-1.4700000286102295,3.811000108718872,-1.4600000381469729,-0.5879999995231628,-9.607000350952148,0.4970000088214874
1622109316455,-1.1200000047683716,3.9530000686645503,-1.861999988555908,-0.6280000209808348,-9.536999702453612,0.5490000247955322
1622109316465,-0.699999988079071,3.506999969482422,-2.1540000438690186,-0.5879999995231628,-9.512000083923342,0.6330000162124633
1622109316475,0.0,3.4749999046325684,-2.372999906539917,-0.6280000209808348,-9.460000038146973,0.5630000233650208
1622109316485,0.5600000023841857,2.8949999809265137,-3.115000009536743,-0.5879999995231628,-9.498000144958496,0.5559999942779541
1622109316495,1.3300000429153442,2.427999973297119,-3.6940000057220455,-0.6280000209808348,-9.576000213623049,0.5419999957084655
1622109316505,2.0299999713897705,2.822000026702881,-3.9089999198913574,-0.6280000209808348,-9.607000350952148,0.4970000088214874
1622109316515,2.380000114440918,2.7809998989105225,-4.485000133514404,-0.6280000209808348,-9.607000350952148,0.4970000088214874
1622109316525,2.309999942779541,2.4570000171661377,-5.466000080108643,-0.6669999957084655,-9.645999908447264,0.4900000095367431
1622109316535,2.450000047683716,2.2980000972747803,-5.7789998054504395,-0.6280000209808348,-9.652999877929688,0.5289999842643737
1622109316545,2.6600000858306885,2.322999954223633,-5.916999816894531,-0.6280000209808348,-9.61400032043457,0.5350000262260437
1622109316555,2.7300000190734863,2.4609999656677246,-5.892000198364258,-0.6280000209808348,-9.621000289916992,0.5740000009536743
1622109316565,3.0799999237060547,2.3959999084472656,-6.329999923706055,-0.6280000209808348,-9.666000366210936,0.606000006198883
1622109316575,3.184999942779541,2.2294998168945312,-6.394999980926514,-0.6280000209808348,-9.621000289916992,0.5740000009536743
1622109316585,3.2899999618530273,2.062999963760376,-6.460000038146973,-0.6669999957084655,-9.576000213623049,0.5419999957084655
1622109316595,4.130000114440918,2.5329999923706055,-7.513999938964843,-0.6669999957084655,-9.595999717712402,0.6579999923706054
1622109316605,4.340000152587891,2.7890000343322754,-7.754000186920166,-0.6669999957084655,-9.621000289916992,0.5740000009536743
1622109316615,4.690000057220459,2.950999975204468,-7.867000102996825,-0.7850000262260437,-9.576000213623049,0.5419999957084655
1622109316625,5.039999961853027,2.938999891281128,-7.797999858856201,-0.7059999704360961,-9.550999641418455,0.6259999871253967
1622109316635,5.389999866485596,3.5390000343322754,-7.9770002365112305,-0.6280000209808348,-9.58199977874756,0.5809999704360961
1622109316645,5.809999942779541,3.7049999237060542,-8.515999794006348,-0.6280000209808348,-9.621000289916992,0.5740000009536743
1622109316655,5.949999809265137,3.9809999465942383,-8.467000007629395,-0.6669999957084655,-9.61400032043457,0.5350000262260437
1622109316665,6.510000228881836,4.504000186920166,-7.806000232696533,-0.6669999957084655,-9.652999877929688,0.5289999842643737
1622109316675,6.300000190734863,4.431000232696533,-7.39300012588501,-0.6280000209808348,-9.652999877929688,0.5289999842643737
1622109316685,6.369999885559082,5.3520002365112305,-7.373000144958496,-0.6669999957084655,-9.569000244140623,0.5040000081062316
1622109316695,6.71999979019165,5.006999969482422,-7.433000087738037,-0.6669999957084655,-9.576000213623049,0.5419999957084655
1622109316705,7.070000171661377,5.638999938964844,-7.39300012588501,-0.6280000209808348,-9.645999908447264,0.4900000095367431
1622109316715,7.349999904632568,6.239999771118164,-7.572000026702882,-0.6280000209808348,-9.607000350952148,0.4970000088214874
1622109316725,7.349999904632568,6.6529998779296875,-7.499000072479248,-0.6280000209808348,-9.569000244140623,0.5040000081062316
1622109316735,7.349999904632568,6.6529998779296875,-7.499000072479248,-0.5879999995231628,-9.529999732971191,0.5099999904632568
1622109316745,7.420000076293945,6.599999904632568,-8.005000114440918,-0.5099999904632568,-9.576000213623049,0.5419999957084655
1622109316755,7.8400001525878915,5.919000148773193,-7.769999980926514,-0.4709999859333038,-9.569000244140623,0.5040000081062316
1622109316765,7.769999980926514,5.019000053405762,-7.501999855041504,-0.4309999942779541,-9.569000244140623,0.5040000081062316
1622109316775,7.9099998474121085,4.48799991607666,-7.311999797821045,-0.3529999852180481,-9.576000213623049,0.5419999957084655
1622109316785,8.190000534057617,4.14300012588501,-7.372499942779541,-0.3919999897480011,-9.529999732971191,0.5099999904632568
1622109316795,8.470000267028809,3.79800009727478,-7.433000087738037,-0.4309999942779541,-9.529999732971191,0.5099999904632568
1622109316805,8.960000038146973,3.190000057220459,-7.611999988555909,-0.4309999942779541,-9.576000213623049,0.5419999957084655
1622109316815,9.449999809265137,1.9739999771118164,-7.967999935150147,-0.4709999859333038,-9.576000213623049,0.5419999957084655
1622109316825,10.149999618530272,1.8279999494552612,-8.348999977111816,-0.4709999859333038,-9.498000144958496,0.5559999942779541
1622109316835,10.779999732971191,1.52400004863739,-7.834000110626221,-0.4709999859333038,-9.491000175476074,0.5170000195503234
1622109316845,11.199999809265137,1.1950000524520874,-8.390000343322754,-0.4709999859333038,-9.498000144958496,0.5559999942779541
1622109316855,11.619999885559082,0.9229999780654908,-8.86400032043457,-0.5099999904632568,-9.536999702453612,0.5490000247955322
1622109316865,11.899999618530272,0.7409999966621398,-9.038999557495115,-0.5099999904632568,-9.58199977874756,0.5809999704360961
1622109316875,11.619999885559082,0.481000006198883,-9.58199977874756,-0.5490000247955322,-9.607000350952148,0.4970000088214874
1622109316885,11.550000190734863,0.2419999986886978,-9.836999893188477,-0.5879999995231628,-9.628000259399414,0.6129999756813049
1622109316895,11.550000190734863,0.4490000009536743,-9.800999641418455,-0.6280000209808348,-9.595999717712402,0.6579999923706054
1622109316905,11.479999542236328,0.7160000205039978,-10.109000205993652,-0.5879999995231628,-9.609999656677246,0.7350000143051147
1622109316915,11.270000457763672,1.0160000324249268,-10.197999954223633,-0.5879999995231628,-9.654999732971191,0.7670000195503234
1622109316925,11.0600004196167,1.5349999666213987,-10.31999969482422,-0.5490000247955322,-9.661999702453612,0.8059999942779541
1622109316935,11.550000190734863,1.8600000143051147,-10.546999931335447,-0.5099999904632568,-9.70699977874756,0.8379999995231628
1622109316945,11.199999809265137,2.5859999656677246,-10.633000373840332,-0.4709999859333038,-9.760000228881836,0.9079999923706054
1622109316955,10.5,2.8489999771118164,-10.515000343322754,-0.4709999859333038,-9.727999687194824,0.953000009059906
1622109316965,10.5,3.010999917984009,-10.628999710083008,-0.3919999897480011,-9.734999656677246,0.9919999837875366
1622109316975,10.43000030517578,2.8010001182556152,-10.23900032043457,-0.3140000104904174,-9.696000099182127,0.9990000128746032
1622109316985,10.43000030517578,2.4070000648498535,-10.02400016784668,-0.2750000059604644,-9.63199996948242,1.0900000333786013
1622109316995,10.43000030517578,1.9450000524520872,-9.821000099182127,-0.2349999994039535,-9.600000381469728,1.1349999904632568
1622109317005,10.534999847412108,1.5720000267028809,-9.922500610351562,-0.2750000059604644,-9.61400032043457,1.212000012397766
1622109317015,10.640000343322754,1.1990000009536743,-10.02400016784668,-0.2349999994039535,-9.628000259399414,1.2899999618530271
1622109317025,11.130000114440918,0.5540000200271606,-9.996000289916992,-0.2349999994039535,-9.609999656677246,1.4119999408721924
1622109317035,12.039999961853027,0.1729999929666519,-9.850000381469728,-0.2349999994039535,-9.654999732971191,1.444000005722046
1622109317045,12.390000343322754,-0.1959999948740005,-9.772999763488768,-0.2349999994039535,-9.70699977874756,1.5149999856948853
1622109317055,12.529999732971191,-0.703000009059906,-9.720000267028809,-0.2750000059604644,-9.791000366210936,1.5399999618530271
1622109317065,12.739999771118164,-0.5239999890327453,-9.119999885559082,-0.2349999994039535,-9.80500030517578,1.6169999837875366
1622109317075,12.460000038146973,-0.8119999766349792,-9.098999977111816,-0.2349999994039535,-9.850000381469728,1.64900004863739
1622109317085,11.409999847412108,-0.6660000085830688,-9.927000045776367,-0.1959999948740005,-9.928000450134276,1.6349999904632568
1622109317095,10.289999961853027,-0.703000009059906,-9.720000267028809,-0.1570000052452087,-9.895999908447264,1.680999994277954
1622109317105,8.75,-1.1890000104904177,-9.378999710083008,-0.1570000052452087,-9.940999984741213,1.712000012397766
1622109317115,7.420000076293945,-1.2949999570846558,-9.184000015258787,-0.1570000052452087,-9.902999877929688,1.718999981880188
1622109317125,6.579999923706055,-1.5829999446868896,-9.163999557495115,-0.1180000007152557,-9.871000289916992,1.7649999856948853
1622109317135,5.949999809265137,-1.6150000095367432,-9.383000373840332,-0.1180000007152557,-9.83899974822998,1.809999942779541
1622109317145,5.389999866485596,-1.6599999666213987,-9.532999992370604,-0.1180000007152557,-9.762000083923342,1.8240000009536743
1622109317155,5.179999828338623,-1.8830000162124632,-10.282999992370604,-0.0390000008046627,-9.704999923706056,1.9529999494552612
1622109317165,4.690000057220459,-1.468999981880188,-10.210000038146973,0.0,-9.697999954223633,1.9149999618530271
1622109317175,3.9200000762939458,-1.49399995803833,-10.071999549865724,0.0,-9.697999954223633,1.9149999618530271
1622109317185,3.7100000381469727,-1.6360000371932983,-9.67099952697754,0.0,-9.652999877929688,1.8830000162124632
1622109317195,3.7799999713897705,-2.2679998874664307,-8.503000259399414,0.0390000008046627,-9.58199977874756,1.934999942779541
1622109317205,3.7100000381469727,-1.7849999666213987,-7.210000038146973,0.0,-9.595999717712402,2.01200008392334
1622109317215,3.7799999713897705,-1.5169999599456787,-6.309000015258789,0.0780000016093254,-9.64099979400635,2.0439999103546143
1622109317225,3.569999933242798,-1.441999912261963,-6.331500053405762,0.1180000007152557,-9.64099979400635,2.0439999103546143
1622109317235,3.359999895095825,-1.3669999837875366,-6.354000091552734,0.1180000007152557,-9.68000030517578,2.0369999408721924
1622109317245,2.7300000190734863,-1.6269999742507937,-6.896999835968018,0.1959999948740005,-9.687000274658203,2.075999975204468
1622109317255,2.380000114440918,-2.061000108718872,-7.257999897003175,0.2349999994039535,-9.687000274658203,2.075999975204468
1622109317265,2.1700000762939453,-2.4700000286102295,-6.547999858856201,0.2750000059604644,-9.661999702453612,2.1600000858306885
1622109317275,1.6100000143051147,-2.984999895095825,-5.644000053405762,0.2750000059604644,-9.623000144958496,2.1670000553131104
1622109317285,1.3300000429153442,-3.1029999256134033,-5.38100004196167,0.3140000104904174,-9.630000114440918,2.2060000896453857
1622109317295,1.190000057220459,-3.739000082015991,-4.994999885559082,0.3140000104904174,-9.630000114440918,2.2060000896453857
1622109317305,1.2599999904632568,-4.125,-4.422999858856201,0.3140000104904174,-9.571000099182127,2.0959999561309814
1622109317315,1.399999976158142,-4.140999794006348,-3.928999900817871,0.2750000059604644,-9.583999633789062,2.174000024795532
1622109317325,1.4700000286102295,-3.9179999828338623,-3.178999900817871,0.2750000059604644,-9.590999603271484,2.211999893188477
1622109317335,1.6799999475479126,-3.7720000743865967,-2.796999931335449,0.2349999994039535,-9.637000083923342,2.24399995803833
1622109317345,1.8899999856948853,-3.946000099182129,-2.615000009536743,0.2349999994039535,-9.649999618530272,2.321000099182129
1622109317355,1.5399999618530271,-3.4189999103546143,-2.380000114440918,0.1959999948740005,-9.727999687194824,2.308000087738037
1622109317365,1.3300000429153442,-3.686000108718872,-2.072000026702881,0.1959999948740005,-9.727999687194824,2.308000087738037
1622109317375,0.6299999952316284,-3.690000057220459,-1.6460000276565552,0.1959999948740005,-9.76599979400635,2.3010001182556152
1622109317385,-0.209999993443489,-3.8320000171661377,-1.24399995803833,0.1959999948740005,-9.812000274658203,2.3329999446868896
1622109317395,-1.0499999523162842,-3.430999994277954,-1.1019999980926514,0.1180000007152557,-9.772999763488768,2.3399999141693115
1622109317405,-1.75,-3.2769999504089355,-1.5729999542236328,0.0780000016093254,-9.70300006866455,2.3919999599456787
1622109317415,-2.380000114440918,-2.7209999561309814,-1.9010000228881836,0.0780000016093254,-9.734000205993652,2.3459999561309814
1622109317425,-2.940000057220459,-2.075999975204468,-1.9299999475479128,0.0780000016093254,-9.696000099182127,2.3529999256134033
1622109317435,-3.2200000286102295,-1.840999960899353,-2.4570000171661377,0.0780000016093254,-9.649999618530272,2.321000099182129
1622109317445,-3.3600001335144043,-1.8429999351501465,-2.8485000133514404,0.1570000052452087,-9.663999557495115,2.3989999294281006
1622109317455,-3.5,-1.8450000286102295,-3.240000009536743,0.1959999948740005,-9.597999572753906,2.250999927520752
1622109317465,-3.849999904632568,-1.8170000314712524,-3.802999973297119,0.1570000052452087,-9.612000465393066,2.328000068664551
1622109317475,-3.7799999713897705,-1.7970000505447388,-3.515000104904175,0.1959999948740005,-9.565999984741213,2.2960000038146973
1622109317485,-4.059999942779541,-2.003999948501587,-3.552000045776367,0.1959999948740005,-9.527999877929688,2.302999973297119
1622109317495,-3.6400001049041744,-2.319999933242798,-2.9679999351501465,0.1959999948740005,-9.565999984741213,2.2960000038146973
1622109317505,-3.1500000953674316,-2.2869999408721924,-2.749000072479248,0.1959999948740005,-9.590999603271484,2.211999893188477
1622109317515,-3.2200000286102295,-1.991000056266785,-2.4119999408721924,0.1570000052452087,-9.623000144958496,2.1670000553131104
1622109317525,-3.990000009536743,-1.5169999599456787,-2.684000015258789,0.1180000007152557,-9.616000175476074,2.128000020980835
1622109317535,-4.480000019073486,-1.3550000190734863,-2.7980000972747803,0.1180000007152557,-9.564000129699709,2.058000087738037
1622109317545,-4.550000190734863,-1.034000039100647,-2.5989999771118164,0.1180000007152557,-9.557000160217283,2.0190000534057617
1622109317555,-4.199999809265137,-0.7540000081062316,-1.7680000066757202,0.1570000052452087,-9.550000190734863,1.9809999465942385
1622109317565,-4.269999980926514,-0.5189999938011169,-1.087000012397766,0.1570000052452087,-9.569000244140623,1.8580000400543213
1622109317575,-4.690000057220459,-0.6690000295639038,-1.0420000553131104,0.0780000016093254,-9.569000244140623,1.8580000400543213
1622109317585,-5.179999828338623,-0.3289999961853027,-0.5550000071525573,0.0390000008046627,-9.562000274658203,1.819000005722046
1622109317594,-5.320000171661377,-0.0529999993741512,-0.5070000290870667,0.0780000016093254,-9.46399974822998,1.7170000076293943
1622109317605,-5.739999771118164,-0.0930000022053718,0.1260000020265579,0.0390000008046627,-9.470999717712402,1.75600004196167
1622109317615,-5.809999942779541,-0.2029999941587448,0.7459999918937683,0.0390000008046627,-9.508999824523924,1.7489999532699585
1622109317624,-6.440000057220459,-0.4620000123977661,1.4110000133514404,0.0,-9.54800033569336,1.7419999837875366
1622109317634,-6.71999979019165,0.0610000006854534,2.072000026702881,-0.0390000008046627,-9.54800033569336,1.7419999837875366
1622109317644,-7.070000171661377,-0.0040000001899898,1.633999943733215,-0.0390000008046627,-9.541000366210936,1.7029999494552612
1622109317654,-7.0,0.1135000064969062,1.3704999685287476,-0.0390000008046627,-9.54800033569336,1.7419999837875366
1622109317664,-6.929999828338623,0.231000006198883,1.1069999933242798,-0.0390000008046627,-9.51599979400635,1.7869999408721924
1622109317674,-6.71999979019165,0.1299999952316284,0.8759999871253967,-0.0780000016093254,-9.541000366210936,1.7029999494552612
1622109317684,-6.510000228881836,0.1990000009536743,0.8880000114440918,-0.0780000016093254,-9.625,1.7280000448226929
1622109317694,-6.369999885559082,0.324999988079071,0.981000006198883,-0.0780000016093254,-9.70300006866455,1.7150000333786013
1622109317704,-6.789999961853027,0.3689999878406524,1.13100004196167,-0.1180000007152557,-9.786999702453612,1.7400000095367432
1622109317714,-7.0,0.449999988079071,1.0750000476837158,-0.1959999948740005,-9.824999809265137,1.7330000400543213
1622109317724,-8.609999656677246,0.5109999775886535,0.7300000190734863,-0.1959999948740005,-9.824999809265137,1.7330000400543213
1622109317734,-9.59000015258789,0.7950000166893005,-0.0729999989271163,-0.1959999948740005,-9.812000274658203,1.656000018119812
1622109317744,-10.56999969482422,0.7300000190734863,-0.5109999775886535,-0.2349999994039535,-9.857000350952148,1.687000036239624
1622109317754,-11.340000152587892,1.187999963760376,-0.2879999876022338,-0.2750000059604644,-9.857000350952148,1.687000036239624
1622109317764,-11.970000267028809,1.4880000352859497,-0.3770000040531158,-0.3529999852180481,-9.779999732971191,1.7009999752044678
1622109317774,-11.970000267028809,1.975000023841858,-0.7179999947547911,-0.3140000104904174,-9.76599979400635,1.6239999532699585
1622109317784,-12.109999656677246,2.3440001010894775,-0.7950000166893005,-0.3140000104904174,-9.720999717712402,1.5920000076293943
1622109317794,-12.109999656677246,3.174999952316284,-1.0750000476837158,-0.2750000059604644,-9.71399974822998,1.5529999732971191
1622109317804,-12.109999656677246,3.6170001029968266,-1.5659999847412107,-0.3140000104904174,-9.623000144958496,1.4900000095367432
1622109317814,-12.25,4.074999809265137,-1.343000054359436,-0.2750000059604644,-9.57800006866455,1.4579999446868896
1622109317824,-12.109999656677246,4.485000133514404,-0.8439999818801879,-0.2750000059604644,-9.538999557495115,1.4650000333786013
1622109317834,-11.6899995803833,4.9629998207092285,-0.3330000042915344,-0.2349999994039535,-9.524999618530272,1.3869999647140503
1622109317844,-11.6899995803833,4.8420000076293945,0.356000006198883,-0.2349999994039535,-9.564000129699709,1.38100004196167
1622109317854,-11.409999847412108,4.748000144958496,0.4819999933242797,-0.2349999994039535,-9.479999542236328,1.3559999465942385
1622109317864,-11.164999961853027,4.614500045776367,0.6360000371932983,-0.2349999994039535,-9.4350004196167,1.3240000009536743
1622109317874,-10.920000076293944,4.480999946594238,0.7900000214576721,-0.2349999994039535,-9.388999938964846,1.2920000553131104
1622109317884,-10.43000030517578,4.131999969482422,1.1549999713897705,-0.2750000059604644,-9.336999893188477,1.2220000028610227
1622109317894,-9.9399995803833,3.438999891281128,1.4589999914169312,-0.2349999994039535,-9.26599979400635,1.27400004863739
1622109317904,-9.65999984741211,2.749000072479248,1.3380000591278076,-0.2750000059604644,-9.260000228881836,1.2350000143051147
1622109317914,-9.3100004196167,1.9670000076293943,1.3420000076293943,-0.2750000059604644,-9.343999862670898,1.2599999904632568
1622109317924,-9.449999809265137,1.6019999980926514,0.9929999709129332,-0.2750000059604644,-9.369000434875488,1.1759999990463257
1622109317934,-10.010000228881836,1.281000018119812,0.7950000166893005,-0.2750000059604644,-9.439000129699709,1.1239999532699585
1622109317944,-10.010000228881836,0.6570000052452087,-0.0970000028610229,-0.2750000059604644,-9.51599979400635,1.1100000143051147
1622109317954,-10.289999961853027,0.3770000040531158,-0.9290000200271606,-0.3140000104904174,-9.510000228881836,1.0720000267028809
1622109317964,-10.359999656677246,-0.1669999957084655,-1.8769999742507937,-0.3140000104904174,-9.46399974822998,1.0399999618530271
1622109317974,-10.5,-0.5189999938011169,-2.2950000762939453,-0.2750000059604644,-9.45699977874756,1.0010000467300415
1622109317984,-10.289999961853027,-1.2170000076293943,-2.7730000019073486,-0.3140000104904174,-9.418999671936035,1.0080000162124634
1622109317994,-9.239999771118164,-2.1459999084472656,-3.1500000953674316,-0.2750000059604644,-9.586999893188477,1.0579999685287476
1622109318004,-7.980000019073486,-2.49399995803833,-3.9939999580383305,-0.2349999994039535,-9.663999557495115,1.0440000295639038
1622109318014,-6.929999828338623,-3.013000011444092,-3.871999979019165,-0.1959999948740005,-9.727999687194824,0.953000009059906
1622109318024,-5.809999942779541,-3.861000061035156,-4.306000232696533,-0.1570000052452087,-9.76599979400635,0.9470000267028807
1622109318034,-4.96999979019165,-4.7820000648498535,-5.533999919891357,-0.0780000016093254,-9.76599979400635,0.9470000267028807
1622109318044,-4.619999885559082,-6.748000144958496,-6.875999927520752,-0.0390000008046627,-9.772999763488768,0.9850000143051147
1622109318054,-3.990000009536743,-8.46399974822998,-8.031999588012695,0.0,-9.696000099182127,0.9990000128746032
1622109318064,-3.6400001049041744,-10.078000068664553,-8.956000328063965,0.0,-9.649999618530272,0.9670000076293944
1622109318074,-3.255000114440918,-10.927499771118164,-9.177000045776367,0.0390000008046627,-9.612000465393066,0.9739999771118164
1622109318084,-2.869999885559082,-11.777000427246094,-9.397999763488768,0.0,-9.612000465393066,0.9739999771118164
1622109318094,-1.8200000524520872,-13.199999809265137,-9.791000366210936,0.0,-9.527999877929688,0.9490000009536744
1622109318104,-1.2599999904632568,-14.291000366210938,-10.053999900817873,-0.0390000008046627,-9.5600004196167,0.902999997138977
1622109318114,-0.7699999809265136,-15.4350004196167,-10.824999809265137,-0.0780000016093254,-9.482000350952148,0.9169999957084656
1622109318124,-0.209999993443489,-16.201000213623047,-11.3149995803833,-0.1570000052452087,-9.520999908447264,0.9100000262260436
1622109318134,0.1400000005960464,-16.481000900268555,-10.937999725341797,-0.1959999948740005,-9.482000350952148,0.9169999957084656
1622109318144,0.699999988079071,-16.60300064086914,-10.24899959564209,-0.2349999994039535,-9.39099979400635,0.8529999852180481
1622109318154,1.6100000143051147,-16.319000244140625,-9.843000411987305,-0.3140000104904174,-9.385000228881836,0.8149999976158142
1622109318164,2.7300000190734863,-15.572999954223633,-9.64099979400635,-0.3919999897480011,-9.404999732971191,0.930999994277954
1622109318174,3.849999904632568,-14.416999816894531,-8.939000129699707,-0.4309999942779541,-9.397999763488768,0.8920000195503234
1622109318184,4.96999979019165,-12.357000350952148,-8.930999755859375,-0.4309999942779541,-9.444000244140623,0.9240000247955322
1622109318194,6.090000152587891,-10.880999565124512,-9.239999771118164,-0.4709999859333038,-9.48900032043457,0.955999970436096
1622109318204,7.0,-9.10099983215332,-8.854999542236328,-0.4709999859333038,-9.496000289916992,0.9940000176429749
1622109318214,7.489999771118165,-6.71999979019165,-8.64799976348877,-0.5099999904632568,-9.46399974822998,1.0399999618530271
1622109318224,7.8400001525878915,-4.802000045776367,-8.23900032043457,-0.5099999904632568,-9.387000083923342,1.0529999732971191
1622109318234,9.029999732971191,-3.3340001106262207,-7.69600009918213,-0.4709999859333038,-9.347999572753906,1.059999942779541
1622109318244,10.289999961853027,-1.25,-6.618000030517578,-0.4709999859333038,-9.354999542236328,1.0989999771118164
1622109318254,11.270000457763672,0.4169999957084655,-6.394999980926514,-0.4309999942779541,-9.439000129699709,1.1239999532699585
1622109318264,12.039999961853027,1.843999981880188,-6.427000045776367,-0.4309999942779541,-9.45300006866455,1.2009999752044678
1622109318274,12.8100004196167,3.1700000762939453,-6.690999984741211,-0.4309999942779541,-9.543999671936035,1.2649999856948853
1622109318284,13.090000152587892,3.8329999446868896,-6.822999954223633,-0.4309999942779541,-9.543999671936035,1.2649999856948853
1622109318294,13.369999885559082,4.495999813079834,-6.954999923706055,-0.4309999942779541,-9.524999618530272,1.3869999647140503
1622109318304,13.859999656677246,6.248000144958496,-7.2150001525878915,-0.3919999897480011,-9.472999572753906,1.3170000314712524
1622109318314,14.140000343322754,7.472000122070312,-7.710000038146973,-0.3919999897480011,-9.479999542236328,1.3559999465942385
1622109318324,14.979999542236328,8.95199966430664,-8.444000244140625,-0.3140000104904174,-9.524999618530272,1.3869999647140503
1622109318334,15.539999961853027,10.027000427246094,-8.894000053405762,-0.2750000059604644,-9.564000129699709,1.38100004196167
1622109318344,15.329999923706056,10.720000267028809,-9.197999954223633,-0.1959999948740005,-9.571000099182127,1.4190000295639038
1622109318354,14.840000152587892,11.11299991607666,-9.413000106811523,-0.1570000052452087,-9.585000038146973,1.496999979019165
1622109318364,15.050000190734863,11.203000068664553,-10.321999549865724,-0.1180000007152557,-9.585000038146973,1.496999979019165
1622109318374,14.979999542236328,11.08899974822998,-10.484000205993652,-0.1180000007152557,-9.590999603271484,1.5349999666213987
1622109318384,15.050000190734863,11.446000099182127,-10.491999626159668,-0.1180000007152557,-9.64400005340576,1.6059999465942385
1622109318394,15.050000190734863,11.72599983215332,-10.869000434875488,-0.1180000007152557,-9.619000434875488,1.690000057220459
1622109318404,14.909999847412108,11.859000205993652,-10.418999671936035,-0.0780000016093254,-9.625,1.7280000448226929
1622109318414,14.350000381469728,12.090999603271484,-10.520000457763672,-0.0780000016093254,-9.593999862670898,1.77400004863739
1622109318424,13.789999961853027,12.354000091552734,-10.402999877929688,-0.0780000016093254,-9.625,1.7280000448226929
1622109318434,13.229999542236328,13.265999794006348,-10.73900032043457,-0.1180000007152557,-9.659000396728516,1.9210000038146973
1622109318444,12.600000381469728,14.0649995803833,-11.23799991607666,-0.0780000016093254,-9.737000465393066,1.9079999923706057
1622109318454,11.899999618530272,14.758999824523926,-11.54300022125244,-0.0390000008046627,-9.781999588012695,1.940000057220459
1622109318464,10.779999732971191,15.45199966430664,-11.847000122070312,-0.0780000016093254,-9.788999557495115,1.9780000448226929
1622109318474,9.65999984741211,15.663000106811523,-11.027999877929688,-0.0390000008046627,-9.880000114440918,2.0420000553131104
1622109318484,9.065000534057615,16.10700035095215,-10.52299976348877,0.0,-9.96399974822998,2.066999912261963
1622109318494,8.470000267028809,16.551000595092773,-10.017999649047852,0.0,-9.96399974822998,2.066999912261963
1622109318504,6.929999828338623,17.219999313354492,-8.97599983215332,0.0390000008046627,-9.970999717712402,2.1059999465942383
1622109318514,5.880000114440918,17.565000534057617,-8.914999961853027,0.0780000016093254,-9.970999717712402,2.1059999465942383
1622109318524,4.409999847412109,17.7189998626709,-8.177000045776367,0.1180000007152557,-9.925000190734863,2.0739998817443848
1622109318534,3.0799999237060547,17.893999099731445,-7.151000022888184,0.0780000016093254,-9.880000114440918,2.0420000553131104
1622109318544,1.4700000286102295,18.04800033569336,-6.413000106811523,0.1180000007152557,-9.840999603271484,2.049000024795532
1622109318554,1.0499999523162842,18.040000915527344,-5.561999797821045,0.1570000052452087,-9.833999633789062,2.009999990463257
1622109318564,0.1400000005960464,17.10700035095215,-5.513000011444092,0.0780000016093254,-9.75,1.9850000143051147
1622109318574,-0.2800000011920929,16.709999084472656,-4.872000217437744,0.1180000007152557,-9.744000434875488,1.9459999799728391
1622109318584,-0.699999988079071,16.381999969482422,-4.218999862670898,0.1180000007152557,-9.638999938964846,1.805999994277954
1622109318594,-1.2599999904632568,15.480999946594238,-3.95199990272522,0.1959999948740005,-9.645999908447264,1.843999981880188
1622109318604,-1.3300000429153442,14.560999870300291,-3.9719998836517334,0.1959999948740005,-9.645999908447264,1.843999981880188
1622109318614,-1.2599999904632568,12.942999839782717,-4.46999979019165,0.2349999994039535,-9.600000381469728,1.812000036239624
1622109318624,-1.3300000429153442,11.616999626159668,-4.206999778747559,0.3140000104904174,-9.562000274658203,1.819000005722046
1622109318634,-0.8399999737739563,10.44499969482422,-3.2049999237060547,0.3140000104904174,-9.522999763488768,1.825999975204468
1622109318644,-1.190000057220459,9.15999984741211,-2.365000009536743,0.3140000104904174,-9.522999763488768,1.825999975204468
1622109318654,-1.5399999618530271,7.392000198364258,-1.6109999418258667,0.3140000104904174,-9.562000274658203,1.819000005722046
1622109318664,-2.0299999713897705,5.734000205993652,-1.4769999980926514,0.3529999852180481,-9.67099952697754,1.7599999904632568
1622109318674,-2.7300000190734863,3.924999952316284,-1.2979999780654907,0.3919999897480011,-9.755000114440918,1.7849999666213987
1622109318684,-3.0799999237060547,2.9720001220703125,-0.9329999685287476,0.3919999897480011,-9.741000175476074,1.7079999446868896
1622109318694,-3.430000066757202,2.0190000534057617,-0.5680000185966491,0.3919999897480011,-9.70300006866455,1.7150000333786013
1622109318704,-4.130000114440918,0.0410000011324882,0.5759999752044677,0.3529999852180481,-9.748000144958496,1.746999979019165
1622109318714,-5.179999828338623,-1.6460000276565552,1.2730000019073486,0.2750000059604644,-9.748000144958496,1.746999979019165
1622109318724,-5.809999942779541,-3.5969998836517334,1.8539999723434448,0.1959999948740005,-9.741000175476074,1.7079999446868896
1622109318734,-6.510000228881836,-5.408999919891357,2.4579999446868896,0.1180000007152557,-9.741000175476074,1.7079999446868896
