timestamp,gyro_x,gyro_y,gyro_z,acc_x,acc_y,acc_z
1622114439323,0.0,0.0,0.0,0.0,0.0,0.0
1622114439972,-4.829999923706055,59.25,-7.890999794006347,1.2940000295639038,-9.6850004196167,0.4830000102519989
1622114439982,-5.320000171661377,57.39300155639648,-8.645000457763672,1.3339999914169312,-9.793999671936035,0.4239999949932098
1622114439992,-5.949999809265137,55.6619987487793,-9.305999755859377,1.3339999914169312,-9.793999671936035,0.4239999949932098
1622114440002,-6.440000057220459,53.71900177001953,-9.57699966430664,1.3339999914169312,-9.779999732971191,0.3470000028610229
1622114440012,-6.929999828338623,51.95899963378906,-10.883000373840332,1.3339999914169312,-9.67099952697754,0.4059999883174896
1622114440022,-7.420000076293945,50.19900131225586,-12.187999725341797,1.3339999914169312,-9.586999893188477,0.3810000121593475
1622114440032,-7.980000019073486,48.297000885009766,-13.092000007629396,1.3730000257492063,-9.46399974822998,0.3630000054836273
1622114440042,-8.119999885559082,46.11199951171875,-11.984999656677246,1.3730000257492063,-9.347999572753906,0.3829999864101409
1622114440052,-8.260000228881836,43.82099914550781,-10.68299961090088,1.3730000257492063,-9.342000007629396,0.3440000116825103
1622114440062,-7.980000019073486,41.744998931884766,-10.196000099182127,1.4119999408721924,-9.347999572753906,0.3829999864101409
1622114440072,-7.559999942779541,40.38199996948242,-10.934000015258787,1.3730000257492063,-9.401000022888184,0.4539999961853027
1622114440082,-6.71999979019165,39.02799987792969,-12.52299976348877,1.4119999408721924,-9.362000465393066,0.4600000083446502
1622114440092,-5.320000171661377,38.25699996948242,-13.79599952697754,1.4119999408721924,-9.369000434875488,0.4990000128746032
1622114440102,-4.340000152587891,37.404998779296875,-13.803999900817873,1.4119999408721924,-9.45300006866455,0.5239999890327453
1622114440112,-3.7450001239776607,37.22699737548828,-13.799999237060549,1.2940000295639038,-9.522999763488768,0.4720000028610229
1622114440122,-3.1500000953674316,37.04899978637695,-13.79599952697754,1.2940000295639038,-9.477999687194824,0.4399999976158142
1622114440132,-2.0999999046325684,36.08300018310547,-13.965999603271484,1.2549999952316284,-9.362000465393066,0.4600000083446502
1622114440142,-1.190000057220459,35.499000549316406,-14.282999992370604,1.3339999914169312,-8.942000389099121,0.3350000083446502
1622114440152,-0.8399999737739563,34.99300003051758,-14.229999542236328,1.2940000295639038,-8.85099983215332,0.2720000147819519
1622114440162,-1.1200000047683716,34.5989990234375,-14.015000343322754,1.1380000114440918,-8.888999938964844,0.2649999856948852
1622114440172,-1.75,33.95500183105469,-13.986000061035156,1.0199999809265137,-9.08899974822998,0.2689999938011169
1622114440182,-2.380000114440918,33.54100036621094,-14.059000015258787,0.981000006198883,-9.288999557495115,0.2739999890327453
1622114440192,-2.5899999141693115,33.88600158691406,-13.998000144958496,0.8629999756813049,-9.404999732971191,0.2540000081062316
1622114440202,-2.7300000190734863,34.53900146484375,-13.670000076293944,0.8240000009536743,-9.47599983215332,0.2010000050067901
1622114440212,-2.5899999141693115,35.077999114990234,-13.503999710083008,0.8629999756813049,-9.585000038146973,0.1420000046491622
1622114440222,-2.5199999809265137,35.26100158691406,-12.121000289916992,0.9020000100135804,-9.73900032043457,0.1150000020861625
1622114440232,-2.240000009536743,35.005001068115234,-10.673999786376951,0.8629999756813049,-9.977999687194824,0.1129999980330467
1622114440242,-1.399999976158142,34.483001708984375,-7.709000110626221,0.8629999756813049,-10.210000038146973,0.0719999969005584
1622114440252,0.209999993443489,33.452999114990234,-5.901000022888184,0.8629999756813049,-10.402999877929688,0.0379999987781047
1622114440262,2.1700000762939453,31.72599983215332,-4.570000171661377,0.7850000262260437,-10.4350004196167,-0.0080000003799796
1622114440272,3.7100000381469727,30.229000091552734,-3.3410000801086426,0.7450000047683715,-10.505000114440918,-0.0599999986588954
1622114440282,4.409999847412109,28.643999099731445,-2.413000106811523,0.7450000047683715,-10.470999717712402,-0.2529999911785125
1622114440292,4.760000228881836,26.617000579833984,-2.2019999027252197,0.8629999756813049,-10.46399974822998,-0.2919999957084655
1622114440302,4.059999942779541,24.5,-2.2899999618530273,0.9020000100135804,-10.534999847412108,-0.3440000116825103
1622114440312,2.5199999809265137,22.464000701904297,-2.436000108718872,0.9020000100135804,-10.534999847412108,-0.3440000116825103
1622114440322,0.9800000190734864,20.50200080871582,-2.994999885559082,0.9020000100135804,-10.572999954223633,-0.3510000109672546
1622114440332,-0.9100000262260436,18.895999908447266,-4.770999908447266,0.8629999756813049,-10.48900032043457,-0.3759999871253967
1622114440342,-2.940000057220459,16.64900016784668,-6.943999767303467,0.8629999756813049,-10.321000099182127,-0.4259999990463256
1622114440352,-4.025000095367432,15.628999710083008,-7.4084997177124015,0.8240000009536743,-10.159999847412108,-0.4370000064373016
1622114440362,-5.110000133514404,14.609000205993652,-7.873000144958496,0.7850000262260437,-9.92099952697754,-0.4350000023841857
1622114440372,-7.420000076293945,11.887999534606934,-7.35699987411499,0.7850000262260437,-9.604999542236328,-0.4189999997615814
1622114440382,-9.449999809265137,9.70300006866455,-6.25,0.7850000262260437,-9.397999763488768,-0.4620000123977661
1622114440392,-11.130000114440918,7.204999923706055,-6.192999839782715,0.7850000262260437,-9.366999626159668,-0.4169999957084655
1622114440402,-11.899999618530272,5.242000102996826,-6.751999855041504,0.7059999704360961,-9.444000244140623,-0.4300000071525573
1622114440412,-12.25,3.437999963760376,-6.999000072479248,0.6280000209808348,-9.496000289916992,-0.3600000143051147
1622114440422,-11.6899995803833,1.9049999713897705,-6.771999835968018,0.5099999904632568,-9.5600004196167,-0.4510000050067901
1622114440432,-10.850000381469728,0.6679999828338623,-7.416999816894531,0.5099999904632568,-9.57800006866455,-0.5740000009536743
1622114440442,-10.220000267028809,-0.3260000050067901,-8.232000350952148,0.5099999904632568,-9.642000198364256,-0.6639999747276306
1622114440452,-10.149999618530272,-0.7590000033378601,-8.592000007629395,0.4709999859333038,-9.666999816894531,-0.7490000128746032
1622114440462,-10.289999961853027,-1.131999969482422,-8.09000015258789,0.3919999897480011,-9.75100040435791,-0.7239999771118164
1622114440472,-10.920000076293944,-1.399999976158142,-7.781000137329101,0.3529999852180481,-9.744000434875488,-0.762000024318695
1622114440482,-11.479999542236328,-1.7890000343322754,-7.992000102996825,0.3529999852180481,-9.697999954223633,-0.7940000295639038
1622114440492,-11.899999618530272,-2.4100000858306885,-8.10200023651123,0.3529999852180481,-9.697999954223633,-0.7940000295639038
1622114440502,-12.31999969482422,-2.928999900817871,-6.770999908447266,0.2750000059604644,-9.6850004196167,-0.8709999918937683
1622114440512,-12.31999969482422,-3.322000026702881,-5.3480000495910645,0.2750000059604644,-9.717000007629396,-0.9169999957084656
1622114440522,-12.670000076293944,-3.7960000038146977,-5.076000213623047,0.2750000059604644,-9.786999702453612,-0.968999981880188
1622114440532,-13.159999847412108,-3.986999988555908,-5.60699987411499,0.2349999994039535,-9.857999801635742,-1.0210000276565552
1622114440542,-13.859999656677246,-3.877000093460083,-6.228000164031982,0.2349999994039535,-9.9350004196167,-1.0349999666213987
1622114440552,-14.979999542236328,-3.5079998970031734,-6.304999828338623,0.2349999994039535,-10.005000114440918,-1.087000012397766
1622114440562,-16.65999984741211,-3.5160000324249268,-5.453000068664551,0.2349999994039535,-10.036999702453612,-1.131999969482422
1622114440572,-18.829999923706055,-3.180000066757202,-3.3329999446868896,0.1570000052452087,-10.017000198364258,-1.2480000257492063
1622114440582,-21.280000686645508,-2.697000026702881,-0.8309999704360961,0.1959999948740005,-9.907999992370604,-1.1890000104904177
1622114440592,-23.309999465942383,-2.8550000190734863,1.27400004863739,0.1959999948740005,-9.760000228881836,-1.1230000257492063
1622114440602,-23.76499938964844,-2.692500114440918,1.1605000495910645,0.2349999994039535,-9.68299961090088,-1.1100000143051147
1622114440612,-24.219999313354492,-2.5299999713897705,1.0470000505447388,0.3140000104904174,-9.657999992370604,-1.0260000228881836
1622114440622,-24.43000030517578,-1.991000056266785,0.0040000001899898,0.3919999897480011,-9.64400005340576,-1.1030000448226929
1622114440632,-24.5,-1.2000000476837158,-0.8510000109672546,0.3919999897480011,-9.64400005340576,-1.1030000448226929
1622114440642,-24.56999969482422,-0.4790000021457672,-1.718999981880188,0.5099999904632568,-9.675999641418455,-1.1480000019073486
1622114440652,-24.850000381469727,0.6119999885559082,-2.6640000343322754,0.5490000247955322,-9.708000183105469,-1.194000005722046
1622114440662,-25.34000015258789,1.6289999485015867,-4.4039998054504395,0.6669999957084655,-9.854999542236328,-1.2599999904632568
1622114440672,-26.31999969482422,2.7690000534057617,-5.625,0.7450000047683715,-10.12600040435791,-1.3070000410079956
1622114440682,-27.790000915527344,3.441999912261963,-5.007999897003174,0.8629999756813049,-10.395999908447266,-1.3550000190734863
1622114440692,-30.100000381469727,3.9409999847412114,-4.210000038146973,0.9409999847412108,-10.543999671936035,-1.4210000038146973
1622114440702,-33.11000061035156,4.349999904632568,-3.7109999656677246,1.0199999809265137,-10.428000450134276,-1.4010000228881836
1622114440712,-36.61000061035156,4.435999870300293,-4.192999839782715,1.1380000114440918,-10.079999923706056,-1.3389999866485596
1622114440722,-38.709999084472656,4.638000011444092,-6.1479997634887695,1.2940000295639038,-9.701000213623049,-1.2330000400543213
1622114440732,-39.130001068115234,5.4039998054504395,-8.074000358581543,1.3339999914169312,-9.335000038146973,-1.0490000247955322
1622114440742,-37.16999816894531,6.190999984741211,-9.713000297546388,1.4509999752044678,-9.232999801635742,-0.9509999752044676
1622114440752,-34.58000183105469,7.03000020980835,-10.843999862670898,1.5299999713897705,-9.362000465393066,-0.8939999938011169
1622114440762,-31.149999618530273,8.395999908447266,-11.739999771118164,1.6080000400543213,-9.638999938964846,-0.902999997138977
1622114440771,-27.86000061035156,10.220999717712402,-12.413999557495115,1.6080000400543213,-9.83899974822998,-0.8980000019073486
1622114440781,-25.690000534057617,11.928000450134276,-12.824000358581545,1.6480000019073486,-9.90999984741211,-0.9509999752044676
1622114440791,-24.56999969482422,13.833999633789064,-12.345000267028809,1.7649999856948853,-9.947999954223633,-0.9580000042915344
1622114440801,-23.729999542236328,14.897000312805176,-10.3100004196167,1.843999981880188,-9.994000434875488,-0.9259999990463256
1622114440811,-22.81999969482422,15.480999946594238,-6.368000030517578,1.8830000162124632,-9.92300033569336,-0.8730000257492065
1622114440821,-21.559999465942383,14.967000007629396,-1.8389999866485596,1.8040000200271609,-9.762000083923342,-0.8849999904632568
1622114440831,-19.8799991607666,13.685999870300291,2.200000047683716,1.7649999856948853,-9.58899974822998,-0.7350000143051147
1622114440841,-18.794998168945312,13.02549934387207,4.5355000495910645,1.72599995136261,-9.402999877929688,-0.662000000476837
1622114440851,-17.709999084472656,12.364999771118164,6.870999813079834,1.6080000400543213,-9.279999732971191,-0.6800000071525573
1622114440861,-15.539999961853027,10.982999801635742,11.887999534606934,1.491000056266785,-9.255000114440918,-0.5960000157356262
1622114440871,-13.159999847412108,9.64900016784668,16.628000259399414,1.2940000295639038,-9.26900005340576,-0.5189999938011169
1622114440881,-10.920000076293944,8.416999816894531,19.183000564575195,1.1770000457763672,-9.237000465393066,-0.4740000069141387
1622114440891,-8.890000343322754,7.472000122070312,19.301000595092773,1.0199999809265137,-9.237000465393066,-0.4740000069141387
1622114440901,-7.280000209808349,7.123000144958496,18.457000732421875,0.9409999847412108,-9.237000465393066,-0.4740000069141387
1622114440911,-5.880000114440918,7.8410000801086435,16.80699920654297,0.8629999756813049,-9.42300033569336,-0.5460000038146972
1622114440921,-5.599999904632568,8.541999816894531,14.442999839782717,0.7850000262260437,-9.57800006866455,-0.5740000009536743
1622114440931,-5.880000114440918,8.902000427246094,11.592000007629396,0.7059999704360961,-9.763999938964846,-0.6460000276565551
1622114440941,-5.739999771118164,9.607000350952148,7.593999862670899,0.6669999957084655,-9.918999671936035,-0.6740000247955322
1622114440951,-5.809999942779541,10.645000457763672,4.933000087738037,0.6669999957084655,-10.041999816894531,-0.6549999713897705
1622114440961,-6.440000057220459,11.213000297546388,4.535999774932861,0.6280000209808348,-10.151000022888184,-0.7139999866485595
1622114440971,-6.789999961853027,11.597999572753906,5.172999858856201,0.5879999995231628,-10.189000129699709,-0.7210000157356262
1622114440981,-7.210000038146973,11.902000427246094,5.866000175476074,0.5099999904632568,-10.151000022888184,-0.7139999866485595
1622114440991,-6.860000133514404,12.36400032043457,5.663000106811523,0.4309999942779541,-10.112000465393066,-0.7080000042915344
1622114441001,-5.739999771118164,13.527999877929688,5.513000011444092,0.4709999859333038,-10.053000450134276,-0.8169999718666076
1622114441011,-4.760000228881836,14.354999542236328,5.658999919891357,0.3919999897480011,-9.982000350952148,-0.7639999985694885
1622114441021,-4.269999980926514,15.284000396728516,4.827000141143799,0.3529999852180481,-9.97599983215332,-0.8029999732971191
1622114441031,-3.990000009536743,16.61400032043457,4.138000011444092,0.3919999897480011,-9.852999687194824,-0.8209999799728394
1622114441041,-4.130000114440918,17.777000427246094,2.7790000438690186,0.3919999897480011,-9.722999572753906,-0.8780000209808348
1622114441051,-4.550000190734863,18.986000061035156,1.5709999799728394,0.4309999942779541,-9.633000373840332,-0.9419999718666076
1622114441061,-4.725000381469727,19.608501434326172,1.4674999713897705,0.4709999859333038,-9.54800033569336,-0.9670000076293944
1622114441071,-4.900000095367432,20.231000900268555,1.3639999628067017,0.4709999859333038,-9.418999671936035,-1.02400004863739
1622114441081,-5.460000038146973,20.71299934387207,1.4490000009536743,0.4709999859333038,-9.335000038146973,-1.0490000247955322
1622114441091,-6.369999885559082,21.832000732421875,1.14900004863739,0.4709999859333038,-9.25100040435791,-1.0740000009536743
1622114441101,-7.210000038146973,22.3799991607666,1.6720000505447388,0.4309999942779541,-9.244000434875488,-1.1119999885559082
1622114441111,-7.630000114440918,22.8700008392334,2.114000082015991,0.3919999897480011,-9.15999984741211,-1.1369999647140503
1622114441121,-8.329999923706055,23.51499938964844,2.0850000381469727,0.4309999942779541,-9.036999702453612,-1.1549999713897705
1622114441131,-8.399999618530273,24.93400001525879,1.6959999799728394,0.4309999942779541,-9.069000244140623,-1.2009999752044678
1622114441141,-8.1899995803833,26.23200035095215,1.9950000047683716,0.3529999852180481,-9.10099983215332,-1.2460000514984133
1622114441151,-8.260000228881836,27.638999938964844,2.8829998970031734,0.3140000104904174,-9.10099983215332,-1.2460000514984133
1622114441161,-7.420000076293945,28.871999740600582,3.9539999961853023,0.3140000104904174,-9.107999801635742,-1.2079999446868896
1622114441171,-6.090000152587891,30.20599937438965,5.255000114440918,0.2750000059604644,-9.107999801635742,-1.2079999446868896
1622114441181,-3.990000009536743,31.666000366210938,6.650000095367432,0.2349999994039535,-9.036999702453612,-1.1549999713897705
1622114441191,-1.2599999904632568,33.35300064086914,7.160999774932861,0.1959999948740005,-9.005000114440918,-1.1100000143051147
1622114441201,1.4700000286102295,34.763999938964844,6.414000034332275,0.1570000052452087,-8.973999977111816,-1.0640000104904177
1622114441211,4.690000057220459,36.92100143432618,4.6620001792907715,0.1570000052452087,-9.012000083923342,-1.0709999799728394
1622114441221,7.420000076293945,39.61000061035156,2.7190001010894775,0.1180000007152557,-9.166999816894531,-1.0989999771118164
1622114441231,10.079999923706056,42.229000091552734,0.7649999856948853,0.1570000052452087,-9.25100040435791,-1.0740000009536743
1622114441241,12.600000381469728,44.77899932861328,-1.2020000219345093,0.1570000052452087,-9.342000007629396,-1.0099999904632568
1622114441251,14.979999542236328,47.077999114990234,-3.3559999465942383,0.1959999948740005,-9.387000083923342,-0.977999985218048
1622114441261,17.5,49.79499816894531,-4.6539998054504395,0.1959999948740005,-9.446000099182127,-0.8690000176429749
1622114441271,18.795000076293945,51.29899978637695,-4.921999931335449,0.1959999948740005,-9.536999702453612,-0.8050000071525573
1622114441281,20.09000015258789,52.803001403808594,-5.190000057220459,0.1180000007152557,-9.595999717712402,-0.6959999799728394
1622114441291,22.469999313354492,56.15299987792969,-6.447000026702881,0.0780000016093254,-9.642000198364256,-0.6639999747276306
1622114441301,25.200000762939453,59.790000915527344,-8.932999610900879,0.0780000016093254,-9.78499984741211,-0.5299999713897705
1622114441311,27.719999313354492,63.507999420166016,-11.47599983215332,0.1180000007152557,-9.960000038146973,-0.44200000166893
1622114441321,29.399999618530273,68.19100189208984,-13.848999977111816,0.1570000052452087,-10.128000259399414,-0.3919999897480011
1622114441331,30.520000457763672,73.22699737548828,-15.803999900817873,0.1959999948740005,-10.17300033569336,-0.3600000143051147
1622114441341,30.799999237060547,77.61799621582033,-16.523000717163086,0.2750000059604644,-10.187000274658203,-0.2829999923706054
1622114441351,30.940000534057617,81.44599914550781,-16.06100082397461,0.3140000104904174,-10.161999702453612,-0.1990000009536743
1622114441361,31.219999313354492,84.94599914550781,-14.946000099182127,0.4309999942779541,-10.182000160217283,-0.0829999968409538
1622114441371,31.63999938964844,88.39299774169922,-13.130000114440918,0.3919999897480011,-10.17099952697754,0.0790000036358833
1622114441381,32.34000015258789,90.56300354003906,-11.326000213623049,0.3529999852180481,-10.1850004196167,0.1560000032186508
1622114441391,33.18000030517578,92.35099792480467,-10.583999633789064,0.3140000104904174,-10.11400032043457,0.2080000042915344
1622114441401,33.11000061035156,94.51200103759764,-9.137000083923342,0.3529999852180481,-10.107000350952148,0.1700000017881393
1622114441411,31.920000076293945,96.95800018310548,-8.491999626159668,0.3140000104904174,-10.222999572753906,0.1490000039339065
1622114441421,29.75,99.3740005493164,-9.701000213623049,0.3919999897480011,-10.390999794006348,0.1990000009536743
1622114441431,26.8799991607666,101.93199920654295,-13.727999687194824,0.3140000104904174,-10.538999557495115,0.1330000013113021
1622114441441,23.940000534057617,104.69300079345705,-19.709999084472656,0.3529999852180481,-10.54599952697754,0.1720000058412551
1622114441451,20.790000915527344,107.03199768066406,-24.913000106811523,0.4709999859333038,-10.43000030517578,0.19200000166893
1622114441461,18.1299991607666,108.58100128173828,-28.051000595092773,0.6280000209808348,-10.244000434875488,0.2649999856948852
1622114441471,15.539999961853027,109.23300170898438,-28.930999755859375,0.8240000009536743,-10.08199977874756,0.2540000081062316
1622114441481,13.789999961853027,108.68800354003906,-28.458499908447266,1.0980000495910645,-9.960000038146973,0.2349999994039535
1622114441491,12.039999961853027,108.14299774169922,-27.986000061035156,1.3730000257492063,-9.932000160217283,0.0810000002384185
1622114441501,8.050000190734863,106.63400268554688,-26.68899917602539,1.6080000400543213,-9.918999671936035,0.0040000001899898
1622114441511,3.9200000762939458,104.58699798583984,-26.76499938964844,1.843999981880188,-9.982000350952148,-0.0869999974966049
1622114441521,-0.4900000095367431,102.23400115966795,-28.743999481201172,2.0399999618530273,-10.020999908447266,-0.0939999967813491
1622114441531,-3.7100000381469727,99.30599975585936,-31.88999938964844,2.1570000648498535,-10.020999908447266,-0.0939999967813491
1622114441541,-6.159999847412109,95.76200103759764,-34.362998962402344,2.197000026702881,-9.92300033569336,-0.1959999948740005
1622114441551,-8.050000190734863,90.78700256347656,-33.96099853515625,2.2750000953674316,-9.885000228881836,-0.1889999955892562
1622114441561,-9.59000015258789,86.12000274658203,-30.875,2.2750000953674316,-9.82800006866455,-0.0599999986588954
1622114441571,-10.079999923706056,81.27100372314453,-25.54599952697754,2.1570000648498535,-9.678000450134276,-0.2329999953508377
1622114441581,-11.0600004196167,76.62799835205078,-20.18000030517578,2.0399999618530273,-9.62600040435791,-0.3030000030994415
1622114441591,-11.340000152587892,72.75199890136719,-15.532999992370604,1.8830000162124632,-9.64400005340576,-0.4259999990463256
1622114441601,-11.619999885559082,69.39900207519531,-12.640999794006348,1.687000036239624,-9.682000160217283,-0.4329999983310699
1622114441611,-11.899999618530272,66.58999633789062,-10.008999824523926,1.5299999713897705,-9.753000259399414,-0.4850000143051147
1622114441621,-12.109999656677246,64.80999755859375,-7.9770002365112305,1.3339999914169312,-9.746000289916992,-0.5239999890327453
1622114441631,-11.899999618530272,62.97700119018555,-5.24399995803833,1.1770000457763672,-9.73900032043457,-0.5619999766349792
1622114441641,-11.899999618530272,61.43299865722656,-2.5309998989105225,1.0199999809265137,-9.701000213623049,-0.5550000071525573
1622114441651,-12.460000038146973,60.387001037597656,-0.2269999980926513,0.8629999756813049,-9.616999626159668,-0.5799999833106994
1622114441661,-12.529999732971191,59.617000579833984,2.125,0.7850000262260437,-9.623000144958496,-0.5419999957084655
1622114441671,-12.879999160766602,59.39400100708008,3.1875,0.7059999704360961,-9.661999702453612,-0.5490000247955322
1622114441681,-13.229999542236328,59.17100143432618,4.25,0.5490000247955322,-9.661999702453612,-0.5490000247955322
1622114441691,-13.649999618530272,58.696998596191406,5.730000019073486,0.5099999904632568,-9.701000213623049,-0.5550000071525573
1622114441701,-14.210000038146973,58.56700134277344,6.061999797821045,0.4309999942779541,-9.668999671936035,-0.5099999904632568
1622114441711,-14.909999847412108,58.867000579833984,5.9730000495910645,0.4309999942779541,-9.508000373840332,-0.5210000276565551
1622114441721,-16.309999465942383,58.834999084472656,5.754000186920166,0.4709999859333038,-9.397999763488768,-0.4620000123977661
1622114441731,-17.010000228881836,58.51399993896485,5.554999828338623,0.5490000247955322,-9.282999992370604,-0.44200000166893
1622114441741,-17.43000030517578,57.582000732421875,5.604000091552734,0.5490000247955322,-9.211999893188477,-0.3899999856948852
1622114441751,-17.43000030517578,56.832000732421875,5.827000141143799,0.5099999904632568,-9.218999862670898,-0.3510000109672546
1622114441761,-16.729999542236328,55.935001373291016,5.669000148773193,0.4309999942779541,-9.303000450134276,-0.3260000050067901
1622114441771,-15.960000038146973,55.71599960327149,5.702000141143799,0.3919999897480011,-9.347999572753906,-0.2939999997615814
1622114441781,-14.630000114440918,55.44499969482422,5.2270002365112305,0.3140000104904174,-9.387000083923342,-0.3009999990463256
1622114441791,-13.579999923706056,55.61100006103515,4.688000202178955,0.2349999994039535,-9.470999717712402,-0.2759999930858612
1622114441801,-11.6899995803833,55.529998779296875,4.744999885559082,0.2349999994039535,-9.55500030517578,-0.2509999871253967
1622114441811,-9.729999542236328,55.83399963378906,5.438000202178955,0.2750000059604644,-9.63199996948242,-0.2649999856948852
1622114441821,-7.559999942779541,55.797000885009766,5.644999980926514,0.2349999994039535,-9.737000465393066,-0.123999997973442
1622114441831,-4.409999847412109,55.821998596191406,5.506999969482422,0.2349999994039535,-9.704999923706056,-0.0780000016093254
1622114441841,-1.6799999475479126,55.4370002746582,6.078999996185303,0.2349999994039535,-9.718999862670898,-0.0010000000474974
1622114441851,0.4900000095367431,55.319000244140625,6.3420000076293945,0.1570000052452087,-9.687000274658203,0.0450000017881393
1622114441861,1.7150000333786013,55.58250045776367,6.460000038146973,0.1180000007152557,-9.73900032043457,0.1150000020861625
1622114441871,2.940000057220459,55.84600067138672,6.578000068664551,0.0390000008046627,-9.78499984741211,0.1469999998807907
1622114441881,4.96999979019165,56.895999908447266,5.057000160217285,0.0390000008046627,-9.862000465393066,0.1330000013113021
1622114441891,6.159999847412109,58.48500061035156,2.49399995803833,0.0390000008046627,-9.906999588012695,0.1650000065565109
1622114441901,6.440000057220459,60.26499938964844,0.4620000123977661,0.0390000008046627,-9.906999588012695,0.1650000065565109
1622114441911,6.230000019073486,61.4370002746582,-0.5400000214576721,0.0390000008046627,-9.991000175476074,0.1899999976158142
1622114441921,5.809999942779541,62.7140007019043,-0.527999997138977,0.0780000016093254,-10.029999732971191,0.1829999983310699
1622114441931,4.690000057220459,63.444000244140625,0.1700000017881393,0.1570000052452087,-10.178000450134276,0.1169999986886978
1622114441941,3.2899999618530273,64.23500061035156,0.5220000147819519,0.1959999948740005,-10.215999603271484,0.1099999994039535
1622114441951,1.4700000286102295,64.73400115966797,1.3209999799728394,0.3140000104904174,-10.17099952697754,0.0790000036358833
1622114441961,-0.7699999809265136,65.18000030517578,1.6130000352859497,0.4309999942779541,-10.12600040435791,0.0469999983906745
1622114441971,-2.380000114440918,66.17400360107422,1.218999981880188,0.5099999904632568,-9.970999717712402,0.0740000009536743
1622114441981,-3.1500000953674316,65.74800109863281,0.0070000002160668,0.5879999995231628,-9.815999984741213,0.101000003516674
1622114441991,-2.940000057220459,65.22000122070312,-1.4359999895095823,0.7059999704360961,-9.701000213623049,0.1220000013709068
1622114442001,-2.0299999713897705,63.77299880981445,-1.6920000314712524,0.8240000009536743,-9.553000450134276,0.1879999935626983
1622114442011,-0.8399999737739563,61.97200012207031,-1.156000018119812,0.9409999847412108,-9.43000030517578,0.1689999997615814
1622114442021,0.7699999809265136,59.11800003051758,0.1169999986886978,0.981000006198883,-9.42300033569336,0.1309999972581863
1622114442031,2.5199999809265137,56.09299850463867,1.1480000019073486,1.0199999809265137,-9.461999893188477,0.123999997973442
1622114442041,3.990000009536743,53.40800094604492,1.4559999704360962,1.0199999809265137,-9.487000465393066,0.0399999991059303
1622114442051,5.039999961853027,51.02000045776367,2.1010000705718994,0.981000006198883,-9.51900005340576,-0.0049999998882412
1622114442061,5.425000190734863,50.07350158691406,2.432000160217285,1.0199999809265137,-9.628000259399414,-0.0649999976158142
1622114442071,5.809999942779541,49.12699890136719,2.763000011444092,0.9409999847412108,-9.704999923706056,-0.0780000016093254
1622114442081,5.880000114440918,47.25699996948242,3.2860000133514404,0.9020000100135804,-9.781999588012695,-0.0920000001788139
1622114442091,6.019999980926514,45.395999908447266,4.165999889373779,0.8240000009536743,-9.781999588012695,-0.0920000001788139
1622114442101,6.090000152587891,44.46799850463867,4.998000144958496,0.7850000262260437,-9.781999588012695,-0.0920000001788139
1622114442111,6.019999980926514,43.304000854492195,6.355999946594238,0.7450000047683715,-9.814000129699709,-0.1369999945163726
1622114442121,6.369999885559082,42.729000091552734,7.605000019073486,0.8240000009536743,-9.904999732971191,-0.0740000009536743
1622114442131,5.809999942779541,41.91400146484375,8.598999977111816,0.7059999704360961,-9.97599983215332,-0.1260000020265579
1622114442141,4.900000095367432,41.005001068115234,9.718000411987305,0.6280000209808348,-9.968999862670898,-0.164000004529953
1622114442151,3.569999933242798,40.29600143432618,10.517000198364258,0.6280000209808348,-9.968999862670898,-0.164000004529953
1622114442161,2.1700000762939453,39.858001708984375,10.58199977874756,0.5879999995231628,-9.937000274658203,-0.1190000027418136
1622114442171,1.1200000047683716,39.71200180053711,10.201000213623049,0.5099999904632568,-9.859999656677246,-0.1049999967217445
1622114442181,0.0,39.82899856567382,8.729000091552734,0.4709999859333038,-9.859999656677246,-0.1049999967217445
1622114442191,-0.4199999868869781,40.48600006103515,6.215000152587891,0.4309999942779541,-9.75699996948242,-0.0080000003799796
1622114442201,-0.699999988079071,40.89500045776367,4.296999931335449,0.4309999942779541,-9.654999732971191,0.0900000035762786
1622114442211,-0.0700000002980232,41.2760009765625,2.941999912261963,0.4309999942779541,-9.538999557495115,0.1099999994039535
1622114442221,1.3300000429153442,41.617000579833984,2.2200000286102295,0.4709999859333038,-9.392000198364256,0.1759999990463256
1622114442231,2.0999999046325684,41.68600082397461,2.2330000400543213,0.3919999897480011,-9.19200038909912,0.1720000058412551
1622114442241,3.430000066757202,41.823001861572266,2.256999969482422,0.3919999897480011,-9.062000274658203,0.1150000020861625
1622114442251,4.480000019073486,41.9900016784668,2.9260001182556152,0.4309999942779541,-9.076000213623049,0.19200000166893
1622114442261,4.585000038146973,42.087501525878906,3.5829999446868896,0.5099999904632568,-9.17300033569336,0.2939999997615814
1622114442271,4.690000057220459,42.185001373291016,4.239999771118164,0.4709999859333038,-9.25100040435791,0.2809999883174896
1622114442281,4.900000095367432,41.84400177001953,4.961999893188477,0.4309999942779541,-9.321000099182127,0.2290000021457672
1622114442291,4.900000095367432,41.92100143432618,5.330999851226807,0.4309999942779541,-9.5600004196167,0.2259999960660934
1622114442301,4.619999885559082,41.573001861572266,5.696000099182129,0.3919999897480011,-9.597999572753906,0.2189999967813491
1622114442311,3.990000009536743,41.354000091552734,5.728000164031982,0.3919999897480011,-9.604999542236328,0.2579999864101409
1622114442321,3.5,40.99700164794922,5.736000061035156,0.3919999897480011,-9.5600004196167,0.2259999960660934
1622114442331,3.430000066757202,40.46200180053711,6.353000164031982,0.3919999897480011,-9.565999984741213,0.2649999856948852
1622114442341,3.1500000953674316,40.06399917602539,6.993000030517578,0.3919999897480011,-9.572999954223633,0.3039999902248382
1622114442351,2.869999885559082,38.9900016784668,7.443999767303467,0.3919999897480011,-9.572999954223633,0.3039999902248382
1622114442361,3.359999895095825,38.0369987487793,7.203999996185303,0.3140000104904174,-9.689000129699709,0.2829999923706054
1622114442371,4.269999980926514,36.88899993896485,6.860000133514404,0.3140000104904174,-9.80500030517578,0.2630000114440918
1622114442380,4.96999979019165,35.82699966430664,6.0329999923706055,0.3140000104904174,-9.960000038146973,0.2349999994039535
1622114442390,5.599999904632568,35.09700012207031,5.335999965667725,0.1959999948740005,-10.036999702453612,0.2220000028610229
1622114442400,6.159999847412109,34.111000061035156,4.876999855041504,0.1570000052452087,-10.08199977874756,0.2540000081062316
1622114442410,6.789999961853027,33.3489990234375,3.9609999656677246,0.1180000007152557,-10.057000160217283,0.3379999995231628
1622114442420,7.559999942779541,32.62699890136719,2.4119999408721924,0.1180000007152557,-10.01200008392334,0.3059999942779541
1622114442430,8.119999885559082,31.666000366210938,1.8159999847412107,0.0780000016093254,-10.121000289916992,0.2469999939203262
1622114442440,8.329999923706055,30.85099983215332,2.809999942779541,0.0780000016093254,-10.43000030517578,0.19200000166893
1622114442450,7.8400001525878915,30.461999893188477,3.8069999217987065,0.0390000008046627,-10.694000244140623,0.1059999987483024
1622114442460,6.789999961853027,29.999000549316406,4.010000228881836,-0.0390000008046627,-10.880000114440918,0.032999999821186
1622114442470,6.230000019073486,29.881500244140625,3.66950011253357,0.0,-10.866000175476074,-0.0439999997615814
1622114442480,5.670000076293945,29.763999938964844,3.3289999961853027,0.0390000008046627,-10.635000228881836,-0.003000000026077
1622114442490,4.340000152587891,29.565000534057617,2.440999984741211,0.1180000007152557,-10.241000175476074,0.0260000005364418
1622114442500,2.6600000858306885,29.57699966430664,2.371999979019165,0.2349999994039535,-9.732000350952148,0.0759999975562095
1622114442510,1.6100000143051147,29.83300018310547,2.1329998970031734,0.3140000104904174,-9.319000244140623,-0.0099999997764825
1622114442520,0.4900000095367431,30.32699966430664,0.9409999847412108,0.3919999897480011,-9.027999877929688,-0.0780000016093254
1622114442530,-0.5600000023841857,30.833999633789062,-0.3210000097751617,0.3529999852180481,-8.98900032043457,-0.0710000023245811
1622114442540,-1.5399999618530271,31.518999099731445,-0.9819999933242796,0.4309999942779541,-9.053000450134276,-0.1620000004768371
1622114442550,-2.7300000190734863,32.71500015258789,-2.121000051498413,0.4709999859333038,-9.04599952697754,-0.2010000050067901
1622114442560,-4.199999809265137,33.38800048828125,-3.9219999313354497,0.5099999904632568,-9.102999687194824,-0.3300000131130218
1622114442570,-5.320000171661377,33.854000091552734,-5.758999824523926,0.5099999904632568,-9.166999816894531,-0.4210000038146972
1622114442580,-6.440000057220459,33.874000549316406,-6.678999900817871,0.5490000247955322,-9.237000465393066,-0.4740000069141387
1622114442590,-7.420000076293945,33.82600021362305,-6.4029998779296875,0.6669999957084655,-9.378000259399414,-0.578000009059906
1622114442600,-7.769999980926514,33.055999755859375,-5.260000228881836,0.7850000262260437,-9.50100040435791,-0.5600000023841857
1622114442610,-8.119999885559082,31.551000595092773,-3.178999900817871,0.8629999756813049,-9.538999557495115,-0.5669999718666076
1622114442620,-8.1899995803833,30.257999420166016,-2.697000026702881,0.8240000009536743,-9.50100040435791,-0.5600000023841857
1622114442630,-8.119999885559082,28.805999755859375,-2.5260000228881836,0.7850000262260437,-9.371000289916992,-0.6169999837875366
1622114442640,-7.9099998474121085,26.437999725341797,-1.593000054359436,0.7850000262260437,-9.293999671936035,-0.6029999852180481
1622114442650,-7.9099998474121085,24.111000061035156,1.1239999532699585,0.8240000009536743,-9.241999626159668,-0.6740000247955322
1622114442660,-8.050000190734863,22.076000213623047,4.603000164031982,0.7450000047683715,-9.30500030517578,-0.7639999985694885
1622114442670,-8.1899995803833,19.48900032043457,6.7769999504089355,0.7059999704360961,-9.498000144958496,-0.7990000247955322
1622114442680,-8.050000190734863,17.433000564575195,7.552000045776368,0.5879999995231628,-9.652999877929688,-0.8259999752044677
1622114442690,-8.470000267028809,15.868000030517578,7.559999942779541,0.4709999859333038,-9.83899974822998,-0.8980000019073486
1622114442700,-8.575000762939453,15.294000625610352,6.783499717712402,0.3919999897480011,-10.026000022888184,-0.9710000157356262
1622114442710,-8.680000305175781,14.720000267028809,6.006999969482422,0.3529999852180481,-10.25100040435791,-1.0509999990463257
1622114442720,-9.029999732971191,13.836000442504885,4.572000026702881,0.3140000104904174,-10.328000068664553,-1.0640000104904177
1622114442730,-9.800000190734863,13.029000282287598,3.50600004196167,0.3919999897480011,-10.373000144958496,-1.031999945640564
1622114442740,-10.149999618530272,12.303000450134276,2.3829998970031734,0.4309999942779541,-10.496000289916992,-1.0140000581741333
1622114442750,-9.869999885559082,11.657999992370604,1.2029999494552612,0.4709999859333038,-10.638999938964844,-0.8799999952316284
1622114442760,-8.119999885559082,10.052000045776367,-0.5730000138282775,0.4309999942779541,-10.722999572753906,-0.8550000190734863
1622114442770,-5.320000171661377,8.753999710083008,-3.2899999618530273,0.3919999897480011,-10.737000465393066,-0.777999997138977
1622114442780,-1.6799999475479126,7.317999839782715,-6.031000137329102,0.3919999897480011,-10.64799976348877,-0.6029999852180481
1622114442790,2.7300000190734863,5.696000099182129,-8.520000457763672,0.3529999852180481,-10.385000228881836,-0.5170000195503234
1622114442800,7.070000171661377,4.5970001220703125,-10.348999977111816,0.3140000104904174,-10.128000259399414,-0.3919999897480011
1622114442810,10.779999732971191,3.7899999618530273,-11.414999961853027,0.2349999994039535,-9.85099983215332,-0.3829999864101409
1622114442820,13.579999923706056,3.6440000534057617,-11.79599952697754,0.1959999948740005,-9.779999732971191,-0.3300000131130218
1622114442830,15.119999885559082,3.88700008392334,-10.758000373840332,0.0780000016093254,-9.843999862670898,-0.4210000038146972
1622114442840,15.539999961853027,4.515999794006348,-9.083999633789062,0.0,-9.960000038146973,-0.44200000166893
1622114442850,14.770000457763672,5.006999969482422,-7.433000087738037,0.0,-10.08199977874756,-0.4239999949932098
1622114442860,12.739999771118164,6.263999938964844,-6.500999927520752,-0.0780000016093254,-10.166000366210938,-0.3989999890327453
1622114442870,10.920000076293944,7.192999839782715,-6.124000072479248,-0.2349999994039535,-10.026000022888184,-0.2939999997615814
1622114442880,9.170000076293944,8.388999938964844,-6.054999828338623,-0.1959999948740005,-9.878000259399414,-0.2280000001192092
1622114442890,7.559999942779541,9.37399959564209,-5.5970001220703125,-0.1959999948740005,-9.645999908447264,-0.1870000064373016
1622114442900,5.880000114440918,10.777000427246094,-5.492000102996826,-0.1959999948740005,-9.517000198364256,-0.2440000027418136
1622114442910,4.550000190734863,12.60200023651123,-6.164999961853027,-0.1959999948740005,-9.60099983215332,-0.2189999967813491
1622114442920,3.7100000381469727,13.44950008392334,-6.940000057220459,-0.1959999948740005,-9.717000007629396,-0.2399999946355819
1622114442930,2.869999885559082,14.296999931335447,-7.7150001525878915,-0.1570000052452087,-9.786999702453612,-0.2919999957084655
1622114442940,1.0499999523162842,16.170000076293945,-8.663999557495117,-0.1180000007152557,-9.857000350952148,-0.3440000116825103
1622114442950,-1.2599999904632568,18.17300033569336,-8.737000465393066,-0.0780000016093254,-9.902999877929688,-0.3120000064373016
1622114442960,-2.799999952316284,18.802000045776367,-7.061999797821045,0.0,-9.878000259399414,-0.2280000001192092
1622114442970,-4.130000114440918,19.3700008392334,-5.043000221252441,-0.0390000008046627,-9.76900005340576,-0.1689999997615814
1622114442980,-4.900000095367432,19.707000732421875,-2.921999931335449,-0.0390000008046627,-9.562000274658203,-0.2119999974966049
1622114442990,-5.179999828338623,20.940000534057617,-3.059999942779541,-0.0390000008046627,-9.607000350952148,-0.1800000071525573
1622114443000,-5.320000171661377,22.58099937438965,-6.324999809265137,-0.0390000008046627,-9.729999542236328,-0.1620000004768371
1622114443010,-5.320000171661377,24.183000564575195,-8.956999778747559,-0.0390000008046627,-9.807000160217283,-0.1759999990463256
1622114443020,-5.25,25.444000244140625,-9.657999992370604,0.0,-9.83899974822998,-0.221000000834465
1622114443030,-5.179999828338623,26.41699981689453,-7.922999858856201,0.0390000008046627,-9.845999717712402,-0.1829999983310699
1622114443040,-5.389999866485596,26.70599937438965,-4.317999839782715,0.0390000008046627,-9.76900005340576,-0.1689999997615814
1622114443050,-5.110000133514404,27.354999542236328,-1.1469999551773071,0.0390000008046627,-9.722999572753906,-0.2010000050067901
1622114443060,-4.690000057220459,27.8700008392334,1.5740000009536743,-0.0390000008046627,-9.807000160217283,-0.1759999990463256
1622114443070,-4.199999809265137,28.304000854492188,4.35099983215332,-0.0780000016093254,-9.845999717712402,-0.1829999983310699
1622114443080,-4.409999847412109,28.77899932861328,7.704999923706055,-0.0780000016093254,-9.878000259399414,-0.2280000001192092
1622114443090,-5.25,29.17300033569336,9.906000137329102,-0.0780000016093254,-9.90999984741211,-0.2739999890327453
1622114443100,-6.860000133514404,28.97100067138672,11.861000061035156,-0.1180000007152557,-9.895999908447264,-0.3510000109672546
1622114443110,-9.449999809265137,29.02300071716309,13.576000213623049,-0.1180000007152557,-9.9350004196167,-0.3580000102519989
1622114443120,-11.479999542236328,29.60700035095215,13.892000198364258,-0.1570000052452087,-9.9350004196167,-0.3580000102519989
1622114443130,-12.880000114440918,29.663999557495117,13.972999572753906,-0.1959999948740005,-9.94200038909912,-0.3190000057220459
1622114443140,-14.699999809265137,29.65999984741211,14.39900016784668,-0.1959999948740005,-9.888999938964846,-0.3889999985694885
1622114443150,-15.995000839233398,29.729000091552734,14.411499977111816,-0.1959999948740005,-9.79800033569336,-0.453000009059906
1622114443160,-17.290000915527344,29.79800033569336,14.423999786376951,-0.1959999948740005,-9.668999671936035,-0.5099999904632568
1622114443170,-19.18000030517578,29.194000244140625,15.027999877929688,-0.2349999994039535,-9.57800006866455,-0.5740000009536743
1622114443180,-20.719999313354492,28.517000198364254,14.836999893188477,-0.3140000104904174,-9.487000465393066,-0.637000024318695
1622114443190,-22.469999313354492,27.98500061035156,13.81999969482422,-0.3529999852180481,-9.44200038909912,-0.6690000295639038
1622114443200,-23.799999237060547,27.652999877929688,12.480999946594238,-0.3529999852180481,-9.472999572753906,-0.7139999866485595
1622114443210,-25.059999465942383,27.222999572753903,10.486000061035156,-0.3529999852180481,-9.498000144958496,-0.7990000247955322
1622114443220,-25.760000228881836,26.861000061035156,8.503999710083008,-0.3529999852180481,-9.517000198364256,-0.9210000038146972
1622114443230,-25.829999923706055,26.63400077819824,5.76200008392334,-0.3140000104904174,-9.48900032043457,-1.0759999752044678
1622114443240,-25.690000534057617,26.16699981689453,2.7660000324249268,-0.4309999942779541,-9.482999801635742,-1.1139999628067017
1622114443250,-25.059999465942383,25.54199981689453,-0.5429999828338623,-0.4709999859333038,-9.437000274658203,-1.1460000276565552
1622114443260,-23.8700008392334,25.420000076293945,-3.4790000915527344,-0.4309999942779541,-9.43000030517578,-1.184999942779541
1622114443270,-22.260000228881836,25.05900001525879,-6.670000076293945,-0.4309999942779541,-9.592000007629396,-1.1729999780654907
1622114443280,-20.86000061035156,24.531000137329105,-9.321999549865724,-0.3529999852180481,-9.687000274658203,-1.309999942779541
1622114443290,-19.459999084472656,23.910999298095703,-11.847999572753906,-0.3919999897480011,-9.723999977111816,-1.5549999475479126
1622114443300,-18.270000457763672,23.378999710083008,-15.281999588012695,-0.3140000104904174,-9.723999977111816,-1.5549999475479126
1622114443310,-17.010000228881836,23.034000396728516,-18.968000411987305,-0.2349999994039535,-9.6850004196167,-1.5479999780654907
1622114443320,-15.81999969482422,22.527000427246097,-21.332000732421875,-0.1180000007152557,-9.638999938964846,-1.5800000429153442
1622114443330,-14.699999809265137,21.507999420166016,-23.218000411987305,-0.0390000008046627,-9.67099952697754,-1.6260000467300415
1622114443340,-13.369999885559082,19.94700050354004,-24.843999862670895,0.0390000008046627,-9.779999732971191,-1.684999942779541
1622114443350,-12.18000030517578,18.25200080871582,-25.711000442504883,0.1180000007152557,-9.843999862670898,-1.7760000228881836
1622114443360,-11.0600004196167,16.34600067138672,-26.18899917602539,0.2349999994039535,-9.883000373840332,-1.781999945640564
1622114443370,-9.869999885559082,13.949999809265137,-25.900999069213867,0.3529999852180481,-9.760000228881836,-1.8009999990463257
1622114443380,-9.274999618530272,12.548999786376951,-25.614999771118164,0.4309999942779541,-9.612000465393066,-1.7350000143051147
1622114443390,-8.680000305175781,11.14799976348877,-25.32900047302246,0.4709999859333038,-9.37399959564209,-1.7319999933242798
1622114443400,-7.139999866485596,8.491999626159668,-24.375999450683594,0.5099999904632568,-9.25100040435791,-1.7510000467300415
1622114443410,-5.179999828338623,5.644999980926514,-23.95400047302246,0.5490000247955322,-9.468999862670898,-1.86899995803833
1622114443420,-3.6400001049041744,2.563999891281128,-21.79599952697754,0.5099999904632568,-9.829999923706056,-1.8530000448226929
1622114443430,-2.240000009536743,-1.0770000219345093,-17.676000595092773,0.4309999942779541,-10.076000213623049,-1.8159999847412107
1622114443440,-1.2599999904632568,-4.609000205993652,-15.383999824523926,0.3140000104904174,-10.062000274658203,-1.8940000534057615
1622114443450,-0.7699999809265136,-7.617000102996825,-14.847999572753906,0.2349999994039535,-9.482999801635742,-1.7920000553131104
1622114443460,-0.7699999809265136,-10.19200038909912,-15.159999847412108,0.1180000007152557,-9.043999671936035,-1.7940000295639038
1622114443470,-0.699999988079071,-12.032999992370604,-15.199999809265137,0.1180000007152557,-8.62600040435791,-1.6799999475479126
1622114443480,-0.4199999868869781,-13.942999839782717,-14.045000076293944,0.0390000008046627,-8.22599983215332,-1.6890000104904177
1622114443490,0.4900000095367431,-15.848999977111816,-12.105999946594238,0.0,-8.156000137329102,-1.6369999647140503
1622114443500,1.9600000381469729,-17.660999298095703,-9.085000038146973,-0.1570000052452087,-8.232999801635742,-1.6510000228881836
1622114443510,2.869999885559082,-19.107999801635746,-5.715000152587891,-0.2750000059604644,-8.362000465393066,-1.593999981880188
1622114443520,3.7100000381469727,-20.20599937438965,-2.7100000381469727,-0.3529999852180481,-8.555999755859375,-1.628000020980835
1622114443530,4.619999885559082,-20.61599922180176,-0.7919999957084655,-0.5490000247955322,-8.793999671936035,-1.6299999952316284
1622114443540,5.25,-21.52400016784668,0.3269999921321868,-0.6669999957084655,-9.085000038146973,-1.562000036239624
1622114443550,5.880000114440918,-22.180999755859375,1.6330000162124634,-0.7059999704360961,-9.298999786376951,-1.4800000190734863
1622114443560,7.349999904632568,-23.274999618530273,3.003999948501587,-0.9020000100135804,-9.298999786376951,-1.4800000190734863
1622114443570,8.539999961853027,-24.135000228881836,3.8469998836517334,-1.0199999809265137,-9.345999717712402,-1.2100000381469729
1622114443580,10.43000030517578,-24.843999862670895,3.437999963760376,-1.1380000114440918,-9.423999786376951,-1.2230000495910645
1622114443590,13.020000457763672,-25.715999603271484,1.9340000152587893,-1.1770000457763672,-9.47599983215332,-1.1529999971389773
1622114443600,15.399999618530272,-25.983999252319336,-0.1749999970197677,-1.3339999914169312,-9.496000289916992,-1.0369999408721924
1622114443610,16.69499969482422,-26.08599853515625,-1.6144999265670776,-1.4119999408721924,-9.60099983215332,-0.8960000276565551
1622114443620,17.989999771118164,-26.187999725341797,-3.053999900817871,-1.491000056266785,-9.76900005340576,-0.8460000157356262
1622114443630,20.86000061035156,-25.729999542236328,-6.455999851226807,-1.569000005722046,-9.944000244140623,-0.7580000162124633
1622114443640,23.170000076293945,-24.768999099731445,-10.694000244140623,-1.687000036239624,-10.112000465393066,-0.7080000042915344
1622114443650,24.850000381469727,-23.59000015258789,-14.96399974822998,-1.72599995136261,-10.234999656677246,-0.6890000104904174
1622114443660,26.38999938964844,-22.118000030517575,-18.47100067138672,-1.7649999856948853,-10.440999984741213,-0.6460000276565551
1622114443670,27.020000457763672,-20.416000366210938,-22.08099937438965,-1.72599995136261,-10.479999542236328,-0.652999997138977
1622114443680,27.299999237060547,-19.14699935913086,-24.84199905395508,-1.6480000019073486,-10.494000434875488,-0.5759999752044677
1622114443690,26.739999771118164,-17.67099952697754,-27.566999435424805,-1.569000005722046,-10.409999847412108,-0.6010000109672546
1622114443700,26.11000061035156,-16.23200035095215,-30.086000442504883,-1.569000005722046,-10.26200008392334,-0.5350000262260437
1622114443710,24.920000076293945,-14.946999549865724,-32.13399887084961,-1.4509999752044678,-10.1850004196167,-0.5210000276565551
1622114443720,23.450000762939453,-13.897000312805176,-33.65399932861328,-1.4119999408721924,-10.069000244140623,-0.5009999871253967
1622114443730,21.700000762939453,-12.920000076293944,-34.762001037597656,-1.2940000295639038,-10.029999732971191,-0.4939999878406524
1622114443740,19.739999771118164,-12.008000373840332,-35.097999572753906,-1.215999960899353,-10.02299976348877,-0.5329999923706054
1622114443750,17.56999969482422,-11.33899974822998,-35.26499938964844,-1.1380000114440918,-10.010000228881836,-0.6100000143051147
1622114443760,15.539999961853027,-10.0649995803833,-36.03499984741211,-1.0199999809265137,-9.970999717712402,-0.6029999852180481
1622114443770,13.300000190734863,-9.23799991607666,-37.097999572753906,-0.9409999847412108,-9.96399974822998,-0.6420000195503234
1622114443780,11.340000152587892,-8.694999694824219,-37.35699844360352,-0.8240000009536743,-9.89400005340576,-0.5889999866485595
1622114443790,9.449999809265137,-8.163999557495117,-36.34000015258789,-0.7059999704360961,-9.8100004196167,-0.6140000224113464
1622114443800,7.980000019073486,-7.742000102996825,-34.70199966430664,-0.5879999995231628,-9.68000030517578,-0.6710000038146972
1622114443810,6.789999961853027,-7.835000038146973,-32.159000396728516,-0.4709999859333038,-9.602999687194824,-0.6579999923706054
1622114443820,6.579999923706055,-7.627999782562256,-29.70599937438965,-0.3919999897480011,-9.550999641418455,-0.7279999852180481
1622114443830,6.230000019073486,-7.7729997634887695,-27.670000076293945,-0.3919999897480011,-9.628000259399414,-0.7419999837875366
1622114443840,6.159999847412109,-7.791500091552734,-26.962499618530273,-0.3529999852180481,-9.65999984741211,-0.787000000476837
1622114443850,6.090000152587891,-7.809999942779541,-26.2549991607666,-0.3140000104904174,-9.711999893188477,-0.7170000076293945
1622114443860,6.019999980926514,-7.4770002365112305,-24.91699981689453,-0.3140000104904174,-9.82800006866455,-0.7369999885559082
1622114443870,5.110000133514404,-7.269999980926514,-22.464000701904297,-0.3529999852180481,-9.866999626159668,-0.7440000176429749
1622114443880,3.569999933242798,-6.757999897003174,-20.524999618530273,-0.4309999942779541,-9.866999626159668,-0.7440000176429749
1622114443890,2.450000047683716,-6.255000114440918,-18.944000244140625,-0.3529999852180481,-9.873000144958496,-0.7049999833106994
1622114443900,1.8200000524520872,-5.688000202178955,-18.132999420166016,-0.3529999852180481,-9.911999702453612,-0.7120000123977661
1622114443910,0.5600000023841857,-5.440000057220459,-16.312000274658203,-0.3140000104904174,-9.918999671936035,-0.6740000247955322
1622114443920,-0.2800000011920929,-4.547999858856201,-14.520000457763672,-0.2750000059604644,-9.951000213623049,-0.7189999818801879
1622114443930,-1.0499999523162842,-3.878000020980835,-13.477999687194824,-0.2349999994039535,-9.880000114440918,-0.6669999957084655
1622114443940,-1.5399999618530271,-3.371999979019165,-13.531000137329102,-0.2349999994039535,-9.873000144958496,-0.7049999833106994
1622114443950,-1.399999976158142,-2.6500000953674316,-13.190999984741213,-0.1959999948740005,-9.842000007629396,-0.6600000262260437
1622114443960,-1.4700000286102295,-1.7940000295639038,-12.399999618530272,-0.1959999948740005,-9.847999572753906,-0.6209999918937683
1622114443970,-1.3300000429153442,-0.5210000276565551,-11.961999893188477,-0.1180000007152557,-9.777999877929688,-0.5690000057220459
1622114443980,-1.5399999618530271,0.1570000052452087,-11.772000312805176,-0.0780000016093254,-9.770999908447264,-0.6079999804496765
1622114443990,-1.3300000429153442,1.0889999866485596,-11.81999969482422,-0.0780000016093254,-9.744000434875488,-0.762000024318695
1622114443999,-1.8899999856948853,1.36899995803833,-10.98900032043457,0.0,-9.75100040435791,-0.7239999771118164
1622114444009,-2.309999942779541,1.8559999465942385,-10.121999740600586,0.0780000016093254,-9.68000030517578,-0.6710000038146972
1622114444019,-2.5199999809265137,2.055000066757202,-9.234000205993652,0.0780000016093254,-9.602999687194824,-0.6579999923706054
1622114444029,-2.240000009536743,2.5409998893737793,-7.1570000648498535,0.1180000007152557,-9.609999656677246,-0.6190000176429749
1622114444039,-1.8899999856948853,2.3959999084472656,-5.122000217437744,0.1570000052452087,-9.72599983215332,-0.6389999985694885
1622114444049,-1.6100000143051147,2.1570000648498535,-2.9600000381469727,0.1959999948740005,-9.951000213623049,-0.7189999818801879
1622114444059,-1.5750000476837158,1.7920000553131104,-2.100500106811523,0.1959999948740005,-10.498000144958496,-0.7760000228881835
1622114444069,-1.5399999618530271,1.4270000457763672,-1.241000056266785,0.2349999994039535,-10.98900032043457,-0.703000009059906
1622114444079,-3.1500000953674316,0.2919999957084655,0.762000024318695,0.2750000059604644,-11.041000366210938,-0.6320000290870667
1622114444089,-5.039999961853027,-0.4990000128746032,1.618000030517578,0.2750000059604644,-10.487000465393066,-0.6140000224113464
1622114444099,-6.440000057220459,-1.2649999856948853,1.1269999742507937,0.3140000104904174,-9.73900032043457,-0.5619999766349792
1622114444109,-6.230000019073486,-2.1610000133514404,0.968999981880188,0.3919999897480011,-9.1850004196167,-0.5440000295639038
1622114444119,-4.690000057220459,-1.9709999561309817,1.5010000467300415,0.3529999852180481,-8.836999893188477,-0.4830000102519989
1622114444129,-2.940000057220459,-2.184999942779541,2.315999984741211,0.2750000059604644,-8.753000259399414,-0.5080000162124633
1622114444139,-1.1200000047683716,-2.003000020980835,1.281999945640564,0.1959999948740005,-8.87600040435791,-0.4900000095367431
1622114444149,0.5600000023841857,-2.2869999408721924,0.8759999871253967,0.2349999994039535,-9.133000373840332,-0.615000009536743
1622114444159,1.190000057220459,-2.188999891281128,1.5329999923706057,0.1959999948740005,-9.248000144958496,-0.6349999904632568
1622114444169,1.5399999618530271,-1.7109999656677246,3.252000093460083,0.1959999948740005,-9.279999732971191,-0.6800000071525573
1622114444179,1.5399999618530271,-1.2400000095367432,4.614999771118164,0.1959999948740005,-9.326000213623049,-0.6489999890327453
1622114444189,2.0999999046325684,-0.656000018119812,4.931000232696533,0.2349999994039535,-9.293999671936035,-0.6029999852180481
1622114444199,2.6600000858306885,-0.5059999823570251,4.886000156402588,0.2349999994039535,-9.138999938964846,-0.5759999752044677
1622114444209,3.7100000381469727,-0.0480000004172325,5.109000205993652,0.2750000059604644,-9.069000244140623,-0.5239999890327453
1622114444219,5.25,0.2639999985694885,4.951000213623047,0.3140000104904174,-9.121000289916992,-0.453000009059906
1622114444229,7.280000209808349,0.1059999987483024,3.430999994277954,0.3529999852180481,-9.25100040435791,-0.3959999978542327
1622114444239,9.3100004196167,-0.1089999973773956,1.8289999961853027,0.3919999897480011,-9.387000083923342,-0.3009999990463256
1622114444249,11.479999542236328,-0.2590000033378601,0.6650000214576721,0.4309999942779541,-9.46399974822998,-0.3149999976158142
1622114444259,12.389999389648438,-0.6950000524520874,0.5170000195503234,0.4709999859333038,-9.517000198364256,-0.2440000027418136
1622114444269,13.300000190734863,-1.13100004196167,0.3689999878406524,0.5099999904632568,-9.6850004196167,-0.1940000057220459
1622114444279,14.699999809265137,-1.9299999475479128,-0.3400000035762786,0.5490000247955322,-9.722999572753906,-0.2010000050067901
1622114444289,15.399999618530272,-2.50600004196167,-1.5080000162124634,0.5879999995231628,-9.781999588012695,-0.0920000001788139
1622114444299,15.539999961853027,-3.5889999866485596,-2.622999906539917,0.6280000209808348,-9.859999656677246,-0.1049999967217445
1622114444309,15.890000343322754,-4.659999847412109,-3.8069999217987065,0.5879999995231628,-9.904999732971191,-0.0740000009536743
1622114444319,15.890000343322754,-5.810999870300293,-4.934000015258789,0.5490000247955322,-9.951000213623049,-0.0419999994337558
1622114444329,15.890000343322754,-7.320000171661377,-6.052999973297119,0.5099999904632568,-9.951000213623049,-0.0419999994337558
1622114444339,15.119999885559082,-8.135000228881836,-6.26800012588501,0.4709999859333038,-10.027999877929688,-0.0549999997019767
1622114444349,13.4399995803833,-9.156999588012695,-5.310999870300293,0.4709999859333038,-10.020999908447266,-0.0939999967813491
1622114444359,10.989999771118164,-9.814000129699709,-4.005000114440918,0.4309999942779541,-10.027999877929688,-0.0549999997019767
1622114444369,8.119999885559082,-10.288000106811523,-2.5250000953674316,0.3919999897480011,-9.996000289916992,-0.0099999997764825
1622114444379,5.599999904632568,-10.397000312805176,-1.9040000438690183,0.3919999897480011,-9.925999641418455,0.0419999994337558
1622114444389,3.430000066757202,-10.487000465393066,-2.2039999961853027,0.3529999852180481,-9.847999572753906,0.0560000017285346
1622114444399,1.3300000429153442,-10.373000144958496,-2.0420000553131104,0.3529999852180481,-9.8100004196167,0.0630000010132789
1622114444409,-0.0700000002980232,-9.619000434875488,-2.690999984741211,0.3140000104904174,-9.78499984741211,0.1469999998807907
1622114444419,-0.5600000023841857,-8.934000015258789,-3.3519999980926514,0.3140000104904174,-9.829999923706056,0.1790000051259994
1622114444429,-1.3300000429153442,-8.531999588012695,-4.419000148773193,0.3529999852180481,-9.862000465393066,0.1330000013113021
1622114444439,-1.6100000143051147,-8.791999816894531,-4.961999893188477,0.3919999897480011,-9.829999923706056,0.1790000051259994
1622114444449,-1.4700000286102295,-8.442999839782715,-5.327000141143799,0.4309999942779541,-9.843999862670898,0.2560000121593475
1622114444459,-1.399999976158142,-8.604999542236328,-5.214000225067139,0.4309999942779541,-9.843999862670898,0.2560000121593475
1622114444469,-1.1200000047683716,-8.690500259399414,-5.3354997634887695,0.4309999942779541,-9.772999763488768,0.3079999983310699
1622114444479,-0.8399999737739563,-8.776000022888184,-5.456999778747559,0.4309999942779541,-9.734999656677246,0.3149999976158142
1622114444489,0.1400000005960464,-9.079999923706056,-6.150000095367432,0.4309999942779541,-9.748000144958496,0.3919999897480011
1622114444499,1.5399999618530271,-9.55500030517578,-7.086999893188477,0.4309999942779541,-9.70300006866455,0.3600000143051147
1622114444509,2.5899999141693115,-9.486000061035156,-8.282999992370605,0.4309999942779541,-9.734999656677246,0.3149999976158142
1622114444519,3.6400001049041744,-9.470000267028809,-9.986000061035156,0.4309999942779541,-9.843999862670898,0.2560000121593475
1622114444529,4.059999942779541,-9.008000373840332,-11.397000312805176,0.4309999942779541,-9.960000038146973,0.2349999994039535
1622114444539,4.059999942779541,-8.258000373840332,-12.82900047302246,0.4709999859333038,-10.029999732971191,0.1829999983310699
1622114444549,3.569999933242798,-7.482999801635742,-14.39799976348877,0.4709999859333038,-10.10099983215332,0.1309999972581863
1622114444559,2.5199999809265137,-6.599999904632568,-16.58799934387207,0.5099999904632568,-10.093999862670898,0.0920000001788139
1622114444569,0.9100000262260436,-5.828999996185303,-17.73200035095215,0.5099999904632568,-10.093999862670898,0.0920000001788139
1622114444579,-0.5600000023841857,-4.556000232696533,-18.50200080871582,0.4709999859333038,-10.086999893188477,0.0540000014007091
1622114444589,-1.8200000524520872,-3.50600004196167,-18.815000534057617,0.4709999859333038,-10.003000259399414,0.0289999991655349
1622114444599,-2.940000057220459,-2.1559998989105225,-19.215999603271484,0.5099999904632568,-9.977999687194824,0.1129999980330467
1622114444609,-3.569999933242798,-0.6480000019073486,-20.513999938964844,0.5490000247955322,-9.932000160217283,0.0810000002384185
1622114444619,-4.269999980926514,0.8889999985694885,-21.16699981689453,0.5879999995231628,-9.854999542236328,0.0949999988079071
1622114444629,-4.480000019073486,4.067999839782715,-21.459999084472656,0.5879999995231628,-9.8100004196167,0.0630000010132789
1622114444639,-4.829999923706055,5.973999977111816,-22.190000534057617,0.5879999995231628,-9.847999572753906,0.0560000017285346
1622114444649,-5.179999828338623,8.010000228881836,-22.04400062561035,0.5879999995231628,-9.847999572753906,0.0560000017285346
1622114444659,-5.039999961853027,9.996999740600586,-21.62299919128418,0.6280000209808348,-9.847999572753906,0.0560000017285346
1622114444669,-5.039999961853027,11.045000076293944,-21.72249984741211,0.6669999957084655,-9.847999572753906,0.0560000017285346
1622114444679,-5.039999961853027,12.093000411987305,-21.82200050354004,0.6669999957084655,-9.763999938964846,0.0309999994933605
1622114444689,-4.96999979019165,13.873000144958496,-21.437000274658203,0.7059999704360961,-9.770999908447264,0.0700000002980232
1622114444699,-4.690000057220459,16.204999923706055,-22.163000106811523,0.6669999957084655,-9.763999938964846,0.0309999994933605
1622114444709,-4.760000228881836,18.535999298095703,-22.888999938964844,0.7059999704360961,-9.763999938964846,0.0309999994933605
1622114444719,-4.619999885559082,21.23699951171875,-23.691999435424805,0.7059999704360961,-9.718999862670898,-0.0010000000474974
1622114444729,-4.96999979019165,23.378000259399418,-24.950000762939453,0.6669999957084655,-9.72599983215332,0.0379999987781047
1622114444739,-4.96999979019165,25.71299934387207,-26.10199928283691,0.7059999704360961,-9.72599983215332,0.0379999987781047
1622114444749,-5.179999828338623,28.016000747680664,-27.472000122070312,0.7850000262260437,-9.746000289916992,0.1539999991655349
1622114444759,-5.179999828338623,30.28300094604492,-28.636999130249023,0.7850000262260437,-9.847999572753906,0.0560000017285346
1622114444769,-5.179999828338623,31.868000030517575,-29.565000534057617,0.8629999756813049,-9.996000289916992,-0.0099999997764825
1622114444779,-5.460000038146973,32.845001220703125,-30.67200088500977,0.9409999847412108,-9.996000289916992,-0.0099999997764825
1622114444789,-5.389999866485596,33.93199920654297,-31.191999435424805,1.0199999809265137,-9.918999671936035,0.0040000001899898
1622114444799,-5.25,34.220001220703125,-31.211999893188477,1.0590000152587893,-9.694000244140623,0.0829999968409538
1622114444809,-4.760000228881836,34.68600082397461,-30.631999969482425,1.1770000457763672,-9.378000259399414,0.0989999994635581
1622114444819,-4.340000152587891,34.986000061035156,-29.51300048828125,1.2549999952316284,-9.210000038146973,0.0489999987185001
1622114444829,-3.7799999713897705,35.01900100708008,-28.086000442504883,1.2940000295639038,-9.178000450134276,0.0939999967813491
1622114444839,-3.2899999618530273,34.768001556396484,-27.06399917602539,1.4119999408721924,-9.293999671936035,0.0740000009536743
1622114444849,-3.1500000953674316,34.2755012512207,-26.688499450683594,1.4509999752044678,-9.454999923706056,0.0850000008940696
1622114444859,-3.009999990463257,33.78300094604492,-26.312999725341797,1.5299999713897705,-9.564000129699709,0.0260000005364418
1622114444869,-2.7300000190734863,33.00400161743164,-25.527000427246097,1.6480000019073486,-9.564000129699709,0.0260000005364418
1622114444879,-2.5899999141693115,32.02299880981445,-23.993999481201172,1.7649999856948853,-9.564000129699709,0.0260000005364418
1622114444889,-2.1700000762939453,31.00900077819824,-22.68000030517578,1.8830000162124632,-9.58899974822998,-0.0579999983310699
1622114444899,-1.5399999618530271,29.593999862670895,-21.507999420166016,1.9220000505447388,-9.564000129699709,0.0260000005364418
1622114444909,-1.1200000047683716,28.406000137329105,-20.01099967956543,2.0399999618530273,-9.694000244140623,0.0829999968409538
1622114444919,-1.0499999523162842,27.011999130249023,-18.551000595092773,2.118000030517578,-9.763999938964846,0.0309999994933605
1622114444929,-1.399999976158142,25.118000030517575,-16.68199920654297,2.118000030517578,-9.8100004196167,0.0630000010132789
1622114444939,-1.6799999475479126,23.763999938964844,-14.645999908447266,2.197000026702881,-9.815999984741213,0.101000003516674
1622114444949,-1.399999976158142,22.593000411987305,-12.435999870300291,2.1570000648498535,-9.8100004196167,0.0630000010132789
1622114444959,-1.190000057220459,21.69700050354004,-11.385000228881836,2.118000030517578,-9.854999542236328,0.0949999988079071
1622114444969,-1.6100000143051147,20.500999450683594,-10.246000289916992,2.118000030517578,-9.970999717712402,0.0740000009536743
1622114444979,-1.9600000381469729,19.024999618530273,-8.729000091552734,2.0789999961853027,-10.010000228881836,0.06700000166893
1622114444989,-2.799999952316284,18.156999588012695,-7.033999919891357,2.0399999618530273,-9.970999717712402,0.0740000009536743
1622114444999,-3.6400001049041744,17.333999633789062,-5.189000129699707,2.000999927520752,-9.970999717712402,0.0740000009536743
1622114445009,-4.550000190734863,16.24799919128418,-3.4609999656677246,2.000999927520752,-9.996000289916992,-0.0099999997764825
1622114445019,-5.110000133514404,15.631500244140623,-2.788000106811523,1.9609999656677248,-9.951000213623049,-0.0419999994337558
1622114445029,-5.670000076293945,15.015000343322754,-2.115000009536743,1.9609999656677248,-9.944000244140623,-0.0799999982118606
1622114445039,-6.860000133514404,12.842000007629396,-1.0759999752044678,1.9609999656677248,-9.82800006866455,-0.0599999986588954
1622114445049,-7.559999942779541,10.993000030517578,-0.2649999856948852,1.9609999656677248,-9.75100040435791,-0.0460000000894069
1622114445059,-8.119999885559082,9.378999710083008,0.0189999993890523,1.8830000162124632,-9.65999984741211,-0.1099999994039535
1622114445069,-8.399999618530273,7.664000034332275,0.0719999969005584,1.843999981880188,-9.65999984741211,-0.1099999994039535
1622114445079,-8.050000190734863,5.692999839782715,-0.8439999818801879,1.8040000200271609,-9.61400032043457,-0.1420000046491622
1622114445089,-8.050000190734863,3.7709999084472656,-2.0360000133514404,1.7649999856948853,-9.529999732971191,-0.1669999957084655
1622114445099,-7.559999942779541,1.8489999771118164,-2.0199999809265137,1.7649999856948853,-9.45300006866455,-0.152999997138977
1622114445109,-6.789999961853027,0.1979999989271163,-1.5290000438690186,1.72599995136261,-9.42099952697754,-0.1080000028014183
1622114445119,-5.460000038146973,-1.1959999799728394,-1.2769999504089355,1.6480000019073486,-9.37600040435791,-0.1400000005960464
1622114445129,-4.340000152587891,-3.0940001010894775,-1.39900004863739,1.569000005722046,-9.413999557495115,-0.1459999978542327
1622114445139,-3.359999895095825,-5.105000019073486,-1.6820000410079956,1.5299999713897705,-9.42099952697754,-0.1080000028014183
1622114445149,-2.799999952316284,-6.88100004196167,-1.284000039100647,1.4509999752044678,-9.38199996948242,-0.101000003516674
1622114445159,-2.240000009536743,-8.73900032043457,-0.8299999833106994,1.4119999408721924,-9.38199996948242,-0.101000003516674
1622114445169,-2.065000057220459,-9.493000030517578,-0.7854999899864196,1.3339999914169312,-9.413999557495115,-0.1459999978542327
1622114445179,-1.8899999856948853,-10.246999740600586,-0.7409999966621398,1.3339999914169312,-9.439000129699709,-0.2300000041723251
1622114445189,-1.75,-11.581000328063965,-0.8339999914169312,1.215999960899353,-9.446000099182127,-0.19200000166893
1622114445199,-1.4700000286102295,-12.465000152587892,-1.0609999895095823,1.1380000114440918,-9.439000129699709,-0.2300000041723251
1622114445209,-1.6799999475479126,-13.539999961853027,-0.6100000143051147,1.0980000495910645,-9.406999588012695,-0.1850000023841857
1622114445219,-1.3300000429153442,-13.770999908447266,-0.5090000033378601,1.0199999809265137,-9.413999557495115,-0.1459999978542327
1622114445229,-1.190000057220459,-14.314000129699709,-0.248999997973442,0.8240000009536743,-9.30500030517578,-0.0869999974966049
1622114445239,-0.8399999737739563,-13.718000411987305,-1.2109999656677246,0.7450000047683715,-9.272999763488768,-0.0419999994337558
1622114445249,-0.0700000002980232,-13.232000350952148,-2.759999990463257,0.7059999704360961,-9.267000198364256,-0.0810000002384185
1622114445259,0.5600000023841857,-12.328000068664553,-3.453000068664551,0.6280000209808348,-9.38199996948242,-0.101000003516674
1622114445269,0.699999988079071,-11.14799976348877,-4.0980000495910645,0.5879999995231628,-9.38199996948242,-0.101000003516674
1622114445279,0.0700000002980232,-9.996000289916992,-4.178999900817871,0.5879999995231628,-9.428000450134276,-0.0689999982714653
1622114445289,-0.4199999868869781,-8.390000343322754,-3.611999988555908,0.5490000247955322,-9.38199996948242,-0.101000003516674
1622114445299,-1.1200000047683716,-6.663000106811523,-2.5250000953674316,0.5490000247955322,-9.35099983215332,-0.0560000017285346
1622114445309,-1.9600000381469729,-5.39300012588501,-1.6619999408721924,0.5879999995231628,-9.20300006866455,0.0099999997764825
1622114445319,-2.59000015258789,-4.902500152587891,-1.2200000286102295,0.5879999995231628,-9.093999862670898,0.0689999982714653
1622114445329,-3.2200000286102295,-4.4120001792907715,-0.777999997138977,0.6280000209808348,-8.977999687194824,0.0900000035762786
1622114445339,-4.269999980926514,-3.6410000324249263,0.4950000047683715,0.6280000209808348,-8.925999641418457,0.0189999993890523
1622114445349,-5.53000020980835,-2.671999931335449,1.4479999542236328,0.6280000209808348,-8.958000183105469,-0.0260000005364418
1622114445359,-7.349999904632568,-1.9950000047683716,1.6380000114440918,0.6280000209808348,-9.027999877929688,-0.0780000016093254
1622114445369,-8.890000343322754,-1.3220000267028809,1.0460000038146973,0.6669999957084655,-9.227999687194824,-0.0740000009536743
1622114445379,-10.220000267028809,-0.5429999828338623,1.468000054359436,0.6669999957084655,-9.543999671936035,-0.0900000035762786
1622114445389,-11.199999809265137,0.625,2.0999999046325684,0.6669999957084655,-9.814000129699709,-0.1369999945163726
1622114445399,-11.479999542236328,0.9409999847412108,2.7249999046325684,0.6669999957084655,-10.194000244140623,-0.2440000027418136
1622114445409,-11.130000114440918,0.9900000095367432,3.6570000648498535,0.7059999704360961,-10.663999557495115,-0.2870000004768371
1622114445419,-10.079999923706056,1.3270000219345093,4.570000171661377,0.7450000047683715,-11.225000381469728,-0.2669999897480011
1622114445429,-8.819999694824219,1.1640000343322754,4.683000087738037,0.7059999704360961,-11.741000175476074,-0.277999997138977
1622114445439,-6.929999828338623,1.47599995136261,3.316999912261963,0.7450000047683715,-12.017999649047852,-0.2870000004768371
1622114445449,-4.96999979019165,1.7070000171661377,-0.4099999964237213,0.7450000047683715,-12.057000160217283,-0.2939999997615814
1622114445459,-3.359999895095825,1.6380000114440918,-4.046999931335449,0.7850000262260437,-11.765999794006348,-0.3619999885559082
1622114445469,-3.0799999237060547,1.56850004196167,-5.267499923706055,0.8240000009536743,-11.321000099182127,-0.402999997138977
1622114445479,-2.799999952316284,1.4989999532699585,-6.48799991607666,0.8240000009536743,-10.727999687194824,-0.3779999911785125
1622114445489,-3.009999990463257,1.8279999494552612,-7.140999794006348,0.8629999756813049,-10.244000434875488,-0.4120000004768371
1622114445499,-3.9200000762939458,1.2599999904632568,-6.74399995803833,0.8629999756813049,-9.80500030517578,-0.414000004529953
1622114445509,-5.110000133514404,0.8989999890327453,-6.309999942779541,0.8240000009536743,-9.451000213623049,-0.3919999897480011
1622114445519,-6.510000228881836,0.4050000011920929,-5.117000102996826,0.8240000009536743,-9.121000289916992,-0.453000009059906
1622114445529,-7.630000114440918,-0.4180000126361846,-3.2720000743865967,0.7850000262260437,-8.920999526977539,-0.4580000042915344
1622114445539,-8.119999885559082,-1.087000012397766,-1.8980000019073489,0.7450000047683715,-8.720999717712402,-0.4620000123977661
1622114445549,-8.329999923706055,-1.6059999465942385,-0.5669999718666076,0.6669999957084655,-8.598999977111816,-0.481000006198883
1622114445559,-8.470000267028809,-1.9789999723434448,-0.0649999976158142,0.5879999995231628,-8.553000450134277,-0.512000024318695
1622114445569,-8.75,-2.6679999828338623,1.0219999551773071,0.5879999995231628,-8.5600004196167,-0.4740000069141387
1622114445579,-8.75,-2.700000047683716,2.01200008392334,0.5490000247955322,-8.708000183105469,-0.5400000214576721
1622114445589,-9.239999771118164,-2.538000106811523,1.8980000019073489,0.5490000247955322,-8.869000434875488,-0.527999997138977
1622114445599,-9.100000381469728,-2.440999984741211,1.3470000028610227,0.4709999859333038,-9.05500030517578,-0.6010000109672546
1622114445609,-9.100000381469728,-2.424999952316284,0.8519999980926513,0.4309999942779541,-9.178000450134276,-0.5830000042915344
1622114445619,-8.539999961853027,-2.1170001029968266,-0.0890000015497207,0.4309999942779541,-9.300999641418455,-0.5649999976158142
1622114445629,-7.875,-2.2870001792907715,-0.3319999873638153,0.4709999859333038,-9.397999763488768,-0.4620000123977661
1622114445639,-7.210000038146973,-2.4570000171661377,-0.574999988079071,0.5099999904632568,-9.53499984741211,-0.367000013589859
1622114445648,-4.96999979019165,-2.546999931335449,-0.8759999871253967,0.5490000247955322,-9.741999626159668,-0.3240000009536743
1622114445658,-1.8200000524520872,-2.4579999446868896,-1.784000039100647,0.5490000247955322,-9.86400032043457,-0.3050000071525573
1622114445668,1.8899999856948853,-3.309000015258789,-3.0,0.5879999995231628,-9.994000434875488,-0.248999997973442
1622114445678,5.25,-3.974999904632568,-4.4679999351501465,0.5490000247955322,-10.116000175476074,-0.2300000041723251
1622114445688,7.980000019073486,-4.729000091552734,-5.0279998779296875,0.5490000247955322,-10.194000244140623,-0.2440000027418136
1622114445698,10.43000030517578,-5.567999839782715,-5.104000091552734,0.5099999904632568,-10.201000213623049,-0.2049999982118606
1622114445708,12.109999656677246,-6.355000019073486,-4.675000190734863,0.4709999859333038,-10.194000244140623,-0.2440000027418136
1622114445718,12.25,-6.590000152587891,-4.146999835968018,0.4309999942779541,-10.263999938964844,-0.2960000038146972
1622114445728,11.760000228881836,-6.986999988555908,-3.506999969482422,0.3919999897480011,-10.25100040435791,-0.3740000128746032
1622114445738,10.079999923706056,-7.396999835968018,-2.796999931335449,0.3919999897480011,-10.244000434875488,-0.4120000004768371
1622114445748,8.050000190734863,-7.310999870300293,-2.071000099182129,0.3529999852180481,-10.121000289916992,-0.4300000071525573
1622114445758,5.670000076293945,-7.0879998207092285,-1.3209999799728394,0.3529999852180481,-9.998000144958496,-0.4490000009536743
1622114445768,2.940000057220459,-7.0269999504089355,-0.4569999873638153,0.3140000104904174,-9.92099952697754,-0.4350000023841857
1622114445778,0.3499999940395355,-6.961999893188477,-0.0189999993890523,0.3140000104904174,-9.767000198364256,-0.4079999923706054
1622114445788,-0.7699999809265136,-6.826499938964844,0.2180000096559524,0.3140000104904174,-9.612000465393066,-0.3799999952316284
1622114445798,-1.8899999856948853,-6.690999984741211,0.4550000131130218,0.2750000059604644,-9.572999954223633,-0.3740000128746032
1622114445808,-3.990000009536743,-6.888999938964844,0.774999976158142,0.2750000059604644,-9.527999877929688,-0.4050000011920929
1622114445818,-5.53000020980835,-6.982999801635742,0.9010000228881836,0.2349999994039535,-9.451000213623049,-0.3919999897480011
1622114445828,-6.510000228881836,-7.343999862670899,0.1270000040531158,0.3140000104904174,-9.482999801635742,-0.4370000064373016
1622114445838,-7.349999904632568,-7.744999885559082,-1.2239999771118164,0.3140000104904174,-9.527999877929688,-0.4050000011920929
1622114445848,-7.769999980926514,-8.220000267028809,-2.1600000858306885,0.3140000104904174,-9.5600004196167,-0.4510000050067901
1622114445858,-7.489999771118165,-8.569000244140625,-3.003999948501587,0.3919999897480011,-9.5600004196167,-0.4510000050067901
1622114445868,-6.510000228881836,-8.730999946594238,-4.0980000495910645,0.3919999897480011,-9.56700038909912,-0.4120000004768371
1622114445878,-5.25,-8.560999870300293,-5.063000202178955,0.3919999897480011,-9.527999877929688,-0.4050000011920929
1622114445888,-4.199999809265137,-8.70300006866455,-5.869999885559082,0.4309999942779541,-9.5600004196167,-0.4510000050067901
1622114445898,-2.869999885559082,-9.16499996185303,-6.875999927520752,0.4309999942779541,-9.675999641418455,-0.4709999859333038
1622114445908,-1.5399999618530271,-9.076000213623049,-7.7839999198913565,0.4309999942779541,-9.829999923706056,-0.4990000128746032
1622114445918,0.209999993443489,-9.916000366210936,-7.861000061035157,0.4309999942779541,-9.92099952697754,-0.4350000023841857
1622114445928,1.190000057220459,-10.402000427246094,-7.520999908447266,0.4309999942779541,-9.87600040435791,-0.4670000076293945
1622114445938,1.75,-11.189000129699709,-7.091000080108643,0.4309999942779541,-9.869000434875488,-0.5049999952316284
1622114445948,1.8899999856948853,-11.237000465393066,-5.605999946594238,0.4309999942779541,-9.869000434875488,-0.5049999952316284
1622114445958,2.0299999713897705,-11.371000289916992,-4.8480000495910645,0.3919999897480011,-9.88199996948242,-0.4280000030994415
1622114445968,2.1700000762939453,-11.505000114440918,-4.090000152587891,0.3919999897480011,-9.88199996948242,-0.4280000030994415
1622114445978,1.8200000524520872,-11.715000152587892,-3.700999975204468,0.3919999897480011,-9.843999862670898,-0.4210000038146972
1622114445988,1.8899999856948853,-11.979000091552734,-3.8180000782012935,0.3919999897480011,-9.80500030517578,-0.414000004529953
1622114445998,1.75,-12.513999938964844,-3.2019999027252197,0.4309999942779541,-9.734999656677246,-0.3619999885559082
1622114446008,1.3300000429153442,-12.298999786376951,-2.808000087738037,0.3919999897480011,-9.619000434875488,-0.3420000076293945
1622114446018,0.9800000190734864,-12.510000228881836,-2.4189999103546143,0.3140000104904174,-9.656999588012695,-0.3490000069141387
1622114446028,0.8399999737739563,-12.614999771118164,-2.2239999771118164,0.3140000104904174,-9.62600040435791,-0.3030000030994415
1622114446038,0.4900000095367431,-12.336000442504885,-2.6019999980926514,0.3529999852180481,-9.710000038146973,-0.277999997138977
1622114446048,0.5600000023841857,-11.979000091552734,-2.609999895095825,0.3529999852180481,-9.710000038146973,-0.277999997138977
1622114446058,0.5600000023841857,-11.99899959564209,-2.8980000019073486,0.3529999852180481,-9.786999702453612,-0.2919999957084655
1622114446068,0.5600000023841857,-11.821000099182127,-3.50600004196167,0.3529999852180481,-9.741999626159668,-0.3240000009536743
1622114446078,0.9100000262260436,-12.243000030517578,-3.936000108718872,0.4309999942779541,-9.755000114440918,-0.2460000067949295
1622114446088,0.4199999868869781,-12.932000160217283,-4.057000160217285,0.5099999904632568,-9.762000083923342,-0.2080000042915344
1622114446098,0.0700000002980232,-13.666000366210938,-4.328999996185303,0.6280000209808348,-9.83199977874756,-0.2599999904632568
1622114446108,-0.0700000002980232,-15.243000030517578,-4.251999855041504,0.7059999704360961,-9.878000259399414,-0.2280000001192092
1622114446118,-0.6299999952316284,-17.117000579833984,-4.511000156402588,0.7850000262260437,-9.90999984741211,-0.2739999890327453
1622114446128,-1.1200000047683716,-19.659000396728516,-5.811999797821045,0.8629999756813049,-9.90999984741211,-0.2739999890327453
1622114446138,-1.329999923706055,-21.287500381469727,-6.454500198364258,0.8629999756813049,-9.871000289916992,-0.2669999897480011
1622114446148,-1.5399999618530271,-22.916000366210938,-7.0970001220703125,0.9020000100135804,-9.878000259399414,-0.2280000001192092
1622114446158,-1.8899999856948853,-26.378999710083008,-7.210000038146973,0.8629999756813049,-9.83899974822998,-0.221000000834465
1622114446168,-2.380000114440918,-30.361000061035156,-5.993000030517578,0.8629999756813049,-9.83199977874756,-0.2599999904632568
1622114446178,-3.1500000953674316,-33.9900016784668,-5.566999912261963,0.9020000100135804,-9.83899974822998,-0.221000000834465
1622114446188,-3.7100000381469727,-37.34700012207031,-5.875,0.7850000262260437,-9.878000259399414,-0.2280000001192092
1622114446198,-4.690000057220459,-40.862998962402344,-6.49399995803833,0.7059999704360961,-9.92300033569336,-0.1959999948740005
1622114446208,-5.809999942779541,-43.381000518798835,-6.724999904632568,0.6669999957084655,-9.90999984741211,-0.2739999890327453
1622114446218,-7.070000171661377,-46.220001220703125,-7.15500020980835,0.6280000209808348,-9.902999877929688,-0.3120000064373016
1622114446228,-7.9099998474121085,-48.85200119018555,-7.547999858856201,0.5490000247955322,-9.86400032043457,-0.3050000071525573
1622114446238,-8.470000267028809,-50.77000045776367,-7.956999778747559,0.4709999859333038,-9.826000213623049,-0.2989999949932098
1622114446248,-9.3100004196167,-51.73500061035156,-8.126999855041504,0.3919999897480011,-9.748000144958496,-0.2849999964237213
1622114446258,-9.380000114440918,-52.858001708984375,-8.609000205993652,0.3140000104904174,-9.734999656677246,-0.3619999885559082
1622114446268,-9.729999542236328,-53.12200164794922,-8.72700023651123,0.1959999948740005,-9.767000198364256,-0.4079999923706054
1622114446278,-10.010000228881836,-52.777000427246094,-8.666000366210938,0.0780000016093254,-9.720999717712402,-0.4390000104904174
1622114446288,-10.010000228881836,-51.73899841308594,-8.90999984741211,0.0390000008046627,-9.720999717712402,-0.4390000104904174
1622114446298,-9.800000190734863,-50.63199996948242,-9.14099979400635,0.0,-9.753000259399414,-0.4850000143051147
1622114446308,-9.59000015258789,-48.81100082397461,-9.388999938964846,-0.0390000008046627,-9.753000259399414,-0.4850000143051147
1622114446318,-9.729999542236328,-47.303001403808594,-9.477999687194824,0.0,-9.760000228881836,-0.4460000097751617
1622114446328,-9.449999809265137,-46.39849853515625,-9.5674991607666,-0.0780000016093254,-9.70699977874756,-0.5170000195503234
1622114446338,-9.170000076293944,-45.493999481201165,-9.656999588012695,-0.1180000007152557,-9.70699977874756,-0.5170000195503234
1622114446348,-9.100000381469728,-43.632999420166016,-9.32900047302246,-0.1570000052452087,-9.73900032043457,-0.5619999766349792
1622114446358,-9.029999732971191,-41.722999572753906,-9.276000022888184,-0.1570000052452087,-9.732000350952148,-0.6010000109672546
1622114446368,-8.75,-39.52899932861328,-10.027000427246094,-0.1570000052452087,-9.732000350952148,-0.6010000109672546
1622114446378,-8.260000228881836,-36.95000076293945,-10.140000343322754,-0.1180000007152557,-9.687000274658203,-0.6330000162124633
1622114446388,-7.769999980926514,-34.683998107910156,-10.095999717712402,-0.1570000052452087,-9.647999763488768,-0.6259999871253967
1622114446398,-7.280000209808349,-32.26300048828125,-10.522000312805176,-0.1570000052452087,-9.564000129699709,-0.6510000228881835
1622114446408,-6.71999979019165,-29.554000854492188,-10.968999862670898,-0.1570000052452087,-9.55799961090088,-0.6890000104904174
1622114446418,-6.159999847412109,-26.801000595092773,-11.265000343322754,-0.1570000052452087,-9.595999717712402,-0.6959999799728394
1622114446428,-5.25,-23.61400032043457,-11.201000213623049,-0.1180000007152557,-9.642000198364256,-0.6639999747276306
1622114446438,-4.199999809265137,-21.27400016784668,-10.362000465393066,-0.1570000052452087,-9.564000129699709,-0.6510000228881835
1622114446448,-3.0799999237060547,-18.979000091552734,-9.67300033569336,-0.1180000007152557,-9.526000022888184,-0.6439999938011169
1622114446458,-1.75,-17.027999877929688,-9.043999671936035,-0.0780000016093254,-9.494000434875488,-0.5989999771118164
1622114446468,0.0,-15.421999931335447,-8.47700023651123,-0.0780000016093254,-9.54599952697754,-0.527999997138977
1622114446478,1.399999976158142,-13.503999710083008,-8.067999839782715,-0.0390000008046627,-9.592000007629396,-0.4959999918937683
1622114446488,3.2200000286102295,-11.189000129699709,-8.298999786376953,-0.0390000008046627,-9.630000114440918,-0.5030000209808348
1622114446498,4.550000190734863,-9.34000015258789,-9.109999656677246,-0.0390000008046627,-9.637000083923342,-0.4639999866485595
1622114446508,5.25,-7.0289998054504395,-10.12399959564209,0.0,-9.753000259399414,-0.4850000143051147
1622114446518,5.460000038146973,-4.888000011444092,-10.17300033569336,0.0,-9.746000289916992,-0.5239999890327453
1622114446528,5.110000133514404,-2.928999900817871,-9.187999725341797,0.0780000016093254,-9.78499984741211,-0.5299999713897705
1622114446538,4.619999885559082,-0.9539999961853028,-8.697999954223633,0.0780000016093254,-9.836999893188477,-0.4600000083446502
1622114446548,4.340000152587891,-0.3924999833106994,-8.456500053405762,0.0780000016093254,-9.869000434875488,-0.5049999952316284
1622114446558,4.059999942779541,0.1689999997615814,-8.21500015258789,0.1570000052452087,-9.87600040435791,-0.4670000076293945
1622114446568,3.1500000953674316,1.3530000448226929,-8.07800006866455,0.1959999948740005,-9.87600040435791,-0.4670000076293945
1622114446578,2.380000114440918,1.9579999446868896,-7.473999977111816,0.2750000059604644,-9.836999893188477,-0.4600000083446502
1622114446588,1.6100000143051147,2.1600000858306885,-7.011000156402588,0.2750000059604644,-9.836999893188477,-0.4600000083446502
1622114446598,1.2599999904632568,2.322999954223633,-7.125,0.3529999852180481,-9.80500030517578,-0.414000004529953
1622114446608,0.9100000262260436,2.2899999618530273,-7.343999862670899,0.3919999897480011,-9.812000274658203,-0.3759999871253967
1622114446618,0.7699999809265136,1.9290000200271609,-6.909999847412109,0.3529999852180481,-9.80500030517578,-0.414000004529953
1622114446628,0.9800000190734864,1.555999994277954,-6.4070000648498535,0.3919999897480011,-9.79800033569336,-0.453000009059906
1622114446638,0.4199999868869781,1.0490000247955322,-6.354000091552734,0.3919999897480011,-9.869000434875488,-0.5049999952316284
1622114446648,-0.0700000002980232,0.5299999713897705,-6.232999801635742,0.3529999852180481,-9.87600040435791,-0.4670000076293945
1622114446658,-0.1400000005960464,0.2590000033378601,-6.706999778747559,0.3529999852180481,-9.791999816894531,-0.492000013589859
1622114446668,-0.2800000011920929,0.0309999994933605,-7.031000137329102,0.3140000104904174,-9.753000259399414,-0.4850000143051147
1622114446678,-0.3499999940395355,-0.7630000114440918,-6.958000183105469,0.2750000059604644,-9.73900032043457,-0.5619999766349792
1622114446688,-0.7699999809265136,-1.3070000410079956,-6.698999881744385,0.2349999994039535,-9.70699977874756,-0.5170000195503234
1622114446698,-0.3499999940395355,-1.687999963760376,-6.552999973297119,0.1959999948740005,-9.746000289916992,-0.5239999890327453
1622114446708,-0.3499999940395355,-1.5579999685287476,-6.885000228881836,0.2349999994039535,-9.70699977874756,-0.5170000195503234
1622114446718,0.1400000005960464,-1.5950000286102295,-7.887000083923339,0.2349999994039535,-9.70699977874756,-0.5170000195503234
1622114446728,0.4199999868869781,-1.3029999732971191,-8.333000183105469,0.2349999994039535,-9.630000114440918,-0.5030000209808348
1622114446738,0.3499999940395355,-1.5540000200271606,-8.519000053405762,0.2349999994039535,-9.630000114440918,-0.5030000209808348
1622114446748,1.1200000047683716,-1.2539999485015867,-8.609000205993652,0.2349999994039535,-9.630000114440918,-0.5030000209808348
1622114446758,1.5399999618530271,-1.2220000028610227,-8.390000343322754,0.2349999994039535,-9.597999572753906,-0.4580000042915344
1622114446768,1.8200000524520872,-1.3960000276565552,-8.206999778747559,0.2349999994039535,-9.592000007629396,-0.4959999918937683
1622114446778,2.5899999141693115,-1.1239999532699585,-7.732999801635742,0.1959999948740005,-9.651000022888184,-0.3869999945163726
1622114446788,3.5,-0.9539999961853028,-7.488999843597413,0.1959999948740005,-9.675999641418455,-0.4709999859333038
1622114446798,4.199999809265137,-0.6779999732971191,-7.440999984741211,0.1180000007152557,-9.651000022888184,-0.3869999945163726
1622114446808,4.480000019073486,-0.637499988079071,-7.469500064849853,0.1570000052452087,-9.637000083923342,-0.4639999866485595
1622114446818,4.760000228881836,-0.597000002861023,-7.498000144958496,0.1570000052452087,-9.675999641418455,-0.4709999859333038
1622114446828,5.179999828338623,-0.1230000033974647,-7.769000053405762,0.1180000007152557,-9.71399974822998,-0.4779999852180481
1622114446838,5.53000020980835,0.4079999923706054,-7.960000038146973,0.1959999948740005,-9.79800033569336,-0.453000009059906
1622114446848,5.599999904632568,0.550000011920929,-8.361000061035156,0.1959999948740005,-9.753000259399414,-0.4850000143051147
1622114446858,5.670000076293945,0.8539999723434448,-8.87600040435791,0.1959999948740005,-9.720999717712402,-0.4390000104904174
1622114446868,5.670000076293945,1.1909999847412107,-9.17300033569336,0.1959999948740005,-9.760000228881836,-0.4460000097751617
1622114446878,5.809999942779541,1.340999960899353,-9.217000007629396,0.1959999948740005,-9.767000198364256,-0.4079999923706054
1622114446888,5.739999771118164,1.5479999780654907,-9.180999755859377,0.2349999994039535,-9.772999763488768,-0.3689999878406524
1622114446898,6.090000152587891,1.1790000200271606,-9.104000091552734,0.1959999948740005,-9.772999763488768,-0.3689999878406524
1622114446908,5.949999809265137,1.3650000095367432,-9.354999542236328,0.2349999994039535,-9.748000144958496,-0.2849999964237213
1622114446918,5.460000038146973,1.5959999561309814,-9.456000328063965,0.2349999994039535,-9.772999763488768,-0.3689999878406524
1622114446928,4.829999923706055,2.3299999237060547,-10.392999649047852,0.2349999994039535,-9.80500030517578,-0.414000004529953
1622114446938,4.760000228881836,2.747999906539917,-10.746000289916992,0.1959999948740005,-9.812000274658203,-0.3759999871253967
1622114446948,4.269999980926514,3.4690001010894775,-11.61400032043457,0.1959999948740005,-9.772999763488768,-0.3689999878406524
1622114446958,3.849999904632568,4.324999809265137,-12.031999588012695,0.1570000052452087,-9.779999732971191,-0.3300000131130218
1622114446968,3.569999933242798,4.750999927520752,-12.027999877929688,0.1959999948740005,-9.748000144958496,-0.2849999964237213
1622114446978,3.6400001049041744,5.480999946594238,-11.329999923706056,0.1570000052452087,-9.748000144958496,-0.2849999964237213
1622114446988,3.569999933242798,6.210999965667725,-10.633000373840332,0.1570000052452087,-9.793999671936035,-0.2529999911785125
1622114446998,3.430000066757202,7.276999950408936,-10.232000350952148,0.1959999948740005,-9.755000114440918,-0.2460000067949295
1622114447008,3.7100000381469727,8.095999717712402,-10.442999839782717,0.2349999994039535,-9.786999702453612,-0.2919999957084655
1622114447018,3.359999895095825,9.571999549865724,-10.75100040435791,0.2349999994039535,-9.793999671936035,-0.2529999911785125
1622114447028,3.009999990463257,10.100000381469728,-10.515999794006348,0.1959999948740005,-9.793999671936035,-0.2529999911785125
1622114447038,2.6600000858306885,11.039999961853027,-10.208000183105469,0.2349999994039535,-9.83899974822998,-0.221000000834465
1622114447048,2.1700000762939453,11.907999992370604,-9.486000061035156,0.3140000104904174,-9.878000259399414,-0.2280000001192092
1622114447058,1.8200000524520872,12.630000114440918,-9.145999908447264,0.2750000059604644,-9.83899974822998,-0.221000000834465
1622114447068,1.5399999618530271,13.104999542236328,-8.208999633789062,0.3140000104904174,-9.800999641418455,-0.2150000035762786
1622114447078,1.190000057220459,13.95199966430664,-7.775000095367432,0.2750000059604644,-9.83899974822998,-0.221000000834465
1622114447088,1.0499999523162842,14.85200023651123,-6.835000038146973,0.2750000059604644,-9.800999641418455,-0.2150000035762786
1622114447098,0.6299999952316284,15.23799991607666,-6.197999954223633,0.2750000059604644,-9.878000259399414,-0.2280000001192092
1622114447108,0.3499999940395355,15.956000328063965,-5.432000160217285,0.2750000059604644,-9.83899974822998,-0.221000000834465
1622114447118,0.0,16.263999938964844,-5.164000034332275,0.3140000104904174,-9.807000160217283,-0.1759999990463256
1622114447128,0.0,16.86400032043457,-5.3429999351501465,0.3140000104904174,-9.800999641418455,-0.2150000035762786
1622114447138,0.0350000001490116,16.958999633789062,-5.68149995803833,0.3140000104904174,-9.762000083923342,-0.2080000042915344
1622114447148,0.0700000002980232,17.054000854492188,-6.019999980926514,0.3529999852180481,-9.755000114440918,-0.2460000067949295
1622114447158,0.0700000002980232,16.860000610351562,-6.125,0.3529999852180481,-9.800999641418455,-0.2150000035762786
1622114447168,-0.4199999868869781,17.195999145507812,-6.421000003814697,0.3140000104904174,-9.800999641418455,-0.2150000035762786
1622114447178,-0.3499999940395355,17.415000915527344,-6.453999996185303,0.3140000104904174,-9.800999641418455,-0.2150000035762786
1622114447188,-0.5600000023841857,17.273000717163086,-6.052000045776367,0.3140000104904174,-9.807000160217283,-0.1759999990463256
1622114447198,-0.699999988079071,17.229000091552734,-6.202000141143799,0.3140000104904174,-9.762000083923342,-0.2080000042915344
1622114447208,-0.5600000023841857,17.29400062561035,-5.764999866485596,0.3140000104904174,-9.755000114440918,-0.2460000067949295
1622114447217,-0.699999988079071,16.986000061035156,-6.0320000648498535,0.3140000104904174,-9.762000083923342,-0.2080000042915344
1622114447227,-0.6299999952316284,17.139999389648438,-6.502999782562256,0.3140000104904174,-9.70300006866455,-0.31700000166893
1622114447237,-0.6299999952316284,16.718000411987305,-6.932000160217285,0.3529999852180481,-9.678000450134276,-0.2329999953508377
1622114447247,-0.4199999868869781,16.628999710083008,-7.23199987411499,0.3919999897480011,-9.717000007629396,-0.2399999946355819
1622114447257,-0.2800000011920929,16.31999969482422,-7.5,0.3919999897480011,-9.717000007629396,-0.2399999946355819
1622114447267,-0.5600000023841857,16.308000564575195,-7.431000232696533,0.3919999897480011,-9.722999572753906,-0.2010000050067901
1622114447277,-0.7699999809265136,16.37700080871582,-7.419000148773193,0.4309999942779541,-9.722999572753906,-0.2010000050067901
1622114447287,-0.699999988079071,16.097000122070312,-7.041999816894531,0.3919999897480011,-9.722999572753906,-0.2010000050067901
1622114447297,-0.7699999809265136,16.166000366210938,-7.03000020980835,0.3919999897480011,-9.762000083923342,-0.2080000042915344
1622114447307,-0.8399999737739563,16.027999877929688,-7.053999900817871,0.3529999852180481,-9.722999572753906,-0.2010000050067901
1622114447317,-0.9100000262260436,15.946999549865724,-6.997000217437744,0.3919999897480011,-9.762000083923342,-0.2080000042915344
1622114447327,-0.6299999952316284,16.16200065612793,-6.604000091552734,0.3529999852180481,-9.807000160217283,-0.1759999990463256
1622114447337,-0.699999988079071,16.256000518798828,-6.729000091552734,0.3919999897480011,-9.807000160217283,-0.1759999990463256
1622114447347,-0.5600000023841857,16.104999542236328,-6.684999942779541,0.4309999942779541,-9.807000160217283,-0.1759999990463256
1622114447357,-0.4900000095367431,15.930999755859377,-6.501999855041504,0.5099999904632568,-9.776000022888184,-0.1299999952316284
1622114447367,-0.4199999868869781,15.732999801635742,-6.182000160217285,0.5099999904632568,-9.76900005340576,-0.1689999997615814
1622114447377,-0.1400000005960464,15.562000274658203,-6.425000190734863,0.4709999859333038,-9.76900005340576,-0.1689999997615814
1622114447387,-0.2800000011920929,15.461000442504885,-6.656000137329102,0.4709999859333038,-9.807000160217283,-0.1759999990463256
1622114447397,-0.209999993443489,15.23799991607666,-6.197999954223633,0.4709999859333038,-9.76900005340576,-0.1689999997615814
1622114447407,-0.2800000011920929,14.904999732971191,-6.328000068664551,0.5099999904632568,-9.76900005340576,-0.1689999997615814
1622114447417,-0.699999988079071,14.37399959564209,-6.13700008392334,0.5099999904632568,-9.76900005340576,-0.1689999997615814
1622114447427,-0.9800000190734864,14.093999862670898,-5.760000228881836,0.4709999859333038,-9.755000114440918,-0.2460000067949295
1622114447437,-0.9100000262260436,13.473999977111816,-5.86899995803833,0.4709999859333038,-9.807000160217283,-0.1759999990463256
1622114447447,-1.5399999618530271,13.428999900817873,-6.019000053405762,0.4709999859333038,-9.916999816894531,-0.2349999994039535
1622114447457,-2.450000047683716,13.140999794006348,-5.999000072479248,0.4709999859333038,-9.916999816894531,-0.2349999994039535
1622114447467,-2.7649998664855957,12.889999389648438,-6.185500144958496,0.4309999942779541,-9.916999816894531,-0.2349999994039535
1622114447477,-3.0799999237060547,12.638999938964844,-6.372000217437744,0.4309999942779541,-9.845999717712402,-0.1829999983310699
1622114447487,-3.569999933242798,12.371000289916992,-6.064000129699707,0.4709999859333038,-9.807000160217283,-0.1759999990463256
1622114447497,-3.9200000762939458,11.888999938964844,-4.940999984741211,0.4309999942779541,-9.807000160217283,-0.1759999990463256
1622114447507,-4.480000019073486,11.661999702453612,-4.057000160217285,0.4709999859333038,-9.776000022888184,-0.1299999952316284
1622114447517,-4.690000057220459,11.64900016784668,-3.98799991607666,0.4309999942779541,-9.76900005340576,-0.1689999997615814
1622114447527,-4.199999809265137,11.045000076293944,-4.5920000076293945,0.3919999897480011,-9.776000022888184,-0.1299999952316284
1622114447537,-4.760000228881836,10.729000091552734,-5.216000080108643,0.3919999897480011,-9.76900005340576,-0.1689999997615814
1622114447547,-4.619999885559082,10.802000045776367,-5.630000114440918,0.3919999897480011,-9.807000160217283,-0.1759999990463256
1622114447557,-4.900000095367432,10.513999938964844,-5.610000133514404,0.3919999897480011,-9.807000160217283,-0.1759999990463256
1622114447567,-5.110000133514404,9.800000190734863,-5.5929999351501465,0.3529999852180481,-9.807000160217283,-0.1759999990463256
1622114447577,-5.320000171661377,10.392000198364258,-6.129000186920166,0.3919999897480011,-9.76900005340576,-0.1689999997615814
1622114447587,-5.389999866485596,9.800000190734863,-6.802000045776367,0.3529999852180481,-9.762000083923342,-0.2080000042915344
1622114447597,-5.739999771118164,9.548999786376951,-6.98799991607666,0.3529999852180481,-9.800999641418455,-0.2150000035762786
1622114447607,-5.739999771118164,9.711000442504885,-7.1020002365112305,0.3140000104904174,-9.762000083923342,-0.2080000042915344
1622114447617,-5.949999809265137,9.79599952697754,-7.584000110626221,0.3140000104904174,-9.755000114440918,-0.2460000067949295
1622114447627,-6.019999980926514,10.095999717712402,-7.672999858856201,0.3529999852180481,-9.710000038146973,-0.277999997138977
1622114447637,-5.670000076293945,10.359000205993652,-7.556000232696533,0.2750000059604644,-9.710000038146973,-0.277999997138977
1622114447647,-5.320000171661377,11.190999984741213,-7.835999965667725,0.2750000059604644,-9.67099952697754,-0.2709999978542327
1622114447657,-5.039999961853027,11.211000442504885,-7.547999858856201,0.2349999994039535,-9.663999557495115,-0.3100000023841857
1622114447667,-5.320000171661377,11.633000373840332,-7.118000030517578,0.2349999994039535,-9.748000144958496,-0.2849999964237213
1622114447677,-5.110000133514404,12.090999603271484,-6.894999980926514,0.2349999994039535,-9.786999702453612,-0.2919999957084655
1622114447687,-5.320000171661377,12.630000114440918,-6.729000091552734,0.1959999948740005,-9.772999763488768,-0.3689999878406524
1622114447697,-5.739999771118164,12.779999732971191,-6.77400016784668,0.2349999994039535,-9.819000244140623,-0.3370000123977661
1622114447707,-5.949999809265137,13.003999710083008,-6.0229997634887695,0.2349999994039535,-9.812000274658203,-0.3759999871253967
1622114447717,-6.159999847412109,13.652000427246094,-5.269000053405762,0.2750000059604644,-9.772999763488768,-0.3689999878406524
1622114447727,-6.159999847412109,13.680999755859377,-4.625,0.2750000059604644,-9.772999763488768,-0.3689999878406524
1622114447737,-6.125,13.678999900817873,-4.411999702453613,0.2349999994039535,-9.772999763488768,-0.3689999878406524
1622114447747,-6.090000152587891,13.677000045776367,-4.198999881744385,0.2750000059604644,-9.727999687194824,-0.4009999930858612
1622114447757,-6.019999980926514,13.770000457763672,-4.324999809265137,0.2349999994039535,-9.689000129699709,-0.3939999938011169
1622114447767,-5.739999771118164,14.090999603271484,-4.125999927520752,0.2349999994039535,-9.637000083923342,-0.4639999866485595
1622114447777,-5.809999942779541,14.04599952697754,-4.276000022888184,0.3140000104904174,-9.668999671936035,-0.5099999904632568
1622114447787,-5.25,13.793999671936035,-4.461999893188477,0.3140000104904174,-9.668999671936035,-0.5099999904632568
1622114447797,-4.829999923706055,13.85099983215332,-4.38100004196167,0.3529999852180481,-9.637000083923342,-0.4639999866485595
1622114447807,-4.269999980926514,13.677000045776367,-4.198999881744385,0.3529999852180481,-9.668999671936035,-0.5099999904632568
1622114447817,-3.5,13.284000396728516,-3.9839999675750737,0.3529999852180481,-9.668999671936035,-0.5099999904632568
1622114447827,-2.7300000190734863,12.942999839782717,-4.46999979019165,0.3919999897480011,-9.668999671936035,-0.5099999904632568
1622114447837,-2.5899999141693115,12.208999633789064,-4.742000102996826,0.3919999897480011,-9.654999732971191,-0.5870000123977661
1622114447847,-2.0999999046325684,11.61299991607666,-4.988999843597412,0.3919999897480011,-9.701000213623049,-0.5550000071525573
1622114447857,-1.5399999618530271,11.151000022888184,-4.785999774932861,0.3919999897480011,-9.70699977874756,-0.5170000195503234
1622114447867,-1.1200000047683716,10.805999755859377,-4.8470001220703125,0.4309999942779541,-9.70699977874756,-0.5170000195503234
1622114447877,-1.190000057220459,9.934000015258787,-5.14300012588501,0.4309999942779541,-9.746000289916992,-0.5239999890327453
1622114447887,-1.3300000429153442,9.123000144958496,-5.783999919891357,0.4309999942779541,-9.746000289916992,-0.5239999890327453
1622114447897,-1.2599999904632568,8.656999588012695,-6.36299991607666,0.4309999942779541,-9.777999877929688,-0.5690000057220459
1622114447907,-1.3300000429153442,7.939000129699707,-7.130000114440918,0.4309999942779541,-9.777999877929688,-0.5690000057220459
1622114447917,-2.1700000762939453,7.159999847412109,-7.551000118255616,0.4709999859333038,-9.78499984741211,-0.5299999713897705
1622114447927,-2.450000047683716,6.35699987411499,-7.835000038146973,0.4709999859333038,-9.791999816894531,-0.492000013589859
1622114447937,-2.5199999809265137,5.427999973297119,-8.211999893188477,0.4709999859333038,-9.78499984741211,-0.5299999713897705
1622114447947,-2.7300000190734863,4.617000102996826,-8.852999687194824,0.4709999859333038,-9.78499984741211,-0.5299999713897705
1622114447957,-3.2200000286102295,3.7460000514984126,-9.14900016784668,0.4709999859333038,-9.78499984741211,-0.5299999713897705
1622114447967,-3.325000047683716,3.413000106811523,-9.278499603271484,0.4309999942779541,-9.73900032043457,-0.5619999766349792
1622114447977,-3.430000066757202,3.0799999237060547,-9.407999992370604,0.3919999897480011,-9.701000213623049,-0.5550000071525573
1622114447987,-3.7799999713897705,3.1659998893737793,-9.89099979400635,0.4309999942779541,-9.732000350952148,-0.6010000109672546
1622114447997,-4.199999809265137,2.9590001106262207,-9.927000045776367,0.4309999942779541,-9.770999908447264,-0.6079999804496765
1622114448007,-4.550000190734863,2.5450000762939453,-10.0,0.4309999942779541,-9.854999542236328,-0.5830000042915344
1622114448017,-4.760000228881836,2.3589999675750732,-9.74899959564209,0.4309999942779541,-9.8100004196167,-0.6140000224113464
1622114448027,-4.690000057220459,2.318000078201294,-9.116000175476074,0.4709999859333038,-9.8100004196167,-0.6140000224113464
1622114448037,-4.480000019073486,1.7549999952316284,-7.935999870300293,0.4709999859333038,-9.732000350952148,-0.6010000109672546
1622114448047,-4.340000152587891,1.4670000076293943,-6.706999778747559,0.4309999942779541,-9.694000244140623,-0.5939999818801879
1622114448057,-3.9200000762939458,1.2890000343322754,-6.098999977111816,0.4309999942779541,-9.687000274658203,-0.6330000162124633
1622114448067,-2.940000057220459,1.1749999523162842,-6.261000156402588,0.3919999897480011,-9.647999763488768,-0.6259999871253967
1622114448077,-2.240000009536743,1.4869999885559082,-6.419000148773193,0.4309999942779541,-9.654999732971191,-0.5870000123977661
1622114448087,-1.6100000143051147,1.1909999847412107,-6.75600004196167,0.3919999897480011,-9.732000350952148,-0.6010000109672546
1622114448097,-1.5399999618530271,1.2029999494552612,-6.824999809265137,0.3919999897480011,-9.732000350952148,-0.6010000109672546
1622114448107,-2.0299999713897705,1.5720000267028809,-6.9019999504089355,0.3919999897480011,-9.732000350952148,-0.6010000109672546
1622114448117,-2.0299999713897705,1.4550000429153442,-6.638000011444092,0.3919999897480011,-9.763999938964846,-0.6460000276565551
1622114448127,-2.1700000762939453,2.0999999046325684,-6.666999816894531,0.3919999897480011,-9.732000350952148,-0.6010000109672546
1622114448137,-2.450000047683716,2.2049999237060547,-6.861000061035156,0.3140000104904174,-9.732000350952148,-0.6010000109672546
1622114448147,-2.1700000762939453,2.562000036239624,-6.869999885559082,0.3140000104904174,-9.694000244140623,-0.5939999818801879
1622114448157,-2.1700000762939453,2.6059999465942383,-6.718999862670898,0.3140000104904174,-9.732000350952148,-0.6010000109672546
1622114448167,-1.8899999856948853,2.7730000019073486,-7.258999824523927,0.3529999852180481,-9.687000274658203,-0.6330000162124633
1622114448177,-1.7149999141693115,2.875999927520752,-7.240499973297118,0.3529999852180481,-9.687000274658203,-0.6330000162124633
1622114448187,-1.5399999618530271,2.9790000915527344,-7.222000122070312,0.3529999852180481,-9.687000274658203,-0.6330000162124633
1622114448197,-0.8399999737739563,2.821000099182129,-7.5349998474121085,0.3529999852180481,-9.647999763488768,-0.6259999871253967
1622114448207,-0.5600000023841857,2.638999938964844,-7.709000110626221,0.3140000104904174,-9.732000350952148,-0.6010000109672546
1622114448217,-0.8399999737739563,3.0199999809265137,-7.855000019073486,0.3140000104904174,-9.770999908447264,-0.6079999804496765
1622114448227,-0.8399999737739563,3.181999921798706,-7.968999862670899,0.3529999852180481,-9.770999908447264,-0.6079999804496765
1622114448237,-0.8399999737739563,2.9670000076293945,-8.362000465393066,0.3140000104904174,-9.822999954223633,-0.537000000476837
1622114448247,-1.190000057220459,2.836999893188477,-8.029000282287598,0.3529999852180481,-9.822999954223633,-0.537000000476837
1622114448257,-1.6799999475479126,2.6589999198913574,-7.421000003814697,0.3919999897480011,-9.78499984741211,-0.5299999713897705
1622114448267,-1.9600000381469729,2.7039999961853027,-7.270999908447266,0.4309999942779541,-9.829999923706056,-0.4990000128746032
1622114448277,-1.8899999856948853,2.302000045776367,-7.413000106811523,0.3919999897480011,-9.777999877929688,-0.5690000057220459
1622114448287,-1.8899999856948853,2.2780001163482666,-7.275000095367432,0.3919999897480011,-9.732000350952148,-0.6010000109672546
1622114448297,-1.4700000286102295,1.8849999904632568,-7.059999942779541,0.3919999897480011,-9.72599983215332,-0.6389999985694885
1622114448307,-1.5399999618530271,2.009999990463257,-6.9670000076293945,0.3919999897480011,-9.732000350952148,-0.6010000109672546
1622114448317,-1.6799999475479126,2.26200008392334,-6.78000020980835,0.3919999897480011,-9.732000350952148,-0.6010000109672546
1622114448327,-1.6799999475479126,2.0309998989105225,-6.678999900817871,0.3919999897480011,-9.732000350952148,-0.6010000109672546
1622114448337,-1.4700000286102295,1.98199999332428,-6.4029998779296875,0.3919999897480011,-9.72599983215332,-0.6389999985694885
1622114448347,-1.399999976158142,1.4989999532699585,-6.48799991607666,0.3919999897480011,-9.687000274658203,-0.6330000162124633
1622114448357,-1.190000057220459,1.4950000047683716,-6.061999797821045,0.3919999897480011,-9.694000244140623,-0.5939999818801879
1622114448367,-1.2599999904632568,1.3450000286102295,-6.01800012588501,0.3919999897480011,-9.687000274658203,-0.6330000162124633
1622114448377,-0.7699999809265136,1.162999987602234,-6.191999912261963,0.3529999852180481,-9.68000030517578,-0.6710000038146972
1622114448387,-0.7699999809265136,1.247999906539917,-6.070499897003174,0.3529999852180481,-9.718999862670898,-0.6779999732971191
1622114448397,-0.7699999809265136,1.3329999446868896,-5.948999881744385,0.3529999852180481,-9.687000274658203,-0.6330000162124633
1622114448407,-0.699999988079071,1.2400000095367432,-5.822999954223633,0.3529999852180481,-9.72599983215332,-0.6389999985694885
1622114448417,-0.3499999940395355,1.093999981880188,-6.203999996185303,0.3140000104904174,-9.72599983215332,-0.6389999985694885
1622114448427,-0.2800000011920929,1.4509999752044678,-6.211999893188477,0.3529999852180481,-9.72599983215332,-0.6389999985694885
1622114448437,-0.3499999940395355,1.6449999809265137,-6.10699987411499,0.3140000104904174,-9.758000373840332,-0.6850000023841857
1622114448447,-0.5600000023841857,1.9900000095367432,-6.046000003814697,0.3529999852180481,-9.718999862670898,-0.6779999732971191
1622114448457,-0.699999988079071,2.140000104904175,-6.091000080108643,0.3140000104904174,-9.763999938964846,-0.6460000276565551
1622114448467,-0.4900000095367431,1.718000054359436,-6.520999908447266,0.2750000059604644,-9.72599983215332,-0.6389999985694885
1622114448477,-0.3499999940395355,1.7910000085830688,-6.934000015258789,0.2750000059604644,-9.763999938964846,-0.6460000276565551
1622114448487,-0.699999988079071,2.0789999961853027,-6.954999923706055,0.3140000104904174,-9.763999938964846,-0.6460000276565551
1622114448497,-0.8399999737739563,2.378999948501587,-7.044000148773193,0.3140000104904174,-9.701000213623049,-0.5550000071525573
1622114448507,-0.9800000190734864,2.253999948501587,-7.13700008392334,0.2750000059604644,-9.73900032043457,-0.5619999766349792
1622114448517,-1.1200000047683716,2.6710000038146973,-7.489999771118165,0.3529999852180481,-9.694000244140623,-0.5939999818801879
1622114448527,-0.7699999809265136,2.809000015258789,-7.4660000801086435,0.3140000104904174,-9.72599983215332,-0.6389999985694885
1622114448537,-0.7699999809265136,2.934999942779541,-7.372000217437744,0.2750000059604644,-9.687000274658203,-0.6330000162124633
1622114448547,-0.8399999737739563,2.805000066757202,-7.039999961853027,0.2750000059604644,-9.68000030517578,-0.6710000038146972
1622114448557,-0.4199999868869781,2.8289999961853027,-7.177999973297119,0.2750000059604644,-9.68000030517578,-0.6710000038146972
1622114448567,-0.4900000095367431,3.061000108718872,-7.27899980545044,0.2750000059604644,-9.687000274658203,-0.6330000162124633
1622114448577,-0.4900000095367431,3.2674999237060547,-7.242499828338623,0.3140000104904174,-9.763999938964846,-0.6460000276565551
1622114448587,-0.4900000095367431,3.4739999771118164,-7.205999851226807,0.3140000104904174,-9.842000007629396,-0.6600000262260437
1622114448597,-0.9800000190734864,3.700999975204468,-6.881999969482422,0.3140000104904174,-9.842000007629396,-0.6600000262260437
1622114448607,-1.2599999904632568,3.964999914169311,-6.763999938964844,0.3140000104904174,-9.8100004196167,-0.6140000224113464
1622114448617,-1.5399999618530271,3.8550000190734863,-6.144000053405762,0.3140000104904174,-9.770999908447264,-0.6079999804496765
1622114448627,-1.3300000429153442,3.928999900817871,-5.348999977111816,0.3529999852180481,-9.732000350952148,-0.6010000109672546
1622114448637,-1.3300000429153442,3.76200008392334,-4.809999942779541,0.3529999852180481,-9.661999702453612,-0.5490000247955322
1622114448647,-1.1200000047683716,3.697000026702881,-5.248000144958496,0.2750000059604644,-9.694000244140623,-0.5939999818801879
1622114448657,-0.699999988079071,3.5959999561309814,-5.479000091552734,0.3140000104904174,-9.732000350952148,-0.6010000109672546
1622114448667,-0.4199999868869781,3.635999917984009,-6.111000061035156,0.3140000104904174,-9.72599983215332,-0.6389999985694885
1622114448677,-0.6299999952316284,3.190000057220459,-6.4029998779296875,0.2750000059604644,-9.75100040435791,-0.7239999771118164
1622114448687,-0.7699999809265136,2.8010001182556152,-6.613999843597412,0.3140000104904174,-9.758000373840332,-0.6850000023841857
1622114448697,-0.9100000262260436,2.5739998817443848,-6.938000202178955,0.3140000104904174,-9.758000373840332,-0.6850000023841857
1622114448707,-1.399999976158142,2.4600000381469727,-7.10099983215332,0.3140000104904174,-9.763999938964846,-0.6460000276565551
1622114448717,-1.399999976158142,2.431999921798706,-7.744999885559082,0.3529999852180481,-9.718999862670898,-0.6779999732971191
1622114448727,-1.6799999475479126,2.3989999294281006,-7.96400022506714,0.3529999852180481,-9.763999938964846,-0.6460000276565551
1622114448737,-1.75,2.135999917984009,-8.081999778747559,0.3140000104904174,-9.718999862670898,-0.6779999732971191
1622114448747,-1.399999976158142,2.046999931335449,-8.381999969482422,0.3140000104904174,-9.758000373840332,-0.6850000023841857
1622114448757,-1.0499999523162842,2.3350000381469727,-8.402000427246094,0.2750000059604644,-9.763999938964846,-0.6460000276565551
1622114448767,-0.9800000190734864,2.4685001373291016,-8.555999755859375,0.3140000104904174,-9.687000274658203,-0.6330000162124633
1622114448777,-0.9100000262260436,2.6019999980926514,-8.710000038146973,0.3140000104904174,-9.642000198364256,-0.6639999747276306
1622114448787,-0.8399999737739563,3.0969998836517334,-8.694000244140625,0.3140000104904174,-9.687000274658203,-0.6330000162124633
1622114448797,-0.8399999737739563,3.4210000038146973,-8.920999526977539,0.2750000059604644,-9.744000434875488,-0.762000024318695
1622114448807,-0.5600000023841857,3.586999893188477,-9.461000442504885,0.2750000059604644,-9.704999923706056,-0.7549999952316284
1622114448817,-0.4199999868869781,3.3559999465942383,-9.359000205993652,0.3919999897480011,-9.758000373840332,-0.6850000023841857
1622114448827,-0.4199999868869781,3.575000047683716,-8.182999610900879,0.3529999852180481,-9.758000373840332,-0.6850000023841857
1622114448837,-0.4199999868869781,3.5269999504089355,-7.907999992370605,0.3529999852180481,-9.758000373840332,-0.6850000023841857
1622114448846,-0.4900000095367431,3.424999952316284,-8.138999938964844,0.3529999852180481,-9.718999862670898,-0.6779999732971191
1622114448856,-0.3499999940395355,3.2869999408721924,-8.163000106811523,0.3529999852180481,-9.718999862670898,-0.6779999732971191
1622114448866,0.1400000005960464,3.437000036239624,-8.208000183105469,0.3919999897480011,-9.718999862670898,-0.6779999732971191
1622114448876,0.5600000023841857,3.194000005722046,-8.036999702453613,0.3919999897480011,-9.718999862670898,-0.6779999732971191
1622114448886,0.3499999940395355,2.881999969482422,-7.879000186920166,0.3919999897480011,-9.687000274658203,-0.6330000162124633
1622114448896,0.4199999868869781,2.5369999408721924,-7.940000057220459,0.3919999897480011,-9.718999862670898,-0.6779999732971191
1622114448906,0.699999988079071,2.3510000705718994,-7.689000129699707,0.4309999942779541,-9.72599983215332,-0.6389999985694885
1622114448916,0.699999988079071,2.2820000648498535,-7.701000213623046,0.4709999859333038,-9.763999938964846,-0.6460000276565551
1622114448926,0.6299999952316284,2.1080000400543213,-7.51800012588501,0.4309999942779541,-9.718999862670898,-0.6779999732971191
1622114448936,0.4900000095367431,1.9579999446868896,-7.473999977111816,0.4309999942779541,-9.718999862670898,-0.6779999732971191
1622114448946,0.3849999904632568,1.9110000133514404,-7.4110002517700195,0.3919999897480011,-9.770999908447264,-0.6079999804496765
1622114448956,0.2800000011920929,1.8639999628067017,-7.348000049591064,0.3919999897480011,-9.763999938964846,-0.6460000276565551
1622114448966,0.6299999952316284,1.7949999570846558,-7.360000133514405,0.4309999942779541,-9.763999938964846,-0.6460000276565551
1622114448976,0.2800000011920929,1.8639999628067017,-7.348000049591064,0.3919999897480011,-9.763999938964846,-0.6460000276565551
1622114448986,-0.1400000005960464,1.8639999628067017,-7.348000049591064,0.3919999897480011,-9.758000373840332,-0.6850000023841857
1622114448996,-0.4199999868869781,2.253999948501587,-7.13700008392334,0.3919999897480011,-9.72599983215332,-0.6389999985694885
1622114449006,-0.8399999737739563,2.447999954223633,-7.0320000648498535,0.3529999852180481,-9.763999938964846,-0.6460000276565551
1622114449016,-0.5600000023841857,2.6470000743865967,-7.3520002365112305,0.3529999852180481,-9.718999862670898,-0.6779999732971191
1622114449026,-0.4199999868869781,2.7850000858306885,-7.328000068664551,0.3140000104904174,-9.72599983215332,-0.6389999985694885
1622114449036,-0.0700000002980232,2.9100000858306885,-7.235000133514405,0.3140000104904174,-9.72599983215332,-0.6389999985694885
1622114449046,-0.209999993443489,3.3359999656677246,-7.230999946594238,0.3140000104904174,-9.763999938964846,-0.6460000276565551
1622114449056,-0.4199999868869781,3.6570000648498535,-7.0320000648498535,0.3529999852180481,-9.758000373840332,-0.6850000023841857
1622114449066,-0.4199999868869781,4.081999778747559,-7.0279998779296875,0.3529999852180481,-9.770999908447264,-0.6079999804496765
1622114449076,-0.4900000095367431,4.070000171661377,-6.959000110626221,0.3919999897480011,-9.72599983215332,-0.6389999985694885
1622114449086,-0.5600000023841857,4.326000213623047,-7.197999954223633,0.3919999897480011,-9.763999938964846,-0.6460000276565551
1622114449096,-0.8399999737739563,4.2769999504089355,-6.921999931335449,0.4309999942779541,-9.763999938964846,-0.6460000276565551
1622114449106,-0.9100000262260436,4.5279998779296875,-6.736000061035156,0.3919999897480011,-9.763999938964846,-0.6460000276565551
1622114449116,-0.9800000190734864,4.033999919891357,-6.751999855041504,0.3529999852180481,-9.763999938964846,-0.6460000276565551
1622114449126,-0.9099999666213988,4.080499649047852,-6.814999580383301,0.3140000104904174,-9.763999938964846,-0.6460000276565551
1622114449136,-0.8399999737739563,4.126999855041504,-6.877999782562256,0.3140000104904174,-9.763999938964846,-0.6460000276565551
1622114449146,-0.7699999809265136,4.098999977111816,-7.5229997634887695,0.3529999852180481,-9.732000350952148,-0.6010000109672546
1622114449156,-0.4900000095367431,3.8550000190734863,-7.3520002365112305,0.3529999852180481,-9.72599983215332,-0.6389999985694885
1622114449166,-0.4199999868869781,3.9570000171661377,-7.120999813079834,0.3919999897480011,-9.732000350952148,-0.6010000109672546
1622114449176,-0.7699999809265136,4.000999927520752,-6.9710001945495605,0.3529999852180481,-9.718999862670898,-0.6779999732971191
1622114449186,-0.7699999809265136,4.098999977111816,-7.5229997634887695,0.3529999852180481,-9.758000373840332,-0.6850000023841857
1622114449196,-1.5399999618530271,3.900000095367432,-7.202000141143799,0.3919999897480011,-9.835000038146973,-0.6990000009536743
1622114449206,-2.1700000762939453,3.9200000762939458,-6.914000034332275,0.3140000104904174,-9.835000038146973,-0.6990000009536743
1622114449216,-2.5199999809265137,4.103000164031982,-6.739999771118164,0.2750000059604644,-9.842000007629396,-0.6600000262260437
1622114449226,-2.5199999809265137,4.008999824523926,-6.613999843597412,0.3140000104904174,-9.79599952697754,-0.6919999718666076
1622114449236,-1.9600000381469729,4.138999938964844,-5.73799991607666,0.3140000104904174,-9.758000373840332,-0.6850000023841857
1622114449246,-2.0299999713897705,3.7420001029968266,-5.0980000495910645,0.3140000104904174,-9.687000274658203,-0.6330000162124633
1622114449256,-1.2599999904632568,3.9489998817443848,-6.269999980926514,0.3529999852180481,-9.647999763488768,-0.6259999871253967
1622114449266,-0.699999988079071,3.888000011444092,-7.132999897003174,0.3529999852180481,-9.647999763488768,-0.6259999871253967
1622114449276,0.0,3.78600001335144,-7.363999843597413,0.3529999852180481,-9.687000274658203,-0.6330000162124633
1622114449286,0.209999993443489,3.4779999256134033,-7.631999969482423,0.3529999852180481,-9.687000274658203,-0.6330000162124633
1622114449296,0.7699999809265136,3.433000087738037,-7.782000064849853,0.3140000104904174,-9.687000274658203,-0.6330000162124633
1622114449306,0.8049999475479126,3.3864998817443848,-7.718999862670899,0.3529999852180481,-9.68000030517578,-0.6710000038146972
1622114449316,0.8399999737739563,3.3399999141693115,-7.656000137329101,0.3529999852180481,-9.68000030517578,-0.6710000038146972
1622114449326,0.699999988079071,3.67300009727478,-7.526999950408936,0.3529999852180481,-9.72599983215332,-0.6389999985694885
1622114449336,0.4199999868869781,3.7420001029968266,-7.513999938964843,0.3529999852180481,-9.72599983215332,-0.6389999985694885
