timestamp,gyro_x,gyro_y,gyro_z,acc_x,acc_y,acc_z
1622113723896,0.0,0.0,0.0,0.0,0.0,0.0
1622113723905,2.799999952316284,88.80000305175781,1.087000012397766,0.7059999704360961,-9.763999938964846,-1.3229999542236328
1622113723915,3.359999895095825,88.07099914550781,4.013999938964844,0.7059999704360961,-9.842000007629396,-1.337000012397766
1622113723925,4.619999885559082,87.56900024414062,7.267000198364258,0.5879999995231628,-9.904999732971191,-1.4279999732971191
1622113723935,6.369999885559082,87.5530014038086,8.970000267028809,0.5099999904632568,-10.06700038909912,-1.4170000553131104
1622113723945,8.399999618530273,88.58200073242188,8.369000434875488,0.4309999942779541,-10.234999656677246,-1.3669999837875366
1622113723955,9.9399995803833,88.96800231933594,7.797999858856201,0.4309999942779541,-10.30500030517578,-1.4190000295639038
1622113723965,10.289999961853027,89.44999694824219,7.882999897003175,0.4309999942779541,-10.42099952697754,-1.4390000104904177
1622113723975,9.729999542236328,89.50299835205078,8.38949966430664,0.4709999859333038,-10.529999732971191,-1.4980000257492063
1622113723985,9.170000076293944,89.55599975585938,8.895999908447266,0.5099999904632568,-10.645999908447266,-1.5190000534057615
1622113723995,6.71999979019165,88.93099975585938,10.42099952697754,0.5099999904632568,-10.807000160217283,-1.506999969482422
1622113724005,4.130000114440918,88.052001953125,12.1850004196167,0.5099999904632568,-10.76200008392334,-1.5390000343322754
1622113724015,1.4700000286102295,87.13999938964844,13.729999542236328,0.5099999904632568,-10.717000007629396,-1.5709999799728394
1622113724025,-0.3499999940395355,86.0770034790039,14.112000465393066,0.4709999859333038,-10.638999938964844,-1.5570000410079956
1622113724035,-1.399999976158142,84.18399810791016,14.77299976348877,0.4709999859333038,-10.534999847412108,-1.6979999542236328
1622113724045,-2.6600000858306885,81.43099975585938,16.277999877929688,0.4309999942779541,-10.43299961090088,-1.60099995136261
1622113724055,-4.340000152587891,78.74600219726562,17.79400062561035,0.3919999897480011,-10.347999572753906,-1.6260000467300415
1622113724065,-6.369999885559082,75.83100128173828,18.20400047302246,0.3140000104904174,-10.232999801635742,-1.6050000190734863
1622113724075,-8.609999656677246,73.01300048828125,18.062999725341797,0.3529999852180481,-10.071000099182127,-1.6169999837875366
1622113724085,-11.199999809265137,70.60399627685547,17.211999893188477,0.3919999897480011,-9.902999877929688,-1.6670000553131104
1622113724095,-13.649999618530272,68.65299987792969,15.375,0.3529999852180481,-9.767000198364256,-1.7619999647140503
1622113724105,-14.630000114440918,66.23600006103516,12.958999633789064,0.2349999994039535,-9.604999542236328,-1.7730000019073486
1622113724115,-14.630000114440918,63.3849983215332,10.180999755859377,0.1959999948740005,-9.404999732971191,-1.7779999971389773
1622113724125,-14.0,61.084999084472656,7.500999927520752,0.1570000052452087,-9.282999992370604,-1.7960000038146973
1622113724135,-13.4399995803833,58.70100021362305,5.303999900817871,0.1570000052452087,-9.107999801635742,-1.8849999904632568
1622113724145,-12.670000076293944,56.4010009765625,3.8320000171661377,0.1570000052452087,-9.017000198364256,-1.9479999542236328
1622113724155,-11.829999923706056,54.499000549316406,1.7200000286102295,0.1180000007152557,-8.9399995803833,-1.934999942779541
1622113724165,-11.550000190734863,52.349998474121094,-1.0049999952316284,0.0780000016093254,-8.901000022888184,-1.9279999732971191
1622113724175,-10.989999771118164,51.209999084472656,-3.4089999198913574,0.0,-8.901000022888184,-1.9279999732971191
1622113724185,-9.869999885559082,50.76399993896485,-4.909999847412109,-0.0780000016093254,-8.911999702453613,-2.0889999866485596
1622113724195,-8.260000228881836,50.31800079345703,-5.201000213623047,-0.0390000008046627,-8.996000289916992,-2.063999891281128
1622113724205,-6.300000190734863,50.40700149536133,-4.901000022888184,0.0,-9.003000259399414,-2.0260000228881836
1622113724215,-5.670000076293945,50.22850036621094,-4.897000312805176,-0.0390000008046627,-8.96500015258789,-2.0190000534057617
1622113724225,-5.039999961853027,50.04999923706055,-4.89300012588501,0.0,-8.88700008392334,-2.005000114440918
1622113724235,-3.430000066757202,49.499000549316406,-4.989999771118164,0.0390000008046627,-8.925999641418457,-2.01200008392334
1622113724245,-2.6600000858306885,49.07699966430664,-5.420000076293945,0.1570000052452087,-9.010000228881836,-1.986999988555908
1622113724255,-2.5899999141693115,48.67100143432618,-6.34499979019165,0.1959999948740005,-9.157999992370604,-2.052999973297119
1622113724265,-2.799999952316284,48.29399871826172,-6.624000072479248,0.1959999948740005,-9.312000274658203,-2.0799999237060547
1622113724275,-3.569999933242798,47.10599899291992,-6.335999965667725,0.2349999994039535,-9.395999908447264,-2.055000066757202
1622113724285,-4.829999923706055,45.79600143432618,-5.359000205993652,0.3140000104904174,-9.550999641418455,-2.0820000171661377
1622113724295,-5.809999942779541,44.632999420166016,-4.0,0.3140000104904174,-9.583000183105469,-2.128000020980835
1622113724305,-6.71999979019165,43.099998474121094,-2.565000057220459,0.3140000104904174,-9.729999542236328,-2.194000005722046
1622113724315,-7.420000076293945,41.02799987792969,-1.2949999570846558,0.3140000104904174,-9.845999717712402,-2.2139999866485596
1622113724325,-7.8400001525878915,39.32099914550781,-0.8849999904632568,0.2750000059604644,-9.878000259399414,-2.259999990463257
1622113724335,-7.8400001525878915,37.46799850463867,-0.8569999933242797,0.3140000104904174,-9.979999542236328,-2.3570001125335693
1622113724345,-8.960000038146973,35.23400115966797,-1.8899999856948853,0.3529999852180481,-10.18000030517578,-2.3529999256134033
1622113724355,-10.56999969482422,33.38399887084961,-2.288000106811523,0.2750000059604644,-10.380000114440918,-2.3480000495910645
1622113724365,-12.460000038146973,31.680999755859375,-2.303999900817871,0.2750000059604644,-10.31700038909912,-2.256999969482422
1622113724375,-14.489999771118164,29.909000396728516,-3.5399999618530273,0.2750000059604644,-10.085000038146973,-2.2160000801086426
1622113724385,-15.890000343322754,28.190000534057617,-5.478000164031982,0.3140000104904174,-9.911999702453612,-2.065999984741211
1622113724395,-17.360000610351562,26.551000595092773,-6.264999866485596,0.4309999942779541,-9.72599983215332,-1.99399995803833
1622113724405,-18.6200008392334,24.993999481201172,-4.690999984741211,0.5099999904632568,-9.68299961090088,-1.7869999408721924
1622113724415,-19.18000030517578,22.96299934387207,-2.8459999561309814,0.5099999904632568,-9.496000289916992,-1.7139999866485596
1622113724425,-18.899999618530273,20.68400001525879,-1.6130000352859497,0.5099999904632568,-9.39400005340576,-1.6169999837875366
1622113724435,-17.920000076293945,19.07900047302246,-0.9720000028610228,0.5490000247955322,-9.477999687194824,-1.5920000076293943
1622113724445,-17.290000915527344,18.065000534057617,0.3420000076293945,0.5490000247955322,-9.491999626159668,-1.5140000581741333
1622113724455,-17.115001678466797,17.623001098632812,1.437000036239624,0.5099999904632568,-9.467000007629396,-1.4299999475479126
1622113724465,-16.940000534057617,17.180999755859375,2.5320000648498535,0.5099999904632568,-9.42099952697754,-1.462000012397766
1622113724475,-15.399999618530272,16.55699920654297,2.8480000495910645,0.5099999904632568,-9.4350004196167,-1.3849999904632568
1622113724485,-13.649999618530272,16.520000457763672,1.8470000028610227,0.4709999859333038,-9.487000465393066,-1.3140000104904177
1622113724495,-11.6899995803833,16.79599952697754,1.8949999809265137,0.5099999904632568,-9.538999557495115,-1.24399995803833
1622113724505,-9.520000457763674,17.416000366210938,2.005000114440918,0.5879999995231628,-9.508000373840332,-1.1979999542236328
1622113724515,-6.440000057220459,17.886999130249023,2.1589999198913574,0.6669999957084655,-9.585000038146973,-1.212000012397766
1622113724525,-3.7100000381469727,18.43400001525879,2.681999921798706,0.7450000047683715,-9.598999977111816,-1.1349999904632568
1622113724535,-1.6100000143051147,18.340999603271484,4.015999794006348,0.8240000009536743,-9.496000289916992,-1.0369999408721924
1622113724545,0.9800000190734864,17.356000900268555,5.974999904632568,0.8629999756813049,-9.425999641418455,-0.9850000143051147
1622113724555,3.430000066757202,16.82900047302246,6.947999954223633,0.9020000100135804,-9.407999992370604,-0.8619999885559082
1622113724565,6.369999885559082,15.989999771118164,8.079000473022461,0.9020000100135804,-9.491999626159668,-0.8370000123977661
1622113724575,8.960000038146973,15.734999656677246,8.319000244140625,0.9020000100135804,-9.505000114440918,-0.7599999904632568
1622113724585,11.479999542236328,15.151000022888184,8.001999855041504,0.8629999756813049,-9.628000259399414,-0.7419999837875366
1622113724595,14.06999969482422,14.781000137329102,6.870999813079834,0.8629999756813049,-9.718999862670898,-0.6779999732971191
1622113724605,15.890000343322754,13.828000068664553,6.631999969482422,0.7850000262260437,-9.803000450134276,-0.652999997138977
1622113724615,17.149999618530273,13.342000007629396,6.9730000495910645,0.7850000262260437,-9.835000038146973,-0.6990000009536743
1622113724625,17.920000076293945,12.932000160217283,7.682000160217285,0.7450000047683715,-9.842000007629396,-0.6600000262260437
1622113724635,18.34000015258789,12.166000366210938,8.399999618530273,0.7059999704360961,-9.996000289916992,-0.6869999766349792
1622113724645,17.5,11.626999855041504,9.44200038909912,0.5879999995231628,-10.13700008392334,-0.7919999957084655
1622113724655,16.59000015258789,11.69200038909912,11.08899974822998,0.4709999859333038,-10.322999954223633,-0.8640000224113464
1622113724665,14.699999809265137,11.817999839782717,11.182000160217283,0.3529999852180481,-10.446000099182127,-0.8460000157356262
1622113724675,13.4399995803833,12.251999855041504,10.333999633789064,0.3140000104904174,-10.510000228881836,-0.9369999766349792
1622113724685,11.829999923706056,13.241000175476074,9.157999992370604,0.3140000104904174,-10.54800033569336,-0.944000005722046
1622113724695,11.024999618530272,13.624000549316406,9.403499603271484,0.3140000104904174,-10.510000228881836,-0.9369999766349792
1622113724705,10.220000267028809,14.006999969482422,9.64900016784668,0.3529999852180481,-10.322999954223633,-0.8640000224113464
1622113724715,9.170000076293944,13.994999885559082,10.925999641418455,0.3140000104904174,-10.130000114440918,-0.8299999833106994
1622113724725,8.609999656677246,13.779999732971191,11.741000175476074,0.2750000059604644,-9.892000198364256,-0.828000009059906
1622113724735,8.75,13.192999839782717,13.059000015258787,0.2750000059604644,-9.82800006866455,-0.7369999885559082
1622113724745,9.170000076293944,12.585000038146973,15.29800033569336,0.2750000059604644,-9.776000022888184,-0.8080000281333923
1622113724755,9.380000114440918,11.446000099182127,17.726999282836914,0.2349999994039535,-9.704999923706056,-0.7549999952316284
1622113724765,10.359999656677246,10.204999923706056,18.715999603271484,0.1959999948740005,-9.58899974822998,-0.7350000143051147
1622113724775,11.270000457763672,8.76099967956543,18.03499984741211,0.1570000052452087,-9.472999572753906,-0.7139999866485595
1622113724785,12.25,7.138999938964844,16.753999710083008,0.1180000007152557,-9.395999908447264,-0.7009999752044677
1622113724795,12.739999771118164,5.525000095367432,15.829999923706056,0.1180000007152557,-9.36400032043457,-0.6549999713897705
1622113724805,13.229999542236328,4.418000221252441,14.852999687194824,0.0780000016093254,-9.319000244140623,-0.6869999766349792
1622113724815,13.369999885559082,2.6659998893737793,13.904000282287598,0.0780000016093254,-9.357999801635742,-0.6940000057220459
1622113724825,12.670000076293944,1.4780000448226929,12.984000205993652,0.1180000007152557,-9.357999801635742,-0.6940000057220459
1622113724835,11.0600004196167,-0.3589999973773956,12.517999649047852,0.1180000007152557,-9.472999572753906,-0.7139999866485595
1622113724845,9.449999809265137,-2.038000106811523,12.36400032043457,0.1180000007152557,-9.595999717712402,-0.6959999799728394
1622113724855,7.0,-3.4049999713897705,12.052000045776367,0.0780000016093254,-9.58899974822998,-0.7350000143051147
1622113724865,5.320000171661377,-4.750999927520752,10.819000244140623,0.0780000016093254,-9.543999671936035,-0.7670000195503234
1622113724875,4.199999809265137,-5.793000221252441,9.071999549865724,0.0390000008046627,-9.479999542236328,-0.6759999990463256
1622113724885,3.430000066757202,-6.406000137329102,8.111000061035156,0.1180000007152557,-9.44200038909912,-0.6690000295639038
1622113724895,3.430000066757202,-6.710000038146973,7.418000221252441,0.0780000016093254,-9.402999877929688,-0.662000000476837
1622113724905,3.2899999618530273,-6.625,6.934999942779541,0.1180000007152557,-9.44200038909912,-0.6690000295639038
1622113724915,2.9049999713897705,-6.99399995803833,7.01200008392334,0.0780000016093254,-9.479999542236328,-0.6759999990463256
1622113724925,2.5199999809265137,-7.362999916076661,7.089000225067139,0.0780000016093254,-9.51900005340576,-0.6830000281333923
1622113724935,1.9600000381469729,-7.7160000801086435,7.880000114440918,0.0,-9.55799961090088,-0.6890000104904174
1622113724945,1.2599999904632568,-7.686999797821045,8.524999618530273,-0.0390000008046627,-9.55799961090088,-0.6890000104904174
1622113724955,0.699999988079071,-7.6020002365112305,9.25,-0.0780000016093254,-9.51900005340576,-0.6830000281333923
1622113724965,-0.0700000002980232,-7.244999885559082,9.241999626159668,-0.1180000007152557,-9.467000007629396,-0.7530000209808348
1622113724975,-0.2800000011920929,-6.888000011444092,9.234000205993652,-0.1959999948740005,-9.505000114440918,-0.7599999904632568
1622113724985,-0.3499999940395355,-6.61299991607666,8.074000358581543,-0.2750000059604644,-9.505000114440918,-0.7599999904632568
1622113724995,-0.5600000023841857,-5.558000087738037,7.335999965667725,-0.3529999852180481,-9.498000144958496,-0.7990000247955322
1622113725005,0.0700000002980232,-4.103000164031982,6.739999771118164,-0.3919999897480011,-9.491999626159668,-0.8370000123977661
1622113725015,0.2800000011920929,-2.7690000534057617,6.833000183105469,-0.3919999897480011,-9.529999732971191,-0.8439999818801879
1622113725025,0.1400000005960464,-1.7309999465942385,6.590000152587891,-0.4309999942779541,-9.562000274658203,-0.8889999985694885
1622113725035,-0.5600000023841857,-0.6719999909400939,6.633999824523926,-0.4309999942779541,-9.60099983215332,-0.8960000276565551
1622113725045,-1.190000057220459,0.4269999861717224,6.046000003814697,-0.5099999904632568,-9.54800033569336,-0.9670000076293944
1622113725055,-1.5399999618530271,1.8090000152587893,4.65500020980835,-0.5490000247955322,-9.517000198364256,-0.9210000038146972
1622113725065,-1.6100000143051147,2.819000005722046,3.7669999599456783,-0.5879999995231628,-9.43299961090088,-0.9459999799728392
1622113725075,-1.8200000524520872,3.9340000152587886,2.684000015258789,-0.5490000247955322,-9.348999977111816,-0.9710000157356262
1622113725085,-2.1700000762939453,5.276000022888184,1.924999952316284,-0.5490000247955322,-9.380000114440918,-1.0169999599456787
1622113725095,-2.240000009536743,6.605999946594238,1.2359999418258667,-0.5490000247955322,-9.572999954223633,-1.0509999990463257
1622113725105,-2.0299999713897705,6.706999778747559,0.2590000033378601,-0.5099999904632568,-9.720999717712402,-1.1169999837875366
1622113725115,-1.6100000143051147,6.239999771118164,-1.5299999713897705,-0.5099999904632568,-9.791999816894531,-1.1690000295639038
1622113725125,-1.5399999618530271,6.213500022888184,-2.3874998092651367,-0.4709999859333038,-9.708000183105469,-1.194000005722046
1622113725135,-1.4700000286102295,6.186999797821045,-3.244999885559082,-0.5099999904632568,-9.708000183105469,-1.194000005722046
1622113725145,-1.3300000429153442,6.682000160217285,-4.436999797821045,-0.5490000247955322,-9.835000038146973,-1.3760000467300415
1622113725155,-1.6799999475479126,7.383999824523927,-4.383999824523926,-0.5879999995231628,-9.904999732971191,-1.4279999732971191
1622113725165,-1.8899999856948853,8.303999900817871,-4.363999843597412,-0.6280000209808348,-9.98900032043457,-1.4029999971389773
1622113725175,-1.8899999856948853,9.04599952697754,-4.943999767303467,-0.6280000209808348,-10.027999877929688,-1.4099999666213987
1622113725185,-2.240000009536743,10.246000289916992,-5.301000118255615,-0.6669999957084655,-9.98900032043457,-1.4029999971389773
1622113725195,-2.380000114440918,11.746999740600586,-5.748000144958496,-0.7450000047683715,-9.98900032043457,-1.4029999971389773
1622113725205,-2.5199999809265137,13.043999671936035,-6.656000137329102,-0.7850000262260437,-10.020999908447266,-1.4479999542236328
1622113725215,-2.1700000762939453,14.755000114440918,-7.492000102996825,-0.8240000009536743,-10.13700008392334,-1.468999981880188
1622113725225,-1.9600000381469729,15.895000457763672,-7.504000186920166,-0.8629999756813049,-10.407999992370604,-1.5160000324249268
1622113725235,-1.8899999856948853,16.8799991607666,-5.836999893188477,-0.9409999847412108,-10.562000274658203,-1.5440000295639038
1622113725245,-1.6799999475479126,17.5939998626709,-4.644999980926514,-0.981000006198883,-10.67099952697754,-1.6030000448226929
1622113725255,-2.5899999141693115,17.893999099731445,-4.735000133514404,-1.0199999809265137,-10.909999847412108,-1.6050000190734863
1622113725265,-4.130000114440918,19.32900047302246,-5.61899995803833,-0.981000006198883,-11.102999687194824,-1.6390000581741333
1622113725275,-5.25,19.7549991607666,-6.822999954223633,-1.0199999809265137,-10.916999816894531,-1.5659999847412107
1622113725285,-5.53000020980835,19.750999450683594,-8.814000129699707,-1.0199999809265137,-10.428000450134276,-1.4010000228881836
1622113725295,-4.550000190734863,20.434999465942383,-11.892000198364258,-1.0590000152587893,-9.977999687194824,-1.2419999837875366
1622113725305,-3.359999895095825,21.64800071716309,-13.526000022888184,-0.9020000100135804,-9.689000129699709,-1.0709999799728394
1622113725315,-0.3499999940395355,22.499000549316406,-13.517999649047852,-0.9409999847412108,-9.522999763488768,-0.8830000162124633
1622113725325,0.9449999928474426,22.805500030517575,-12.433500289916992,-0.9409999847412108,-9.6850004196167,-0.8709999918937683
1622113725335,2.240000009536743,23.11199951171875,-11.348999977111816,-0.9409999847412108,-9.737000465393066,-0.8009999990463256
1622113725345,4.760000228881836,22.945999145507812,-8.392999649047852,-1.0199999809265137,-9.711999893188477,-0.7170000076293945
1622113725355,6.860000133514404,21.86000061035156,-6.664999961853027,-1.1380000114440918,-9.609999656677246,-0.6190000176429749
1622113725365,8.609999656677246,21.61599922180176,-6.494999885559082,-1.2549999952316284,-9.54599952697754,-0.527999997138977
1622113725375,9.9399995803833,22.464000701904297,-7.269999980926514,-1.3339999914169312,-9.513999938964846,-0.4830000102519989
1622113725385,11.0600004196167,23.46500015258789,-7.306000232696533,-1.3730000257492063,-9.482999801635742,-0.4370000064373016
1622113725395,11.970000267028809,24.589000701904297,-6.823999881744385,-1.4119999408721924,-9.451000213623049,-0.3919999897480011
1622113725405,12.25,25.496999740600582,-6.735000133514404,-1.4119999408721924,-9.579999923706056,-0.3350000083446502
1622113725415,11.409999847412108,25.25,-6.138999938964844,-1.4119999408721924,-9.678000450134276,-0.2329999953508377
1622113725424,10.149999618530272,25.006000518798828,-5.9679999351501465,-1.491000056266785,-9.717000007629396,-0.2399999946355819
1622113725434,7.769999980926514,24.11400032043457,-5.343999862670898,-1.5299999713897705,-9.741999626159668,-0.3240000009536743
1622113725444,5.599999904632568,23.128999710083008,-4.5929999351501465,-1.569000005722046,-9.717000007629396,-0.2399999946355819
1622113725454,4.059999942779541,22.56100082397461,-4.196000099182129,-1.6080000400543213,-9.638999938964846,-0.2259999960660934
1622113725464,2.940000057220459,22.57799911499023,-4.690999984741211,-1.6080000400543213,-9.562000274658203,-0.2119999974966049
1622113725474,1.75,22.645999908447266,-4.678999900817871,-1.6480000019073486,-9.413999557495115,-0.1459999978542327
1622113725484,1.5399999618530271,22.913999557495117,-4.986999988555908,-1.6080000400543213,-9.38199996948242,-0.101000003516674
1622113725494,1.4700000286102295,22.89800071716309,-5.699999809265137,-1.6080000400543213,-9.319000244140623,-0.0099999997764825
1622113725504,1.1200000047683716,22.464000701904297,-6.060999870300293,-1.569000005722046,-9.326000213623049,0.0289999991655349
1622113725514,1.329999923706055,22.362499237060547,-6.292500019073486,-1.491000056266785,-9.33199977874756,0.06700000166893
1622113725524,1.5399999618530271,22.26099967956543,-6.52400016784668,-1.491000056266785,-9.248000144958496,0.0419999994337558
1622113725534,1.5399999618530271,21.368999481201172,-5.89900016784668,-1.4119999408721924,-9.210000038146973,0.0489999987185001
1622113725544,1.8200000524520872,20.44099998474121,-5.067999839782715,-1.4119999408721924,-9.210000038146973,0.0489999987185001
1622113725554,2.5899999141693115,19.743000030517575,-4.3379998207092285,-1.4119999408721924,-9.178000450134276,0.0939999967813491
1622113725564,3.9200000762939458,18.82699966430664,-3.575000047683716,-1.4509999752044678,-9.204999923706056,0.248999997973442
1622113725574,5.320000171661377,19.062000274658203,-4.1020002365112305,-1.4509999752044678,-9.25100040435791,0.2809999883174896
1622113725584,6.650000095367432,18.604000091552734,-5.533999919891357,-1.491000056266785,-9.373000144958496,0.2989999949932098
1622113725594,7.769999980926514,18.437000274658203,-6.203000068664551,-1.4119999408721924,-9.46399974822998,0.3630000054836273
1622113725604,8.609999656677246,17.698999404907227,-6.047999858856201,-1.3730000257492063,-9.54800033569336,0.3880000114440918
1622113725614,9.239999771118164,17.302000045776367,-5.4079999923706055,-1.3730000257492063,-9.51599979400635,0.4329999983310699
1622113725624,9.800000190734863,16.948999404907227,-5.824999809265137,-1.4119999408721924,-9.63199996948242,0.4129999876022338
1622113725634,9.65999984741211,16.851999282836914,-6.48199987411499,-1.3730000257492063,-9.63199996948242,0.4129999876022338
1622113725644,9.520000457763674,16.722000122070312,-6.150000095367432,-1.3730000257492063,-9.741000175476074,0.3540000021457672
1622113725654,8.680000305175781,16.441999435424805,-5.7729997634887695,-1.3730000257492063,-9.741000175476074,0.3540000021457672
1622113725664,7.769999980926514,16.284000396728516,-6.085000038146973,-1.3730000257492063,-9.741000175476074,0.3540000021457672
1622113725674,7.489999771118165,16.260000228881836,-7.15500020980835,-1.3339999914169312,-9.779999732971191,0.3470000028610229
1622113725684,7.070000171661377,16.26799964904785,-8.006999969482422,-1.3339999914169312,-9.779999732971191,0.3470000028610229
1622113725694,6.930000305175781,16.142000198364258,-8.100000381469727,-1.2940000295639038,-9.70300006866455,0.3600000143051147
1622113725704,6.789999961853027,16.016000747680664,-8.192999839782715,-1.2940000295639038,-9.619000434875488,0.3350000083446502
1622113725714,6.860000133514404,15.666999816894531,-9.036999702453612,-1.2549999952316284,-9.612000465393066,0.2969999909400939
1622113725724,7.070000171661377,15.366999626159668,-8.946999549865723,-1.215999960899353,-9.5600004196167,0.2259999960660934
1622113725734,7.630000114440918,15.623000144958496,-9.187000274658203,-1.215999960899353,-9.5600004196167,0.2259999960660934
1622113725744,8.050000190734863,15.399999618530272,-8.727999687194824,-1.1770000457763672,-9.585000038146973,0.1420000046491622
1622113725754,8.329999923706055,15.383000373840332,-8.234000205993652,-1.1770000457763672,-9.623000144958496,0.135000005364418
1622113725764,8.399999618530273,15.319000244140623,-8.67199993133545,-1.1380000114440918,-9.661999702453612,0.1289999932050705
1622113725774,8.539999961853027,15.3100004196167,-9.029000282287598,-1.1770000457763672,-9.623000144958496,0.135000005364418
1622113725784,8.609999656677246,15.416000366210938,-9.222999572753906,-1.1770000457763672,-9.50100040435791,0.1169999986886978
1622113725794,9.729999542236328,16.097000122070312,-9.458000183105469,-1.1770000457763672,-9.50100040435791,0.1169999986886978
1622113725804,10.56999969482422,16.91200065612793,-9.244000434875488,-1.215999960899353,-9.461999893188477,0.123999997973442
1622113725814,11.270000457763672,17.41900062561035,-8.088000297546387,-1.215999960899353,-9.468999862670898,0.163000002503395
1622113725824,11.829999923706056,18.018999099731445,-7.058000087738037,-1.2549999952316284,-9.513999938964846,0.1940000057220459
1622113725834,11.899999618530272,19.017000198364254,-6.669000148773193,-1.2549999952316284,-9.637000083923342,0.2129999995231628
1622113725844,11.270000457763672,20.09600067138672,-6.336999893188477,-1.2940000295639038,-9.76599979400635,0.2689999938011169
1622113725854,9.729999542236328,20.878000259399418,-6.341000080108643,-1.3339999914169312,-9.869000434875488,0.1720000058412551
1622113725864,7.769999980926514,21.83099937438965,-6.1020002365112305,-1.3339999914169312,-9.998000144958496,0.2290000021457672
1622113725874,5.53000020980835,22.87700080871582,-5.98799991607666,-1.3339999914169312,-10.08899974822998,0.2919999957084655
1622113725884,4.550000190734863,23.46699905395508,-6.310500144958496,-1.3730000257492063,-9.998000144958496,0.2290000021457672
1622113725894,3.569999933242798,24.05699920654297,-6.632999897003174,-1.4119999408721924,-9.960000038146973,0.2349999994039535
1622113725904,1.6100000143051147,25.545000076293945,-7.011000156402588,-1.3339999914169312,-9.913999557495115,0.2039999961853027
1622113725914,-0.3499999940395355,27.20400047302246,-7.144999980926514,-1.215999960899353,-9.829999923706056,0.1790000051259994
1622113725924,-1.8200000524520872,28.339000701904297,-6.730999946594238,-1.1770000457763672,-9.661999702453612,0.1289999932050705
1622113725934,-2.869999885559082,28.70800018310547,-6.808000087738037,-1.0980000495910645,-9.616999626159668,0.0970000028610229
1622113725944,-2.940000057220459,29.260000228881836,-6.710999965667725,-1.0199999809265137,-9.616999626159668,0.0970000028610229
1622113725954,-2.7300000190734863,29.260000228881836,-5.502999782562256,-0.9409999847412108,-9.647999763488768,0.0509999990463256
1622113725964,-2.5199999809265137,29.121999740600582,-5.5269999504089355,-0.9020000100135804,-9.68000030517578,0.006000000052154
1622113725974,-1.8899999856948853,28.809999465942383,-5.36899995803833,-0.8240000009536743,-9.628000259399414,-0.0649999976158142
1622113725984,-1.190000057220459,28.44499969482422,-5.7170000076293945,-0.8240000009536743,-9.621000289916992,-0.1030000001192092
1622113725994,0.0700000002980232,28.20599937438965,-5.9730000495910645,-0.7850000262260437,-9.621000289916992,-0.1030000001192092
1622113726004,1.1200000047683716,27.73500061035156,-6.126999855041504,-0.7850000262260437,-9.58899974822998,-0.0579999983310699
1622113726014,2.7300000190734863,27.76799964904785,-5.9079999923706055,-0.8629999756813049,-9.58199977874756,-0.096000000834465
1622113726024,4.340000152587891,27.864999771118164,-5.250999927520752,-0.981000006198883,-9.635000228881836,-0.0260000005364418
1622113726034,5.460000038146973,28.295000076293945,-4.464000225067139,-1.0980000495910645,-9.704999923706056,-0.0780000016093254
1622113726044,6.230000019073486,29.881000518798828,-4.184999942779541,-1.2940000295639038,-9.807000160217283,-0.1759999990463256
1622113726054,6.650000095367432,32.244998931884766,-4.691999912261963,-1.4119999408721924,-9.859999656677246,-0.1049999967217445
1622113726064,6.230000019073486,34.65299987792969,-5.048999786376953,-1.4509999752044678,-9.859999656677246,-0.1049999967217445
1622113726074,5.320000171661377,37.374000549316406,-5.565000057220459,-1.491000056266785,-9.944000244140623,-0.0799999982118606
1622113726084,4.619999885559082,38.40599822998047,-5.77400016784668,-1.491000056266785,-9.944000244140623,-0.0799999982118606
1622113726094,3.9200000762939458,39.4379997253418,-5.982999801635742,-1.491000056266785,-9.897999763488768,-0.1120000034570694
1622113726104,2.7300000190734863,41.85499954223633,-5.982999801635742,-1.491000056266785,-9.82800006866455,-0.0599999986588954
1622113726114,1.6100000143051147,43.577999114990234,-5.678999900817871,-1.4119999408721924,-9.652999877929688,-0.1490000039339065
1622113726124,0.8399999737739563,45.54499816894531,-5.545000076293945,-1.491000056266785,-9.576000213623049,-0.135000005364418
1622113726134,0.6299999952316284,47.52399826049805,-4.271999835968018,-1.687000036239624,-9.569000244140623,-0.1739999949932098
1622113726144,0.6299999952316284,49.053001403808594,-2.865999937057495,-2.000999927520752,-9.638999938964846,-0.2259999960660934
1622113726154,0.9100000262260436,52.2599983215332,-2.513000011444092,-2.3540000915527344,-9.645999908447264,-0.1870000064373016
1622113726164,1.399999976158142,57.70600128173828,-2.760999917984009,-2.5889999866485596,-9.711999893188477,-0.0399999991059303
1622113726174,1.8899999856948853,65.96600341796875,-3.651000022888184,-2.864000082015991,-9.79599952697754,-0.0149999996647238
1622113726184,2.1700000762939453,76.447998046875,-4.645999908447266,-2.9809999465942383,-9.79599952697754,-0.0149999996647238
1622113726194,2.0299999713897705,87.91200256347656,-4.756999969482422,-2.9809999465942383,-9.835000038146973,-0.0209999997168779
1622113726204,1.190000057220459,99.63500213623048,-4.323999881744385,-2.864000082015991,-9.880000114440918,0.0099999997764825
1622113726214,-0.0700000002980232,110.09700012207033,-1.98199999332428,-2.7850000858306885,-9.918999671936035,0.0040000001899898
1622113726224,-2.450000047683716,119.7030029296875,0.777999997138977,-2.6670000553131104,-9.932000160217283,0.0810000002384185
1622113726234,-4.199999809265137,127.75299835205078,1.4869999885559082,-2.549999952316284,-9.970999717712402,0.0740000009536743
1622113726244,-6.369999885559082,135.05499267578125,-0.4239999949932098,-2.3540000915527344,-9.970999717712402,0.0740000009536743
1622113726254,-8.260000228881836,140.58200073242188,-3.1459999084472656,-2.0399999618530273,-9.96399974822998,0.0350000001490116
1622113726264,-10.079999923706056,144.3159942626953,-6.184000015258789,-1.72599995136261,-9.918999671936035,0.0040000001899898
1622113726274,-11.340000152587892,146.1649932861328,-8.20300006866455,-1.4509999752044678,-9.835000038146973,-0.0209999997168779
1622113726284,-12.390000343322754,147.39300537109375,-10.33199977874756,-1.1380000114440918,-9.814000129699709,-0.1369999945163726
1622113726294,-13.859999656677246,147.53900146484375,-13.576000213623049,-0.9409999847412108,-9.845999717712402,-0.1829999983310699
1622113726304,-14.875,147.45550537109375,-15.72350025177002,-0.7059999704360961,-9.800999641418455,-0.2150000035762786
1622113726314,-15.890000343322754,147.3719940185547,-17.871000289916992,-0.3529999852180481,-9.772999763488768,-0.3689999878406524
1622113726324,-18.479999542236328,145.55099487304688,-22.457000732421875,-0.1180000007152557,-9.675999641418455,-0.4709999859333038
1622113726334,-21.0,142.78500366210938,-25.715999603271484,0.1180000007152557,-9.647999763488768,-0.6259999871253967
1622113726344,-22.81999969482422,138.53500366210938,-26.607999801635746,0.2750000059604644,-9.595999717712402,-0.6959999799728394
1622113726354,-23.940000534057617,133.23500061035156,-25.979000091552734,0.3919999897480011,-9.467000007629396,-0.7530000209808348
1622113726364,-24.290000915527344,128.0330047607422,-25.900999069213867,0.4309999942779541,-9.407999992370604,-0.8619999885559082
1622113726374,-24.36000061035156,122.7689971923828,-26.687000274658203,0.5490000247955322,-9.31700038909912,-0.9259999990463256
1622113726384,-24.5,118.26799774169922,-27.76499938964844,0.7059999704360961,-9.211999893188477,-1.0670000314712524
1622113726394,-24.5,113.77500152587892,-27.277999877929688,0.8240000009536743,-9.152999877929688,-1.1759999990463257
1622113726404,-24.079999923706055,109.49299621582033,-24.76300048828125,0.9020000100135804,-9.069000244140623,-1.2009999752044678
1622113726414,-22.81999969482422,104.98500061035156,-21.36400032043457,0.9409999847412108,-8.9399995803833,-1.2580000162124634
1622113726424,-21.350000381469727,100.55699920654295,-18.02199935913086,0.981000006198883,-8.925999641418457,-1.3350000381469729
1622113726434,-20.15999984741211,95.8209991455078,-14.947999954223633,0.981000006198883,-8.951000213623047,-1.4190000295639038
1622113726444,-19.11000061035156,91.78299713134764,-13.812000274658203,0.9409999847412108,-9.053000450134276,-1.5169999599456787
1622113726454,-17.850000381469727,87.69499969482422,-13.609000205993652,0.9409999847412108,-9.07800006866455,-1.60099995136261
1622113726464,-15.960000038146973,83.8270034790039,-13.437999725341797,0.9020000100135804,-9.102999687194824,-1.684999942779541
1622113726474,-14.350000381469728,79.21299743652344,-12.26099967956543,0.8629999756813049,-9.14900016784668,-1.6529999971389773
1622113726484,-12.31999969482422,74.8740005493164,-8.619000434875488,0.7850000262260437,-9.173999786376951,-1.7369999885559082
1622113726494,-10.640000343322754,70.13899993896484,-4.335999965667725,0.6669999957084655,-9.218999862670898,-1.7050000429153442
1622113726504,-9.029999732971191,65.7760009765625,-0.5569999814033508,0.5490000247955322,-9.29599952697754,-1.718999981880188
1622113726514,-8.329999923706055,61.12900161743164,2.818000078201294,0.4309999942779541,-9.444000244140623,-1.7849999666213987
1622113726524,-8.050000190734863,59.09600067138672,4.271999835968018,0.3529999852180481,-9.592000007629396,-1.85099995136261
1622113726534,-7.769999980926514,57.0629997253418,5.72599983215332,0.2349999994039535,-9.637000083923342,-1.819000005722046
1622113726544,-6.579999923706055,52.89799880981445,7.9770002365112305,0.1180000007152557,-9.651000022888184,-1.7419999837875366
1622113726554,-5.25,48.46699905395508,9.32800006866455,0.0,-9.619000434875488,-1.6959999799728394
1622113726564,-3.430000066757202,44.25,11.071999549865724,-0.2349999994039535,-9.62600040435791,-1.656999945640564
1622113726574,-1.8200000524520872,39.99599838256836,11.8149995803833,-0.4709999859333038,-9.6850004196167,-1.5479999780654907
1622113726584,0.0700000002980232,37.09700012207031,11.729999542236328,-0.6280000209808348,-9.76900005340576,-1.5230000019073486
1622113726594,1.6799999475479126,34.95100021362305,10.996000289916992,-0.7059999704360961,-9.857999801635742,-1.6979999542236328
1622113726604,2.7300000190734863,32.58700180053711,10.295000076293944,-0.7850000262260437,-9.954999923706056,-1.5959999561309814
1622113726614,3.2200000286102295,30.15800094604492,10.36400032043457,-0.8629999756813049,-9.994000434875488,-1.6030000448226929
1622113726624,3.2200000286102295,27.923999786376953,10.538999557495115,-0.9020000100135804,-9.961999893188477,-1.5570000410079956
1622113726634,2.450000047683716,25.361000061035156,10.157999992370604,-0.981000006198883,-9.923999786376951,-1.5509999990463257
1622113726644,2.309999942779541,22.98900032043457,9.100000381469728,-0.981000006198883,-9.892000198364256,-1.5049999952316284
1622113726654,1.6100000143051147,20.969999313354492,8.460000038146973,-1.0590000152587893,-9.852999687194824,-1.4980000257492063
1622113726664,0.9800000190734864,18.836000442504883,5.239999771118164,-1.215999960899353,-9.859999656677246,-1.4600000381469729
1622113726674,0.8399999737739563,18.722000122070312,2.6619999408721924,-1.2940000295639038,-9.75100040435791,-1.4010000228881836
1622113726684,0.4199999868869781,19.14800071716309,1.4570000171661377,-1.2940000295639038,-9.711999893188477,-1.3940000534057615
1622113726694,-0.4199999868869781,19.440000534057617,1.0110000371932983,-1.215999960899353,-9.711999893188477,-1.3940000534057615
1622113726704,-1.5399999618530271,19.63800048828125,0.6909999847412109,-1.2549999952316284,-9.652999877929688,-1.503000020980835
1622113726714,-2.6600000858306885,19.517000198364254,0.1720000058412551,-1.2549999952316284,-9.652999877929688,-1.503000020980835
1622113726724,-3.7799999713897705,19.517000198364254,0.1720000058412551,-1.1770000457763672,-9.65999984741211,-1.4639999866485596
1622113726734,-5.460000038146973,19.176000595092773,0.8930000066757202,-1.0980000495910645,-9.652999877929688,-1.503000020980835
1622113726744,-6.055000305175781,19.15800094604492,0.996500015258789,-1.0590000152587893,-9.60099983215332,-1.5729999542236328
1622113726754,-6.650000095367432,19.13999938964844,1.100000023841858,-1.0199999809265137,-9.517000198364256,-1.5980000495910645
1622113726764,-7.420000076293945,18.406000137329105,0.8289999961853027,-1.0199999809265137,-9.470999717712402,-1.6299999952316284
1622113726774,-8.539999961853027,17.586000442504883,-0.1689999997615814,-1.0590000152587893,-9.425999641418455,-1.6619999408721924
1622113726784,-9.100000381469728,16.856000900268555,-0.8659999966621398,-1.0199999809265137,-9.43299961090088,-1.6230000257492063
1622113726794,-10.289999961853027,15.789999961853027,-1.2669999599456787,-1.0199999809265137,-9.425999641418455,-1.6619999408721924
1622113726804,-10.779999732971191,13.887999534606934,-0.9629999995231628,-1.0199999809265137,-9.458000183105469,-1.7070000171661377
1622113726814,-11.130000114440918,11.946000099182127,-1.2339999675750732,-1.0199999809265137,-9.548999786376951,-1.6440000534057615
1622113726824,-10.359999656677246,10.243000030517578,-1.25,-1.0590000152587893,-9.46500015258789,-1.6690000295639038
1622113726834,-9.9399995803833,8.276000022888184,-1.383999943733215,-1.1770000457763672,-9.37399959564209,-1.7319999933242798
1622113726844,-9.520000457763674,6.552999973297119,-1.687999963760376,-1.215999960899353,-9.404999732971191,-1.7779999971389773
1622113726854,-8.75,5.440999984741211,-2.239000082015991,-1.2940000295639038,-9.404999732971191,-1.7779999971389773
1622113726864,-8.1899995803833,4.241000175476074,-3.0899999141693115,-1.4509999752044678,-9.444000244140623,-1.7849999666213987
1622113726874,-7.559999942779541,3.552000045776367,-4.420000076293945,-1.491000056266785,-9.437000274658203,-1.8229999542236328
1622113726884,-6.510000228881836,2.753000020980835,-5.130000114440918,-1.491000056266785,-9.437000274658203,-1.8229999542236328
1622113726894,-5.110000133514404,1.337000012397766,-5.165999889373779,-1.5299999713897705,-9.404999732971191,-1.7779999971389773
1622113726904,-3.6400001049041744,-0.2849999964237213,-5.238999843597412,-1.491000056266785,-9.37399959564209,-1.7319999933242798
1622113726914,-1.8899999856948853,-2.619999885559082,-5.295000076293945,-1.4509999752044678,-9.28999996185303,-1.756999969482422
1622113726924,-1.0499999523162842,-3.8589999675750737,-5.122499942779541,-1.4119999408721924,-9.258000373840332,-1.712000012397766
1622113726934,-0.209999993443489,-5.0980000495910645,-4.949999809265137,-1.3730000257492063,-9.258000373840332,-1.712000012397766
1622113726944,1.2599999904632568,-7.4660000801086435,-5.22599983215332,-1.4509999752044678,-9.354999542236328,-1.6100000143051147
1622113726954,3.009999990463257,-9.307000160217283,-5.265999794006348,-1.569000005722046,-9.362000465393066,-1.5709999799728394
1622113726964,4.550000190734863,-10.782999992370604,-6.165999889373779,-1.6080000400543213,-9.260000228881836,-1.4730000495910645
1622113726974,6.300000190734863,-12.243000030517578,-7.560999870300293,-1.6080000400543213,-9.260000228881836,-1.4730000495910645
1622113726984,7.630000114440918,-13.114999771118164,-7.85699987411499,-1.5299999713897705,-9.28499984741211,-1.5579999685287476
1622113726994,8.75,-14.371999740600586,-7.580999851226807,-1.4509999752044678,-9.329999923706056,-1.5260000228881836
1622113727004,9.100000381469728,-16.309999465942383,-7.070000171661377,-1.3730000257492063,-9.446000099182127,-1.5460000038146973
1622113727014,9.029999732971191,-19.277999877929688,-5.958000183105469,-1.3730000257492063,-9.484999656677246,-1.5529999732971191
1622113727024,9.170000076293944,-21.979000091552734,-3.947000026702881,-1.4119999408721924,-9.529999732971191,-1.5210000276565552
1622113727034,9.65999984741211,-24.698999404907227,-2.2230000495910645,-1.4119999408721924,-9.42099952697754,-1.462000012397766
1622113727044,10.640000343322754,-27.52899932861328,-1.087000012397766,-1.4119999408721924,-9.35099983215332,-1.4099999666213987
1622113727054,11.760000228881836,-30.566999435424805,0.0120000001043081,-1.4119999408721924,-9.279999732971191,-1.3580000400543213
1622113727063,13.020000457763672,-33.36000061035156,0.9409999847412108,-1.4119999408721924,-9.17099952697754,-1.2979999780654907
1622113727073,14.06999969482422,-35.52899932861328,2.76200008392334,-1.3730000257492063,-9.20300006866455,-1.343999981880188
1622113727083,15.050000190734863,-38.20500183105469,4.636000156402588,-1.3730000257492063,-9.279999732971191,-1.3580000400543213
1622113727093,15.75,-40.79600143432618,6.0269999504089355,-1.3730000257492063,-9.357999801635742,-1.3710000514984133
1622113727103,15.645000457763672,-42.48500061035156,6.937999725341797,-1.2549999952316284,-9.473999977111816,-1.3919999599456787
1622113727113,15.539999961853027,-44.17399978637695,7.848999977111816,-1.2940000295639038,-9.52400016784668,-1.559999942779541
1622113727123,14.279999732971191,-47.064998626708984,9.32900047302246,-1.0980000495910645,-9.536999702453612,-1.4830000400543213
1622113727133,12.949999809265137,-50.625,10.97599983215332,-1.0199999809265137,-9.470999717712402,-1.6299999952316284
1622113727143,12.039999961853027,-54.099998474121094,12.140000343322754,-0.9409999847412108,-9.52400016784668,-1.559999942779541
1622113727153,10.43000030517578,-58.0369987487793,12.298999786376951,-0.9020000100135804,-9.607999801635742,-1.5349999666213987
1622113727163,8.399999618530273,-61.507999420166016,13.036999702453612,-0.9020000100135804,-9.699000358581545,-1.4709999561309814
1622113727173,6.440000057220459,-64.18900299072266,12.920000076293944,-0.8629999756813049,-9.699000358581545,-1.4709999561309814
1622113727183,4.059999942779541,-67.08799743652344,12.835000038146973,-0.9020000100135804,-9.80799961090088,-1.5299999713897705
1622113727193,1.6100000143051147,-69.4800033569336,12.697999954223633,-0.9020000100135804,-9.80799961090088,-1.5299999713897705
1622113727203,-1.399999976158142,-70.2020034790039,12.357000350952148,-0.9409999847412108,-9.76900005340576,-1.5230000019073486
1622113727213,-4.550000190734863,-70.2750015258789,11.562000274658203,-0.9020000100135804,-9.699000358581545,-1.4709999561309814
1622113727223,-7.280000209808349,-70.01200103759766,9.262999534606934,-0.9020000100135804,-9.543999671936035,-1.444000005722046
1622113727233,-8.680000305175781,-69.4000015258789,6.598999977111816,-0.8240000009536743,-9.35099983215332,-1.4099999666213987
1622113727243,-9.239999771118164,-68.53299713134766,3.696000099182129,-0.7059999704360961,-9.16499996185303,-1.337000012397766
1622113727253,-9.59000015258789,-66.91500091552734,0.5690000057220459,-0.6280000209808348,-9.079999923706056,-1.3619999885559082
1622113727263,-9.59000015258789,-64.822998046875,-1.6210000514984133,-0.6280000209808348,-9.12600040435791,-1.3300000429153442
1622113727273,-9.520000457763674,-63.34349822998047,-3.563499927520752,-0.6669999957084655,-9.36400032043457,-1.3329999446868896
1622113727283,-9.449999809265137,-61.86399841308594,-5.50600004196167,-0.5879999995231628,-9.65999984741211,-1.4639999866485596
1622113727293,-9.239999771118164,-57.95100021362305,-9.152000427246092,-0.4709999859333038,-10.064000129699709,-1.6549999713897705
1622113727303,-9.729999542236328,-54.05099868774414,-12.729000091552734,-0.3140000104904174,-10.404999732971191,-1.7549999952316284
1622113727313,-10.989999771118164,-50.929000854492195,-15.519000053405762,-0.0780000016093254,-10.578000068664553,-1.9049999713897705
1622113727323,-12.949999809265137,-48.220001220703125,-17.173999786376953,0.1180000007152557,-10.711999893188477,-2.0480000972747803
1622113727333,-16.309999465942383,-46.00199890136719,-16.854000091552734,0.2349999994039535,-10.852999687194824,-2.1530001163482666
1622113727343,-20.510000228881836,-42.875999450683594,-15.237000465393066,0.2750000059604644,-11.071000099182127,-2.2709999084472656
1622113727353,-24.219999313354492,-38.51599884033203,-13.756999969482422,0.3140000104904174,-11.187000274658203,-2.2909998893737793
1622113727363,-26.11000061035156,-33.426998138427734,-12.788999557495115,0.3140000104904174,-11.064000129699709,-2.309000015258789
1622113727373,-25.690000534057617,-29.586999893188477,-12.395999908447266,0.4309999942779541,-10.857999801635742,-2.3529999256134033
1622113727383,-22.81999969482422,-26.79700088500977,-11.690999984741213,0.5490000247955322,-10.579999923706056,-2.3440001010894775
1622113727393,-18.40999984741211,-25.822999954223633,-8.746999740600586,0.7059999704360961,-10.380000114440918,-2.3480000495910645
1622113727403,-13.300000190734863,-26.073999404907227,-5.308000087738037,0.8240000009536743,-10.187000274658203,-2.313999891281128
1622113727413,-8.470000267028809,-27.315000534057617,-1.9019999504089355,0.8240000009536743,-10.032999992370604,-2.2869999408721924
1622113727423,-4.269999980926514,-29.350000381469727,-0.8389999866485595,0.8240000009536743,-9.595999717712402,-2.0510001182556152
1622113727433,-0.9100000262260436,-31.000999450683594,-1.5570000410079956,0.7850000262260437,-9.602999687194824,-2.01200008392334
1622113727443,-0.070000022649765,-32.03099822998047,-1.561000108718872,0.7450000047683715,-9.673999786376951,-2.063999891281128
1622113727453,0.7699999809265136,-33.06100082397461,-1.565000057220459,0.7850000262260437,-9.711999893188477,-2.071000099182129
1622113727463,0.3499999940395355,-34.95399856567383,-0.902999997138977,0.8629999756813049,-9.718999862670898,-2.0320000648498535
1622113727473,-1.2599999904632568,-36.96500015258789,0.0209999997168779,0.9409999847412108,-9.642000198364256,-2.0190000534057617
1622113727483,-3.5,-40.17300033569336,0.8769999742507933,1.0980000495910645,-9.553000450134276,-1.843999981880188
1622113727493,-6.579999923706055,-44.875999450683594,1.7539999485015867,1.215999960899353,-9.541999816894531,-1.6820000410079956
1622113727503,-9.380000114440918,-50.65900039672851,1.0900000333786013,1.1770000457763672,-9.517000198364256,-1.5980000495910645
1622113727513,-11.619999885559082,-56.85900115966797,-1.6380000114440918,1.0980000495910645,-9.460000038146973,-1.468999981880188
1622113727523,-13.510000228881836,-63.97200012207031,-6.447000026702881,1.0590000152587893,-9.44200038909912,-1.3459999561309814
1622113727533,-14.909999847412108,-71.55999755859375,-12.19200038909912,0.981000006198883,-9.402999877929688,-1.3389999866485596
1622113727543,-16.170000076293945,-78.21099853515625,-17.202999114990234,0.8240000009536743,-9.416999816894531,-1.2619999647140503
1622113727553,-17.56999969482422,-83.88400268554688,-19.695999145507812,0.6669999957084655,-9.385000228881836,-1.2170000076293943
1622113727563,-19.040000915527344,-88.17500305175781,-21.163000106811523,0.4709999859333038,-9.345999717712402,-1.2100000381469729
1622113727573,-21.13999938964844,-91.78399658203124,-21.656999588012695,0.2349999994039535,-9.416999816894531,-1.2619999647140503
1622113727583,-23.309999465942383,-93.44200134277344,-22.731000900268555,0.0390000008046627,-9.654999732971191,-1.2640000581741333
1622113727593,-24.709999084472656,-92.96399688720705,-24.636999130249023,-0.0780000016093254,-9.777999877929688,-1.2460000514984133
1622113727603,-24.5,-91.3499984741211,-26.1299991607666,-0.1570000052452087,-9.862000465393066,-1.2209999561309814
1622113727613,-24.185001373291016,-90.86949920654298,-26.43600082397461,-0.1959999948740005,-9.829999923706056,-1.1759999990463257
1622113727623,-23.8700008392334,-90.38899993896484,-26.742000579833984,-0.3140000104904174,-9.907999992370604,-1.1890000104904177
1622113727633,-22.75,-89.48500061035156,-26.22699928283691,-0.4709999859333038,-9.93299961090088,-1.2730000019073486
1622113727643,-22.049999237060547,-86.84100341796875,-25.902999877929688,-0.6280000209808348,-9.96399974822998,-1.319000005722046
1622113727653,-21.06999969482422,-82.96900177001953,-25.29199981689453,-0.7450000047683715,-9.925999641418455,-1.312000036239624
1622113727663,-19.739999771118164,-77.98100280761719,-25.76300048828125,-0.7850000262260437,-9.842000007629396,-1.337000012397766
1622113727673,-18.1299991607666,-73.28900146484375,-25.36199951171875,-0.8240000009536743,-9.803000450134276,-1.3300000429153442
1622113727683,-16.59000015258789,-68.06999969482422,-23.51799964904785,-0.9020000100135804,-9.711999893188477,-1.3940000534057615
1622113727693,-15.119999885559082,-64.2750015258789,-20.857999801635746,-0.9409999847412108,-9.718999862670898,-1.3550000190734863
1622113727703,-13.859999656677246,-60.32899856567382,-19.451000213623047,-1.0199999809265137,-9.642000198364256,-1.3420000076293943
1622113727713,-12.739999771118164,-56.08700180053711,-18.91699981689453,-1.0980000495910645,-9.673999786376951,-1.3869999647140503
1622113727723,-11.829999923706056,-51.6870002746582,-18.06999969482422,-1.1380000114440918,-9.673999786376951,-1.3869999647140503
1622113727733,-11.0600004196167,-47.38899993896485,-17.45400047302246,-1.215999960899353,-9.666999816894531,-1.4259999990463257
1622113727743,-10.43000030517578,-43.28900146484375,-16.51799964904785,-1.1770000457763672,-9.583000183105469,-1.4509999752044678
1622113727753,-9.59000015258789,-39.63199996948242,-16.299999237060547,-1.1380000114440918,-9.517000198364256,-1.5980000495910645
1622113727763,-8.75,-36.24599838256836,-16.555999755859375,-1.1380000114440918,-9.425999641418455,-1.6619999408721924
1622113727773,-7.9099998474121085,-33.0260009765625,-16.27199935913086,-1.0199999809265137,-9.354999542236328,-1.6100000143051147
1622113727783,-7.139999866485596,-29.643999099731445,-16.101999282836914,-0.981000006198883,-9.348999977111816,-1.6480000019073486
1622113727793,-6.474999904632568,-28.35849952697754,-15.73349952697754,-0.8240000009536743,-9.380000114440918,-1.694000005722046
1622113727803,-5.809999942779541,-27.072999954223633,-15.364999771118164,-0.7450000047683715,-9.380000114440918,-1.694000005722046
1622113727813,-4.829999923706055,-25.406000137329105,-13.93299961090088,-0.6669999957084655,-9.418999671936035,-1.7009999752044678
1622113727823,-3.849999904632568,-24.01499938964844,-12.550999641418455,-0.6669999957084655,-9.380000114440918,-1.694000005722046
1622113727833,-3.2899999618530273,-23.281000137329105,-11.071000099182127,-0.6669999957084655,-9.444000244140623,-1.7849999666213987
1622113727843,-2.940000057220459,-22.583999633789062,-10.593000411987305,-0.6669999957084655,-9.520999908447264,-1.7979999780654907
1622113727853,-2.869999885559082,-21.711999893188477,-10.296999931335447,-0.7059999704360961,-9.638999938964846,-1.5800000429153442
1622113727863,-3.569999933242798,-20.76300048828125,-9.63199996948242,-0.7850000262260437,-9.663999557495115,-1.6640000343322754
1622113727873,-3.7799999713897705,-19.768999099731445,-8.817000389099121,-0.7850000262260437,-9.67099952697754,-1.6260000467300415
1622113727883,-3.990000009536743,-19.30299949645996,-8.237000465393066,-0.8240000009536743,-9.638999938964846,-1.5800000429153442
1622113727893,-3.7100000381469727,-19.56599998474121,-8.354999542236328,-0.8629999756813049,-9.593999862670898,-1.6119999885559082
1622113727903,-2.940000057220459,-19.64800071716309,-8.29800033569336,-0.8240000009536743,-9.52400016784668,-1.559999942779541
1622113727913,-1.2599999904632568,-19.97599983215332,-8.852999687194824,-0.8629999756813049,-9.49899959564209,-1.47599995136261
1622113727923,1.0499999523162842,-20.843999862670895,-9.574999809265137,-0.9020000100135804,-9.473999977111816,-1.3919999599456787
1622113727933,3.430000066757202,-21.88999938964844,-10.897000312805176,-0.9409999847412108,-9.44200038909912,-1.3459999561309814
1622113727943,4.900000095367432,-23.114999771118164,-11.609999656677246,-1.0199999809265137,-9.40999984741211,-1.3009999990463257
1622113727953,5.039999961853027,-23.503999710083008,-11.821000099182127,-1.0980000495910645,-9.454999923706056,-1.2690000534057615
1622113727963,4.269999980926514,-22.981000900268555,-12.369000434875488,-1.0980000495910645,-9.423999786376951,-1.2230000495910645
1622113727973,3.430000066757202,-22.187000274658203,-12.44200038909912,-1.0980000495910645,-9.423999786376951,-1.2230000495910645
1622113727983,3.1500000953674316,-21.468999862670895,-12.883999824523926,-1.0980000495910645,-9.378000259399414,-1.2549999952316284
1622113727993,3.5350000858306885,-21.28849983215332,-13.10099983215332,-1.1380000114440918,-9.33899974822998,-1.2480000257492063
1622113728003,3.9200000762939458,-21.107999801635746,-13.317999839782717,-1.0980000495910645,-9.1850004196167,-1.2209999561309814
1622113728013,4.409999847412109,-20.82799911499023,-13.69499969482422,-1.0199999809265137,-9.107999801635742,-1.2079999446868896
1622113728023,5.670000076293945,-20.593000411987305,-14.222000122070312,-0.9409999847412108,-9.114999771118164,-1.1690000295639038
1622113728033,7.420000076293945,-20.099000930786133,-15.413999557495115,-0.9020000100135804,-9.145999908447264,-1.2139999866485596
1622113728043,7.630000114440918,-20.131000518798828,-16.841999053955078,-0.9409999847412108,-9.255000114440918,-1.2730000019073486
1622113728053,5.880000114440918,-18.78499984741211,-19.233999252319336,-1.0199999809265137,-9.44200038909912,-1.3459999561309814
1622113728063,4.130000114440918,-15.001999855041504,-21.339000701904297,-1.0199999809265137,-9.583000183105469,-1.4509999752044678
1622113728073,3.009999990463257,-11.041000366210938,-21.63599967956543,-1.0199999809265137,-9.69200038909912,-1.5099999904632568
1622113728083,2.1700000762939453,-8.194000244140625,-19.641000747680664,-1.0199999809265137,-9.76900005340576,-1.5230000019073486
1622113728093,1.4700000286102295,-5.581999778747559,-17.118999481201172,-1.0199999809265137,-9.845999717712402,-1.5369999408721924
1622113728103,1.399999976158142,-3.197000026702881,-14.921999931335447,-1.0590000152587893,-9.852999687194824,-1.4980000257492063
1622113728113,2.0999999046325684,-1.3519999980926514,-12.890999794006348,-1.0590000152587893,-9.782999992370604,-1.4459999799728394
1622113728123,3.569999933242798,0.3389999866485595,-11.597000122070312,-1.0980000495910645,-9.788999557495115,-1.406999945640564
1622113728133,4.760000228881836,1.8070000410079956,-11.053999900817873,-1.1770000457763672,-9.711999893188477,-1.3940000534057615
1622113728143,5.389999866485596,3.6319999694824214,-10.519000053405762,-1.215999960899353,-9.737000465393066,-1.4780000448226929
1622113728153,5.460000038146973,5.565999984741211,-9.395999908447264,-1.2549999952316284,-9.80799961090088,-1.5299999713897705
1622113728163,5.320000171661377,6.989999771118164,-6.585999965667725,-1.2940000295639038,-9.814000129699709,-1.4919999837875366
1622113728173,4.480000019073486,8.324000358581543,-4.076000213623047,-1.3339999914169312,-9.80799961090088,-1.5299999713897705
1622113728183,3.7100000381469727,9.293999671936035,-1.9149999618530271,-1.3339999914169312,-9.821000099182127,-1.4529999494552612
1622113728193,3.1500000953674316,9.61050033569336,-0.6864999532699585,-1.3730000257492063,-9.704999923706056,-1.4320000410079956
1622113728203,2.5899999141693115,9.927000045776367,0.5419999957084655,-1.4119999408721924,-9.635000228881836,-1.3799999952316284
1622113728213,1.190000057220459,10.44200038909912,2.053999900817871,-1.4509999752044678,-9.635000228881836,-1.3799999952316284
1622113728223,0.0,10.324000358581545,3.5260000228881836,-1.4509999752044678,-9.55799961090088,-1.3669999837875366
1622113728233,-0.9100000262260436,9.656000137329102,4.901000022888184,-1.5299999713897705,-9.473999977111816,-1.3919999599456787
1622113728243,-2.380000114440918,9.14099979400635,7.013999938964844,-1.569000005722046,-9.357999801635742,-1.3710000514984133
1622113728253,-3.359999895095825,8.524999618530273,8.895000457763672,-1.72599995136261,-9.1899995803833,-1.4210000038146973
1622113728263,-3.990000009536743,7.848000049591064,9.913000106811523,-1.7649999856948853,-9.151000022888184,-1.4140000343322754
1622113728273,-4.829999923706055,7.5229997634887695,10.140000343322754,-1.843999981880188,-9.196000099182127,-1.3830000162124634
1622113728283,-5.53000020980835,7.406000137329101,10.404000282287598,-1.9220000505447388,-9.071000099182127,-1.6390000581741333
1622113728293,-6.71999979019165,7.276000022888184,10.737000465393066,-1.9609999656677248,-9.04599952697754,-1.5549999475479126
1622113728303,-7.349999904632568,7.013000011444092,10.619000434875488,-2.0399999618530273,-9.015000343322754,-1.5099999904632568
1622113728313,-7.420000076293945,6.50600004196167,9.463000297546388,-2.118000030517578,-8.968999862670898,-1.5420000553131104
1622113728323,-6.230000019073486,6.910999774932861,9.18000030517578,-2.1570000648498535,-9.085000038146973,-1.562000036239624
1622113728333,-5.320000171661377,6.603000164031982,8.911999702453613,-2.236000061035156,-9.130000114440918,-1.5299999713897705
1622113728343,-3.9200000762939458,6.307000160217285,8.574999809265137,-2.2750000953674316,-9.168999671936035,-1.5369999408721924
1622113728353,-2.380000114440918,5.5320000648498535,7.728000164031982,-2.3540000915527344,-9.161999702453612,-1.5759999752044678
1622113728363,-1.399999976158142,5.625,6.394000053405762,-2.3929998874664307,-9.194000244140623,-1.6210000514984133
1622113728373,0.0700000002980232,5.559999942779541,4.748000144958496,-2.431999921798706,-9.303000450134276,-1.6799999475479126
1622113728383,1.0499999523162842,5.609000205993652,3.263000011444092,-2.4709999561309814,-9.380000114440918,-1.694000005722046
1622113728393,2.0999999046325684,5.892000198364258,1.2519999742507937,-2.4709999561309814,-9.451000213623049,-1.7460000514984133
1622113728403,2.554999828338623,5.739999771118164,0.3009999990463256,-2.4709999561309814,-9.496000289916992,-1.7139999866485596
1622113728413,3.009999990463257,5.5879998207092285,-0.649999976158142,-2.510999917984009,-9.458000183105469,-1.7070000171661377
1622113728423,3.849999904632568,5.385000228881836,-2.319999933242798,-2.4709999561309814,-9.458000183105469,-1.7070000171661377
1622113728433,4.199999809265137,4.909999847412109,-4.465000152587891,-2.4709999561309814,-9.411999702453612,-1.7389999628067017
1622113728443,4.550000190734863,4.78000020980835,-5.341000080108643,-2.510999917984009,-9.451000213623049,-1.7460000514984133
1622113728453,4.690000057220459,4.921999931335449,-5.743000030517578,-2.4709999561309814,-9.496000289916992,-1.7139999866485596
1622113728463,5.039999961853027,5.360000133514404,-7.015999794006348,-2.4709999561309814,-9.53499984741211,-1.7209999561309814
1622113728473,5.599999904632568,5.668000221252441,-7.956999778747559,-2.4709999561309814,-9.579999923706056,-1.6890000104904177
1622113728483,6.300000190734863,6.341000080108643,-9.75699996948242,-2.3929998874664307,-9.593999862670898,-1.6119999885559082
1622113728493,7.280000209808349,7.455999851226807,-10.840000152587892,-2.3929998874664307,-9.638999938964846,-1.5800000429153442
1622113728503,7.8400001525878915,8.274999618530273,-12.258999824523926,-2.313999891281128,-9.607999801635742,-1.5349999666213987
1622113728513,8.609999656677246,8.638999938964844,-13.119000434875488,-2.313999891281128,-9.645999908447264,-1.5420000553131104
1622113728523,9.100000381469728,9.048999786376951,-13.82900047302246,-2.2750000953674316,-9.729999542236328,-1.5169999599456787
1622113728533,9.100000381469728,9.527000427246092,-13.317999839782717,-2.197000026702881,-9.814000129699709,-1.4919999837875366
1622113728543,8.890000343322754,10.107000350952148,-12.576000213623049,-2.197000026702881,-9.744000434875488,-1.4390000104904177
1622113728553,9.170000076293944,10.593999862670898,-11.708000183105469,-2.118000030517578,-9.75100040435791,-1.4010000228881836
1622113728563,9.100000381469728,11.54300022125244,-12.251999855041504,-2.0399999618530273,-9.673999786376951,-1.3869999647140503
1622113728573,8.75,12.394000053405762,-12.244000434875488,-2.0399999618530273,-9.642000198364256,-1.3420000076293943
1622113728583,8.539999961853027,13.23799991607666,-12.593000411987305,-1.9609999656677248,-9.602999687194824,-1.3350000381469729
1622113728593,8.470000267028809,13.954999923706056,-13.034999847412108,-1.8830000162124632,-9.64900016784668,-1.3029999732971191
1622113728603,8.050000190734863,14.473999977111816,-13.156000137329102,-1.843999981880188,-9.64900016784668,-1.3029999732971191
1622113728613,7.699999809265136,14.600000381469728,-13.062999725341797,-1.8040000200271609,-9.609999656677246,-1.2960000038146973
1622113728623,7.559999942779541,14.215000152587892,-12.491000175476074,-1.72599995136261,-9.585000038146973,-1.212000012397766
1622113728633,7.279999732971192,13.982000350952148,-12.177000045776367,-1.687000036239624,-9.585000038146973,-1.212000012397766
1622113728643,7.0,13.74899959564209,-11.86299991607666,-1.6480000019073486,-9.585000038146973,-1.212000012397766
1622113728653,6.860000133514404,12.79599952697754,-10.892999649047852,-1.6080000400543213,-9.616999626159668,-1.2580000162124634
1622113728663,6.159999847412109,11.437999725341797,-9.640000343322754,-1.6080000400543213,-9.661999702453612,-1.22599995136261
1622113728673,5.460000038146973,9.770999908447264,-8.654999732971191,-1.6080000400543213,-9.694000244140623,-1.2710000276565552
1622113728683,4.550000190734863,7.690999984741211,-7.742000102996825,-1.6480000019073486,-9.73900032043457,-1.2389999628067017
1622113728692,3.2899999618530273,5.914999961853027,-7.343999862670899,-1.72599995136261,-9.62399959564209,-1.218999981880188
1622113728702,2.1700000762939453,4.256999969482422,-7.210000038146973,-1.7649999856948853,-9.54599952697754,-1.2050000429153442
1622113728712,0.209999993443489,2.6429998874664307,-6.926000118255615,-1.843999981880188,-9.468999862670898,-1.1920000314712524
1622113728722,-0.9100000262260436,1.8480000495910645,-6.853000164031982,-1.8040000200271609,-9.513999938964846,-1.1599999666213987
1622113728732,-1.8200000524520872,0.7979999780654907,-6.540999889373779,-1.8830000162124632,-9.553000450134276,-1.1670000553131104
1622113728742,-3.009999990463257,-0.324999988079071,-5.815000057220459,-1.8830000162124632,-9.508000373840332,-1.1979999542236328
1622113728752,-3.6400001049041744,-1.715999960899353,-5.988999843597412,-1.9220000505447388,-9.468999862670898,-1.1920000314712524
1622113728762,-4.130000114440918,-2.575999975204468,-6.354000091552734,-1.9609999656677248,-9.43000030517578,-1.184999942779541
1622113728772,-4.690000057220459,-3.549000024795532,-6.88100004196167,-2.000999927520752,-9.39900016784668,-1.1390000581741333
1622113728782,-5.599999904632568,-4.413000106811523,-6.820000171661377,-2.0399999618530273,-9.392000198364256,-1.1779999732971191
1622113728792,-6.440000057220459,-5.251999855041504,-6.896999835968018,-2.0399999618530273,-9.352999687194824,-1.1710000038146973
1622113728802,-7.769999980926514,-6.711999893188477,-7.083000183105469,-2.000999927520752,-9.314000129699709,-1.1640000343322754
1622113728812,-8.819999694824219,-7.85099983215332,-7.071000099182129,-2.0399999618530273,-9.321000099182127,-1.1260000467300415
1622113728822,-9.65999984741211,-8.845000267028809,-6.677000045776367,-2.0399999618530273,-9.282999992370604,-1.11899995803833
1622113728832,-10.43000030517578,-9.647999763488768,-6.960999965667725,-2.118000030517578,-9.30799961090088,-1.2029999494552612
1622113728842,-11.340000152587892,-10.348999977111816,-7.013999938964844,-2.0789999961853027,-9.30799961090088,-1.2029999494552612
1622113728852,-11.479999542236328,-10.81999969482422,-7.168000221252441,-2.118000030517578,-9.385000228881836,-1.2170000076293943
1622113728862,-11.760000228881836,-11.894000053405762,-6.7170000076293945,-2.1570000648498535,-9.416999816894531,-1.2619999647140503
1622113728872,-11.760000228881836,-12.859000205993652,-6.888000011444092,-2.0789999961853027,-9.423999786376951,-1.2230000495910645
1622113728882,-11.550000190734863,-13.155000686645508,-7.224499702453612,-2.1570000648498535,-9.352999687194824,-1.1710000038146973
1622113728892,-11.340000152587892,-13.451000213623049,-7.560999870300293,-2.1570000648498535,-9.314000129699709,-1.1640000343322754
1622113728902,-10.779999732971191,-13.767999649047852,-8.1850004196167,-2.1570000648498535,-9.314000129699709,-1.1640000343322754
1622113728912,-10.079999923706056,-14.267000198364258,-8.984000205993652,-2.1570000648498535,-9.276000022888184,-1.1579999923706057
1622113728922,-9.029999732971191,-14.152999877929688,-10.029999732971191,-2.197000026702881,-9.276000022888184,-1.1579999923706057
1622113728932,-7.980000019073486,-14.015999794006348,-11.21399974822998,-2.197000026702881,-9.352999687194824,-1.1710000038146973
1622113728942,-7.139999866485596,-14.243000030517578,-11.538999557495115,-2.1570000648498535,-9.468999862670898,-1.1920000314712524
1622113728952,-6.510000228881836,-14.416999816894531,-11.355999946594238,-2.1570000648498535,-9.513999938964846,-1.1599999666213987
1622113728962,-6.579999923706055,-15.086000442504885,-11.1899995803833,-2.1570000648498535,-9.553000450134276,-1.1670000553131104
1622113728972,-6.369999885559082,-16.051000595092773,-11.359999656677246,-2.197000026702881,-9.612000465393066,-1.0579999685287476
1622113728982,-6.860000133514404,-16.594999313354492,-11.100000381469728,-2.236000061035156,-9.651000022888184,-1.0640000104904177
1622113728992,-7.349999904632568,-16.667999267578125,-10.687000274658203,-2.2750000953674316,-9.612000465393066,-1.0579999685287476
1622113729002,-7.559999942779541,-16.56999969482422,-11.23799991607666,-2.3540000915527344,-9.541999816894531,-1.0049999952316284
1622113729012,-7.769999980926514,-16.30299949645996,-11.54599952697754,-2.431999921798706,-9.477999687194824,-0.9139999747276306
1622113729022,-7.630000114440918,-15.57699966430664,-11.631999969482422,-2.3929998874664307,-9.484999656677246,-0.8759999871253967
1622113729032,-7.769999980926514,-14.67300033569336,-11.116999626159668,-2.431999921798706,-9.407999992370604,-0.8619999885559082
1622113729042,-7.980000019073486,-14.104999542236328,-10.305999755859377,-2.3929998874664307,-9.407999992370604,-0.8619999885559082
1622113729052,-8.119999885559082,-13.289999961853027,-10.090999603271484,-2.3929998874664307,-9.362000465393066,-0.8939999938011169
1622113729062,-7.980000019073486,-11.979999542236328,-9.859999656677246,-2.3540000915527344,-9.324000358581545,-0.887000024318695
1622113729072,-7.9099998474121085,-10.670000076293944,-9.628999710083008,-2.313999891281128,-9.329999923706056,-0.8489999771118164
1622113729082,-7.8400001525878915,-9.152999877929688,-9.362000465393066,-2.313999891281128,-9.336999893188477,-0.8100000023841857
1622113729092,-7.630000114440918,-7.705999851226807,-10.3149995803833,-2.2750000953674316,-9.401000022888184,-0.9010000228881836
1622113729102,-6.929999828338623,-6.0960001945495605,-11.381999969482422,-2.2750000953674316,-9.413999557495115,-0.8240000009536743
1622113729112,-5.460000038146973,-3.9960000514984126,-12.005999565124512,-2.2750000953674316,-9.362000465393066,-0.8939999938011169
1622113729122,-3.849999904632568,-2.0940001010894775,-13.519000053405762,-2.197000026702881,-9.362000465393066,-0.8939999938011169
1622113729132,-2.309999942779541,-0.0630000010132789,-14.156000137329102,-2.197000026702881,-9.39400005340576,-0.9390000104904174
1622113729142,-1.4700000286102295,0.8515000343322753,-14.705499649047852,-2.118000030517578,-9.39400005340576,-0.9390000104904174
1622113729152,-0.6299999952316284,1.7660000324249268,-15.255000114440918,-2.0399999618530273,-9.387000083923342,-0.977999985218048
1622113729162,1.399999976158142,3.0959999561309814,-15.94499969482422,-1.9220000505447388,-9.387000083923342,-0.977999985218048
1622113729172,3.359999895095825,4.2270002365112305,-16.31399917602539,-1.8040000200271609,-9.380000114440918,-1.0169999599456787
1622113729182,4.550000190734863,5.164000034332275,-16.788000106811523,-1.687000036239624,-9.387000083923342,-0.977999985218048
1622113729192,5.389999866485596,5.249000072479248,-17.270999908447266,-1.6480000019073486,-9.380000114440918,-1.0169999599456787
1622113729202,5.670000076293945,5.788000106811523,-18.312999725341797,-1.5299999713897705,-9.404999732971191,-1.10099995136261
1622113729212,6.440000057220459,5.718999862670898,-18.325000762939453,-1.491000056266785,-9.482999801635742,-1.1139999628067017
1622113729222,7.280000209808349,6.072000026702881,-19.11599922180176,-1.4119999408721924,-9.598999977111816,-1.1349999904632568
1622113729232,7.980000019073486,6.2779998779296875,-20.288000106811523,-1.3730000257492063,-9.637000083923342,-1.1419999599456787
1622113729242,9.100000381469728,6.375,-22.04800033569336,-1.3339999914169312,-9.637000083923342,-1.1419999599456787
1622113729252,9.9399995803833,6.488999843597412,-23.093999862670895,-1.2549999952316284,-9.637000083923342,-1.1419999599456787
1622113729262,10.640000343322754,6.922999858856201,-23.941999435424805,-1.215999960899353,-9.53499984741211,-1.0440000295639038
1622113729272,11.829999923706056,7.692999839782715,-25.084999084472656,-1.1770000457763672,-9.482999801635742,-1.1139999628067017
1622113729282,12.039999961853027,8.362000465393066,-26.459999084472656,-1.0980000495910645,-9.520999908447264,-1.1210000514984133
1622113729292,12.18000030517578,9.647000312805178,-27.299999237060547,-1.0199999809265137,-9.598999977111816,-1.1349999904632568
1622113729302,11.899999618530272,11.281000137329102,-27.29599952697754,-0.981000006198883,-9.592000007629396,-1.1729999780654907
1622113729312,11.479999542236328,12.128999710083008,-26.86199951171875,-0.9020000100135804,-9.62399959564209,-1.218999981880188
1622113729322,10.710000038146973,13.795000076293944,-26.638999938964844,-0.7850000262260437,-9.661999702453612,-1.22599995136261
1622113729332,9.729999542236328,14.784999847412108,-25.39800071716309,-0.6669999957084655,-9.694000244140623,-1.2710000276565552
1622113729342,8.609999656677246,15.689000129699709,-24.88400077819824,-0.5099999904632568,-9.654999732971191,-1.2640000581741333
1622113729352,8.399999618530273,15.87600040435791,-23.927000045776367,-0.3529999852180481,-9.630000114440918,-1.1799999475479126
1622113729362,8.1899995803833,15.904999732971191,-22.073999404907227,-0.2349999994039535,-9.585000038146973,-1.212000012397766
1622113729372,7.769999980926514,15.19499969482422,-20.06599998474121,-0.1570000052452087,-9.630000114440918,-1.1799999475479126
1622113729382,7.489999771118165,13.840999603271484,-18.030000686645508,-0.0780000016093254,-9.668999671936035,-1.187000036239624
1622113729392,7.349999904632568,13.139999389648438,-16.874500274658203,0.0390000008046627,-9.651000022888184,-1.0640000104904177
1622113729402,7.210000038146973,12.439000129699709,-15.718999862670898,0.0390000008046627,-9.56700038909912,-1.0889999866485596
1622113729412,6.789999961853027,11.258999824523926,-13.866000175476074,0.0780000016093254,-9.520999908447264,-1.1210000514984133
1622113729422,6.090000152587891,10.321999549865724,-12.18299961090088,0.0390000008046627,-9.468999862670898,-1.1920000314712524
1622113729432,5.460000038146973,9.199000358581545,-10.248000144958496,0.0390000008046627,-9.404999732971191,-1.10099995136261
1622113729442,4.690000057220459,7.432000160217285,-8.28499984741211,0.0780000016093254,-9.335000038146973,-1.0490000247955322
1622113729452,4.130000114440918,5.980000019073486,-6.906000137329102,0.0390000008046627,-9.29599952697754,-1.0420000553131104
1622113729462,4.130000114440918,3.871999979019165,-5.429999828338623,0.0,-9.263999938964846,-0.9959999918937684
1622113729472,4.550000190734863,2.062999963760376,-4.043000221252441,0.0,-9.232999801635742,-0.9509999752044676
1622113729482,5.110000133514404,-0.1180000007152557,-3.361999988555908,0.0,-9.161999702453612,-0.8989999890327453
1622113729492,6.159999847412109,-1.4199999570846558,-3.236000061035156,-0.0780000016093254,-9.130000114440918,-0.8529999852180481
1622113729502,7.349999904632568,-2.7249999046325684,-3.8919999599456783,-0.1570000052452087,-9.14400005340576,-0.7760000228881835
1622113729512,8.260000228881836,-3.714999914169311,-5.132999897003174,-0.1959999948740005,-9.220999717712402,-0.7889999747276306
1622113729522,8.399999618530273,-4.031000137329102,-5.757999897003174,-0.2349999994039535,-9.42099952697754,-0.7850000262260437
1622113729532,8.119999885559082,-4.591000080108643,-6.211999893188477,-0.3140000104904174,-9.522999763488768,-0.8830000162124633
1622113729542,7.559999942779541,-4.258999824523926,-7.289999961853027,-0.3919999897480011,-9.678000450134276,-0.9100000262260436
1622113729552,6.440000057220459,-3.7439999580383305,-8.194999694824219,-0.3919999897480011,-9.885000228881836,-0.8669999837875366
1622113729562,4.480000019073486,-3.1559998989105225,-8.303999900817871,-0.4709999859333038,-10.071000099182127,-0.9390000104904174
1622113729572,2.450000047683716,-3.00600004196167,-8.348999977111816,-0.4709999859333038,-10.25100040435791,-1.0509999990463257
1622113729582,0.0700000002980232,-2.5309998989105225,-7.4120001792907715,-0.5099999904632568,-10.482000350952148,-1.0920000076293943
1622113729592,-2.1700000762939453,-1.866000056266785,-5.943999767303467,-0.5490000247955322,-10.746000289916992,-1.1779999732971191
1622113729602,-5.389999866485596,-1.7649999856948853,-4.505000114440918,-0.5879999995231628,-10.854999542236328,-1.2369999885559082
1622113729612,-8.960000038146973,-1.35099995136261,-3.2239999771118164,-0.6280000209808348,-10.880000114440918,-1.3209999799728394
1622113729622,-10.219999313354492,-0.9839999675750732,-3.0879998207092285,-0.6280000209808348,-10.840999603271484,-1.3140000104904177
1622113729632,-11.479999542236328,-0.6169999837875366,-2.9519999027252197,-0.6280000209808348,-10.687000274658203,-1.2869999408721924
1622113729642,-13.510000228881836,0.0640000030398368,-3.187000036239624,-0.6280000209808348,-10.44200038909912,-1.3229999542236328
1622113729652,-14.840000152587892,1.430999994277954,-4.084000110626221,-0.5879999995231628,-10.203000068664553,-1.3209999799728394
1622113729662,-15.260000228881836,2.0510001182556152,-3.973999977111816,-0.5490000247955322,-9.901000022888184,-1.2280000448226929
1622113729672,-14.489999771118164,2.5339999198913574,-5.0970001220703125,-0.5099999904632568,-9.592000007629396,-1.1729999780654907
1622113729682,-12.670000076293944,3.239000082015991,-5.4710001945495605,-0.4309999942779541,-9.32800006866455,-1.087000012397766
1622113729692,-9.520000457763674,3.177999973297119,-6.334000110626221,-0.3529999852180481,-9.05799961090088,-1.0390000343322754
1622113729702,-6.230000019073486,2.9189999103546143,-6.877999782562256,-0.3140000104904174,-8.871000289916992,-0.9670000076293944
1622113729712,-2.7300000190734863,2.8289999961853027,-7.177999973297119,-0.2750000059604644,-8.793999671936035,-0.953000009059906
1622113729722,0.4199999868869781,2.578000068664551,-7.363999843597413,-0.3140000104904174,-8.755000114440918,-0.9459999799728392
1622113729732,3.5,2.0220000743865967,-7.035999774932861,-0.3140000104904174,-8.769000053405762,-0.8690000176429749
1622113729742,5.880000114440918,2.2170000076293945,-6.929999828338623,-0.3140000104904174,-8.76200008392334,-0.9079999923706054
1622113729752,7.420000076293945,2.3510000705718994,-6.480000019073486,-0.3140000104904174,-8.916999816894531,-0.9350000023841856
1622113729762,8.609999656677246,2.197000026702881,-6.010000228881836,-0.3140000104904174,-9.071000099182127,-0.962000012397766
1622113729772,9.029999732971191,2.2290000915527344,-5.790999889373779,-0.3140000104904174,-9.194000244140623,-0.944000005722046
1622113729782,9.100000381469728,1.937999963760376,-5.34499979019165,-0.3529999852180481,-9.354999542236328,-0.9330000281333924
1622113729792,8.680000305175781,1.4869999885559082,-5.210999965667725,-0.3140000104904174,-9.517000198364256,-0.9210000038146972
1622113729802,7.8400001525878915,1.3860000371932983,-4.234000205993652,-0.3919999897480011,-9.62600040435791,-0.9800000190734864
1622113729812,6.860000133514404,0.6809999942779541,-3.8599998950958256,-0.4309999942779541,-9.748000144958496,-0.962000012397766
1622113729822,6.440000057220459,0.2910000085830688,-4.071000099182129,-0.4709999859333038,-9.779999732971191,-1.0080000162124634
1622113729832,6.159999847412109,0.0680000036954879,-4.2170000076293945,-0.4709999859333038,-9.871000289916992,-0.944000005722046
1622113729842,5.880000114440918,-0.1550000011920929,-4.36299991607666,-0.4709999859333038,-9.954999923706056,-0.9190000295639038
1622113729852,5.320000171661377,-0.662000000476837,-4.309999942779541,-0.4309999942779541,-10.00100040435791,-0.887000024318695
1622113729862,4.96999979019165,-1.4199999570846558,-4.443999767303467,-0.4709999859333038,-10.109999656677246,-0.9459999799728392
1622113729872,4.619999885559082,-1.9630000591278076,-5.39300012588501,-0.5490000247955322,-10.085000038146973,-0.8619999885559082
1622113729882,4.059999942779541,-2.2309999465942383,-6.293000221252441,-0.5490000247955322,-10.097999572753906,-0.7850000262260437
1622113729892,3.6400001049041744,-2.125999927520752,-6.48799991607666,-0.5879999995231628,-10.092000007629396,-0.8230000138282775
1622113729902,2.5899999141693115,-2.499000072479248,-5.985000133514404,-0.6669999957084655,-10.053000450134276,-0.8169999718666076
1622113729912,1.399999976158142,-2.697000026702881,-5.664000034332275,-0.6669999957084655,-10.06700038909912,-0.7390000224113464
1622113729922,0.2800000011920929,-2.697000026702881,-5.664000034332275,-0.6280000209808348,-10.034999847412108,-0.6940000057220459
1622113729932,-1.0499999523162842,-2.5840001106262207,-5.501999855041504,-0.6280000209808348,-9.951000213623049,-0.7189999818801879
1622113729942,-2.0299999713897705,-2.4010000228881836,-5.328000068664551,-0.7059999704360961,-9.918999671936035,-0.6740000247955322
1622113729952,-3.2899999618530273,-2.2709999084472656,-4.452000141143799,-0.7059999704360961,-9.873000144958496,-0.7049999833106994
1622113729962,-4.340000152587891,-2.0079998970031734,-3.125999927520752,-0.7850000262260437,-9.835000038146973,-0.6990000009536743
1622113729972,-5.25,-1.4720000028610227,-2.5339999198913574,-0.7850000262260437,-9.81700038909912,-0.5759999752044677
1622113729982,-6.230000019073486,-1.2779999971389773,-2.428999900817871,-0.8240000009536743,-9.79599952697754,-0.6919999718666076
1622113729992,-7.630000114440918,-1.2050000429153442,-2.8420000076293945,-0.8240000009536743,-9.835000038146973,-0.6990000009536743
1622113730002,-9.170000076293944,-0.8930000066757202,-3.000999927520752,-0.8240000009536743,-9.873000144958496,-0.7049999833106994
1622113730012,-10.289999961853027,-0.6660000085830688,-3.884999990463257,-0.8240000009536743,-9.835000038146973,-0.6990000009536743
1622113730022,-11.409999847412108,-0.4990000128746032,-4.423999786376953,-0.8629999756813049,-9.82800006866455,-0.7369999885559082
1622113730032,-12.18000030517578,-0.4510000050067901,-4.699999809265137,-0.8629999756813049,-9.821000099182127,-0.7760000228881835
1622113730042,-12.425000190734863,-0.4510000050067901,-4.699999809265137,-0.9020000100135804,-9.729999542236328,-0.8389999866485595
1622113730052,-12.670000076293944,-0.4510000050067901,-4.699999809265137,-0.9020000100135804,-9.722999572753906,-0.8780000209808348
1622113730062,-12.880000114440918,-0.2520000040531158,-5.019999980926514,-0.9020000100135804,-9.722999572753906,-0.8780000209808348
1622113730072,-12.600000381469728,0.1089999973773956,-5.453999996185303,-0.8629999756813049,-9.6850004196167,-0.8709999918937683
1622113730082,-12.18000030517578,0.0189999993890523,-5.754000186920166,-0.8629999756813049,-9.717000007629396,-0.9169999957084656
1622113730092,-11.829999923706056,0.3109999895095825,-6.199999809265137,-0.9020000100135804,-9.710000038146973,-0.9549999833106994
1622113730102,-11.340000152587892,0.9480000138282776,-6.585000038146973,-0.9409999847412108,-9.70300006866455,-0.9940000176429749
1622113730112,-11.270000457763672,1.5850000381469729,-6.9710001945495605,-0.9409999847412108,-9.70300006866455,-0.9940000176429749
1622113730122,-10.640000343322754,1.7100000381469729,-6.877999782562256,-0.9020000100135804,-9.651000022888184,-1.0640000104904177
1622113730132,-9.869999885559082,2.244999885559082,-7.493999958038329,-0.8240000009536743,-9.651000022888184,-1.0640000104904177
1622113730142,-8.75,2.8459999561309814,-7.671999931335449,-0.8240000009536743,-9.651000022888184,-1.0640000104904177
1622113730152,-7.769999980926514,3.5959999561309814,-7.895999908447266,-0.8240000009536743,-9.53499984741211,-1.0440000295639038
1622113730162,-6.510000228881836,4.322000026702881,-7.980999946594238,-0.7850000262260437,-9.527999877929688,-1.0829999446868896
1622113730172,-5.179999828338623,5.400000095367432,-7.6479997634887695,-0.7850000262260437,-9.444000244140623,-1.1080000400543213
1622113730182,-3.7799999713897705,6.0980000495910645,-7.170000076293945,-0.7450000047683715,-9.404999732971191,-1.10099995136261
1622113730192,-2.5899999141693115,6.283999919891357,-7.421999931335449,-0.7850000262260437,-9.444000244140623,-1.1080000400543213
1622113730202,-1.4700000286102295,6.376999855041504,-7.546999931335449,-0.7450000047683715,-9.444000244140623,-1.1080000400543213
1622113730212,-0.4199999868869781,6.620999813079834,-7.717999935150147,-0.7450000047683715,-9.47599983215332,-1.1529999971389773
1622113730222,0.6299999952316284,6.4710001945495605,-7.672999858856201,-0.7059999704360961,-9.404999732971191,-1.10099995136261
1622113730232,1.399999976158142,6.552000045776367,-7.730000019073486,-0.6669999957084655,-9.48900032043457,-1.0759999752044678
1622113730242,1.4700000286102295,6.321000099182129,-7.627999782562256,-0.6669999957084655,-9.579999923706056,-1.0119999647140503
1622113730252,1.3650000095367432,6.282500267028809,-7.208499908447266,-0.7059999704360961,-9.572999954223633,-1.0509999990463257
1622113730262,1.2599999904632568,6.24399995803833,-6.789000034332275,-0.6669999957084655,-9.637000083923342,-1.1419999599456787
1622113730272,0.8399999737739563,5.927999973297119,-6.204999923706055,-0.7059999704360961,-9.68299961090088,-1.1100000143051147
1622113730282,0.3499999940395355,5.546000003814697,-6.059000015258789,-0.7059999704360961,-9.760000228881836,-1.1230000257492063
1622113730292,-0.4199999868869781,5.578999996185303,-5.840000152587891,-0.7450000047683715,-9.767000198364256,-1.0850000381469729
1622113730302,-1.1200000047683716,5.3480000495910645,-5.738999843597412,-0.7059999704360961,-9.727999687194824,-1.0779999494552612
1622113730312,-1.6100000143051147,4.9019999504089355,-6.03000020980835,-0.7059999704360961,-9.727999687194824,-1.0779999494552612
1622113730322,-1.9600000381469729,4.715000152587891,-5.7789998054504395,-0.7059999704360961,-9.689000129699709,-1.0709999799728394
1622113730331,-2.240000009536743,4.309999942779541,-5.494999885559082,-0.7059999704360961,-9.696000099182127,-1.0329999923706057
1622113730341,-2.450000047683716,3.4779999256134033,-5.215000152587891,-0.7450000047683715,-9.663999557495115,-0.9869999885559082
1622113730351,-2.5199999809265137,2.9030001163482666,-5.175000190734863,-0.7850000262260437,-9.62600040435791,-0.9800000190734864
1622113730361,-2.5899999141693115,2.513000011444092,-5.385000228881836,-0.8240000009536743,-9.657999992370604,-1.0260000228881836
1622113730371,-2.799999952316284,2.1440000534057617,-5.308000087738037,-0.8240000009536743,-9.696000099182127,-1.0329999923706057
1622113730381,-3.009999990463257,2.302999973297119,-4.995999813079834,-0.8240000009536743,-9.741999626159668,-1.0010000467300415
1622113730391,-3.430000066757202,2.6470000743865967,-4.934999942779541,-0.9020000100135804,-9.70300006866455,-0.9940000176429749
1622113730401,-3.359999895095825,2.88700008392334,-4.679999828338623,-0.9020000100135804,-9.696000099182127,-1.0329999923706057
1622113730411,-3.430000066757202,3.8559999465942383,-4.934999942779541,-0.9409999847412108,-9.734999656677246,-1.0390000343322754
1622113730421,-2.799999952316284,4.730999946594238,-5.065000057220459,-0.981000006198883,-9.696000099182127,-1.0329999923706057
1622113730431,-2.309999942779541,5.559000015258789,-4.919000148773193,-0.981000006198883,-9.572999954223633,-1.0509999990463257
1622113730441,-1.75,6.421999931335449,-4.980000019073486,-0.981000006198883,-9.53499984741211,-1.0440000295639038
1622113730451,-1.434999942779541,6.815500259399414,-5.19499969482422,-0.981000006198883,-9.541999816894531,-1.0049999952316284
1622113730461,-1.1200000047683716,7.209000110626221,-5.409999847412109,-0.9409999847412108,-9.541999816894531,-1.0049999952316284
1622113730471,-0.0700000002980232,7.789000034332275,-5.876999855041504,-0.9409999847412108,-9.503000259399414,-0.9990000128746032
1622113730481,0.699999988079071,8.300000190734863,-6.355000019073486,-0.9409999847412108,-9.541999816894531,-1.0049999952316284
1622113730491,1.1200000047683716,9.062000274658203,-6.646999835968018,-0.981000006198883,-9.527999877929688,-1.0829999446868896
1622113730501,1.4700000286102295,9.557000160217283,-6.63100004196167,-0.981000006198883,-9.572999954223633,-1.0509999990463257
1622113730511,1.399999976158142,9.982000350952148,-6.626999855041504,-0.9020000100135804,-9.586999893188477,-0.9729999899864196
1622113730521,1.3300000429153442,10.027000427246094,-6.4770002365112305,-0.8629999756813049,-9.663999557495115,-0.9869999885559082
1622113730531,1.399999976158142,10.395999908447266,-6.553999900817871,-0.8240000009536743,-9.651000022888184,-1.0640000104904177
1622113730541,0.699999988079071,10.590999603271484,-6.448999881744385,-0.8240000009536743,-9.689000129699709,-1.0709999799728394
1622113730551,0.0,10.79800033569336,-6.4120001792907715,-0.8629999756813049,-9.651000022888184,-1.0640000104904177
1622113730561,0.1400000005960464,10.914999961853027,-6.676000118255615,-0.8629999756813049,-9.689000129699709,-1.0709999799728394
1622113730571,-0.0700000002980232,11.218999862670898,-7.190999984741211,-0.8240000009536743,-9.689000129699709,-1.0709999799728394
1622113730581,-0.4900000095367431,11.470999717712402,-7.005000114440918,-0.8240000009536743,-9.657999992370604,-1.0260000228881836
1622113730591,-0.209999993443489,11.97700023651123,-7.057000160217285,-0.8629999756813049,-9.612000465393066,-1.0579999685287476
1622113730601,-0.1400000005960464,12.4399995803833,-7.260000228881835,-0.9020000100135804,-9.579999923706056,-1.0119999647140503
1622113730611,0.5600000023841857,12.703000068664553,-7.14300012588501,-0.9409999847412108,-9.541999816894531,-1.0049999952316284
1622113730621,0.9100000262260436,13.425000190734863,-6.802000045776367,-1.0199999809265137,-9.503000259399414,-0.9990000128746032
1622113730631,1.1549999713897705,13.656000137329102,-6.903500080108643,-1.0590000152587893,-9.503000259399414,-0.9990000128746032
1622113730641,1.399999976158142,13.88700008392334,-7.005000114440918,-1.1380000114440918,-9.55500030517578,-0.9279999732971193
1622113730651,1.8200000524520872,15.1850004196167,-7.913000106811523,-1.1380000114440918,-9.593999862670898,-0.9350000023841856
1622113730661,2.240000009536743,17.150999069213867,-8.98799991607666,-1.215999960899353,-9.586999893188477,-0.9729999899864196
1622113730671,2.940000057220459,18.52199935913086,-9.10200023651123,-1.1770000457763672,-9.586999893188477,-0.9729999899864196
1622113730681,3.430000066757202,20.305999755859375,-9.142999649047852,-1.1380000114440918,-9.586999893188477,-0.9729999899864196
1622113730691,3.430000066757202,22.020999908447266,-9.196000099182127,-1.1380000114440918,-9.586999893188477,-0.9729999899864196
1622113730701,3.7799999713897705,23.594999313354492,-8.847000122070312,-1.0980000495910645,-9.633000373840332,-0.9419999718666076
1622113730711,3.6400001049041744,24.54800033569336,-8.607999801635742,-1.0199999809265137,-9.633000373840332,-0.9419999718666076
1622113730721,3.359999895095825,25.606000900268555,-8.564000129699707,-0.9409999847412108,-9.67099952697754,-0.9480000138282776
1622113730731,3.430000066757202,26.166000366210938,-9.317999839782717,-0.7850000262260437,-9.619000434875488,-1.0190000534057615
1622113730741,3.1500000953674316,25.77199935913086,-10.310999870300291,-0.6669999957084655,-9.657999992370604,-1.0260000228881836
1622113730751,2.5899999141693115,24.75,-10.562999725341797,-0.5490000247955322,-9.657999992370604,-1.0260000228881836
1622113730761,2.5199999809265137,23.768999099731445,-10.23799991607666,-0.4309999942779541,-9.657999992370604,-1.0260000228881836
1622113730771,2.1700000762939453,21.600000381469727,-9.62600040435791,-0.3529999852180481,-9.70300006866455,-0.9940000176429749
1622113730781,1.5399999618530271,19.017000198364254,-9.086000442504885,-0.3140000104904174,-9.741999626159668,-1.0010000467300415
1622113730791,0.699999988079071,16.51099967956543,-8.177000045776367,-0.2349999994039535,-9.741999626159668,-1.0010000467300415
1622113730801,0.0700000002980232,13.883000373840332,-7.788000106811523,-0.2349999994039535,-9.70300006866455,-0.9940000176429749
1622113730811,-0.2800000011920929,10.939000129699709,-8.022000312805176,-0.1570000052452087,-9.696000099182127,-1.0329999923706057
1622113730821,-0.4549999833106994,9.531999588012695,-7.701499938964843,-0.1959999948740005,-9.689000129699709,-1.0709999799728394
1622113730831,-0.6299999952316284,8.125,-7.381000041961671,-0.2349999994039535,-9.696000099182127,-1.0329999923706057
1622113730841,-0.9800000190734864,5.302999973297119,-7.0970001220703125,-0.2349999994039535,-9.604999542236328,-1.0959999561309814
1622113730851,-0.5600000023841857,3.2669999599456787,-7.243000030517577,-0.3140000104904174,-9.663999557495115,-0.9869999885559082
1622113730861,-0.3499999940395355,1.0529999732971191,-6.78000020980835,-0.3529999852180481,-9.689000129699709,-1.0709999799728394
1622113730871,-0.6299999952316284,-0.5730000138282775,-6.427000045776367,-0.4309999942779541,-9.657999992370604,-1.0260000228881836
1622113730881,-0.5600000023841857,-1.5540000200271606,-6.103000164031982,-0.4709999859333038,-9.696000099182127,-1.0329999923706057
1622113730891,-0.5600000023841857,-2.572000026702881,-5.571000099182129,-0.5879999995231628,-9.696000099182127,-1.0329999923706057
1622113730901,-0.9100000262260436,-3.058000087738037,-5.230999946594238,-0.6280000209808348,-9.657999992370604,-1.0260000228881836
1622113730911,-0.7699999809265136,-3.249000072479248,-4.552999973297119,-0.6669999957084655,-9.657999992370604,-1.0260000228881836
1622113730921,-0.2800000011920929,-2.7090001106262207,-4.38700008392334,-0.7059999704360961,-9.657999992370604,-1.0260000228881836
1622113730931,0.0700000002980232,-2.3440001010894775,-4.038000106811523,-0.8240000009536743,-9.651000022888184,-1.0640000104904177
1622113730941,0.3499999940395355,-2.2060000896453857,-4.013999938964844,-0.8240000009536743,-9.651000022888184,-1.0640000104904177
1622113730951,0.2800000011920929,-1.343000054359436,-4.074999809265137,-0.8629999756813049,-9.663999557495115,-0.9869999885559082
1622113730961,0.4900000095367431,-0.8479999899864196,-4.059000015258789,-0.9020000100135804,-9.663999557495115,-0.9869999885559082
1622113730971,0.3499999940395355,-0.1550000011920929,-4.36299991607666,-0.9409999847412108,-9.689000129699709,-1.0709999799728394
1622113730981,0.209999993443489,0.5139999985694885,-4.5289998054504395,-0.9020000100135804,-9.689000129699709,-1.0709999799728394
1622113730991,-0.209999993443489,1.0499999523162842,-5.145999908447266,-0.9020000100135804,-9.689000129699709,-1.0709999799728394
1622113731001,-0.209999993443489,1.1469999551773071,-5.093500137329102,-0.9409999847412108,-9.689000129699709,-1.0709999799728394
1622113731011,-0.209999993443489,1.24399995803833,-5.040999889373779,-0.9020000100135804,-9.657999992370604,-1.0260000228881836
1622113731021,-0.9100000262260436,1.784000039100647,-4.874000072479248,-0.8629999756813049,-9.689000129699709,-1.0709999799728394
1622113731031,-1.0499999523162842,2.177000045776367,-5.089000225067139,-0.8629999756813049,-9.68299961090088,-1.1100000143051147
1622113731041,-0.9800000190734864,2.5940001010894775,-5.441999912261963,-0.8629999756813049,-9.651000022888184,-1.0640000104904177
1622113731051,-1.1200000047683716,2.5940001010894775,-5.441999912261963,-0.9020000100135804,-9.612000465393066,-1.0579999685287476
1622113731061,-1.5399999618530271,2.711999893188477,-5.705999851226807,-0.9020000100135804,-9.612000465393066,-1.0579999685287476
1622113731071,-1.2599999904632568,2.6429998874664307,-5.7179999351501465,-0.8629999756813049,-9.612000465393066,-1.0579999685287476
1622113731081,-0.9100000262260436,2.8010001182556152,-5.406000137329102,-0.8629999756813049,-9.612000465393066,-1.0579999685287476
1622113731091,-0.6299999952316284,2.663000106811523,-5.429999828338623,-0.9020000100135804,-9.612000465393066,-1.0579999685287476
1622113731101,-0.4199999868869781,2.075000047683716,-5.320000171661377,-0.9020000100135804,-9.689000129699709,-1.0709999799728394
1622113731111,-0.5600000023841857,2.135999917984009,-5.664999961853027,-0.981000006198883,-9.696000099182127,-1.0329999923706057
1622113731121,-0.3499999940395355,2.4159998893737793,-6.041999816894531,-0.9409999847412108,-9.619000434875488,-1.0190000534057615
1622113731131,-0.1400000005960464,2.436000108718872,-5.754000186920166,-0.9409999847412108,-9.572999954223633,-1.0509999990463257
1622113731141,0.1400000005960464,2.9019999504089355,-6.382999897003174,-0.9409999847412108,-9.579999923706056,-1.0119999647140503
1622113731151,0.8399999737739563,3.121000051498413,-6.414999961853027,-0.9409999847412108,-9.541999816894531,-1.0049999952316284
1622113731161,1.399999976158142,3.239000082015991,-6.678999900817871,-0.981000006198883,-9.53499984741211,-1.0440000295639038
1622113731171,1.8200000524520872,3.624000072479248,-7.250999927520752,-0.9409999847412108,-9.541999816894531,-1.0049999952316284
1622113731181,2.5899999141693115,4.065999984741211,-7.742000102996825,-0.9409999847412108,-9.510000228881836,-0.9599999785423278
1622113731191,2.7649998664855957,4.321499824523926,-7.980999946594238,-0.9409999847412108,-9.470999717712402,-0.953000009059906
1622113731201,2.940000057220459,4.577000141143799,-8.220000267028809,-0.9409999847412108,-9.46399974822998,-0.9919999837875366
1622113731211,3.359999895095825,5.014999866485596,-8.28499984741211,-0.9020000100135804,-9.510000228881836,-0.9599999785423278
1622113731221,3.7799999713897705,5.603000164031982,-8.395000457763672,-0.9020000100135804,-9.517000198364256,-0.9210000038146972
1622113731231,4.130000114440918,6.2230000495910645,-8.28499984741211,-0.8629999756813049,-9.54800033569336,-0.9670000076293944
1622113731241,4.199999809265137,6.486999988555908,-8.168000221252441,-0.9020000100135804,-9.593999862670898,-0.9350000023841856
1622113731251,4.550000190734863,7.269000053405762,-8.17199993133545,-0.8629999756813049,-9.55500030517578,-0.9279999732971193
1622113731261,4.760000228881836,7.633999824523927,-7.822999954223632,-0.8240000009536743,-9.55500030517578,-0.9279999732971193
1622113731271,5.179999828338623,8.015999794006348,-7.968999862670899,-0.8629999756813049,-9.60099983215332,-0.8960000276565551
1622113731281,5.53000020980835,8.619999885559082,-8.572999954223633,-0.8240000009536743,-9.562000274658203,-0.8889999985694885
1622113731291,5.599999904632568,8.98900032043457,-8.651000022888184,-0.7850000262260437,-9.562000274658203,-0.8889999985694885
1622113731301,5.949999809265137,9.277000427246092,-8.670999526977539,-0.7450000047683715,-9.607999801635742,-0.8579999804496765
1622113731311,6.510000228881836,9.07800006866455,-8.350000381469727,-0.7850000262260437,-9.576000213623049,-0.8119999766349792
1622113731321,6.929999828338623,8.777999877929688,-8.26099967956543,-0.7850000262260437,-9.61400032043457,-0.8190000057220459
1622113731331,7.420000076293945,8.996999740600586,-8.293999671936035,-0.7850000262260437,-9.61400032043457,-0.8190000057220459
1622113731341,7.9099998474121085,8.895000457763672,-8.524999618530273,-0.7850000262260437,-9.65999984741211,-0.787000000476837
1622113731351,7.9099998474121085,8.425000190734863,-8.678999900817871,-0.7450000047683715,-9.704999923706056,-0.7549999952316284
1622113731361,7.630000114440918,8.62399959564209,-8.99899959564209,-0.7450000047683715,-9.704999923706056,-0.7549999952316284
1622113731371,7.699999809265136,8.777999877929688,-9.470000267028809,-0.7850000262260437,-9.711999893188477,-0.7170000076293945
1622113731381,7.769999980926514,9.413999557495115,-9.854999542236328,-0.7850000262260437,-9.711999893188477,-0.7170000076293945
1622113731391,7.80500030517578,9.753000259399414,-9.759499549865724,-0.8240000009536743,-9.75100040435791,-0.7239999771118164
1622113731401,7.8400001525878915,10.092000007629396,-9.663999557495115,-0.8240000009536743,-9.666999816894531,-0.7490000128746032
1622113731411,7.139999866485596,10.303000450134276,-8.845000267028809,-0.8240000009536743,-9.711999893188477,-0.7170000076293945
1622113731421,6.789999961853027,11.03600025177002,-8.574000358581543,-0.8629999756813049,-9.711999893188477,-0.7170000076293945
1622113731431,6.860000133514404,11.72599983215332,-8.45199966430664,-0.8629999756813049,-9.758000373840332,-0.6850000023841857
1622113731441,6.579999923706055,12.951000213623049,-7.738999843597413,-0.8629999756813049,-9.718999862670898,-0.6779999732971191
1622113731451,6.230000019073486,13.802000045776367,-7.730999946594238,-0.8629999756813049,-9.72599983215332,-0.6389999985694885
1622113731461,6.019999980926514,14.928999900817873,-7.673999786376954,-0.9020000100135804,-9.687000274658203,-0.6330000162124633
1622113731471,6.019999980926514,15.946999549865724,-8.204999923706055,-0.981000006198883,-9.732000350952148,-0.6010000109672546
1622113731481,5.670000076293945,17.297000885009766,-8.607000350952148,-0.981000006198883,-9.732000350952148,-0.6010000109672546
1622113731491,5.670000076293945,18.863000869750977,-8.614999771118164,-1.0199999809265137,-9.732000350952148,-0.6010000109672546
1622113731501,5.53000020980835,20.277999877929688,-8.579000473022461,-0.981000006198883,-9.777999877929688,-0.5690000057220459
1622113731511,4.96999979019165,21.631999969482425,-8.197999954223633,-0.9409999847412108,-9.770999908447264,-0.6079999804496765
1622113731521,4.690000057220459,23.371999740600582,-8.388999938964844,-0.9409999847412108,-9.72599983215332,-0.6389999985694885
1622113731531,4.619999885559082,24.40999984741211,-8.631999969482422,-0.8629999756813049,-9.758000373840332,-0.6850000023841857
1622113731541,4.409999847412109,25.447999954223633,-8.87600040435791,-0.9020000100135804,-9.788999557495115,-0.7300000190734863
1622113731551,3.9200000762939458,26.343999862670895,-8.718000411987305,-0.9020000100135804,-9.788999557495115,-0.7300000190734863
1622113731561,3.7799999713897705,27.67799949645996,-8.625,-0.9020000100135804,-9.79599952697754,-0.6919999718666076
1622113731571,3.6400001049041744,29.02899932861328,-7.817999839782715,-0.8629999756813049,-9.758000373840332,-0.6850000023841857
1622113731581,3.9200000762939458,30.35099983215332,-7.656000137329101,-0.8240000009536743,-9.732000350952148,-0.6010000109672546
1622113731591,3.7799999713897705,31.599000930786133,-8.288999557495117,-0.8240000009536743,-9.732000350952148,-0.6010000109672546
1622113731601,3.7100000381469727,32.99399948120117,-8.539999961853027,-0.7450000047683715,-9.694000244140623,-0.5939999818801879
1622113731611,3.570000171661377,33.35300064086914,-8.76099967956543,-0.6280000209808348,-9.72599983215332,-0.6389999985694885
1622113731621,3.430000066757202,33.71200180053711,-8.982000350952148,-0.5490000247955322,-9.770999908447264,-0.6079999804496765
1622113731631,3.2200000286102295,33.88600158691406,-9.16499996185303,-0.4709999859333038,-9.72599983215332,-0.6389999985694885
1622113731641,3.2200000286102295,33.69200134277344,-9.270000457763674,-0.3919999897480011,-9.72599983215332,-0.6389999985694885
1622113731651,2.940000057220459,32.83599853515625,-10.060999870300291,-0.3919999897480011,-9.718999862670898,-0.6779999732971191
1622113731661,3.009999990463257,31.618999481201172,-10.41800022125244,-0.2750000059604644,-9.718999862670898,-0.6779999732971191
1622113731671,2.940000057220459,30.375,-10.211000442504885,-0.2349999994039535,-9.68000030517578,-0.6710000038146972
1622113731681,2.799999952316284,28.47699928283691,-10.33199977874756,-0.1570000052452087,-9.687000274658203,-0.6330000162124633
1622113731691,2.940000057220459,26.785999298095703,-10.416999816894531,-0.1180000007152557,-9.647999763488768,-0.6259999871253967
1622113731701,3.2200000286102295,24.774999618530273,-10.701000213623049,-0.1180000007152557,-9.647999763488768,-0.6259999871253967
1622113731711,3.2200000286102295,22.885000228881836,-10.465000152587892,-0.0780000016093254,-9.687000274658203,-0.6330000162124633
1622113731721,2.799999952316284,20.663000106811523,-10.359000205993652,-0.1180000007152557,-9.72599983215332,-0.6389999985694885
1622113731731,2.869999885559082,18.56599998474121,-10.159999847412108,-0.0780000016093254,-9.72599983215332,-0.6389999985694885
1622113731741,2.869999885559082,16.332000732421875,-9.986000061035156,-0.0780000016093254,-9.758000373840332,-0.6850000023841857
1622113731751,2.6600000858306885,14.604999542236328,-9.86400032043457,-0.0780000016093254,-9.718999862670898,-0.6779999732971191
1622113731761,2.450000047683716,13.071999549865724,-9.63599967956543,-0.1180000007152557,-9.758000373840332,-0.6850000023841857
1622113731771,1.9600000381469729,11.20699977874756,-9.538999557495115,-0.1570000052452087,-9.79599952697754,-0.6919999718666076
1622113731781,1.399999976158142,9.475000381469728,-8.991000175476074,-0.1180000007152557,-9.842000007629396,-0.6600000262260437
1622113731791,1.190000057220459,7.791999816894531,-8.718999862670898,-0.1180000007152557,-9.847999572753906,-0.6209999918937683
1622113731801,0.699999988079071,6.790999889373779,-8.682999610900879,-0.1180000007152557,-9.842000007629396,-0.6600000262260437
1622113731811,0.209999993443489,5.4730000495910645,-8.062000274658203,-0.1959999948740005,-9.835000038146973,-0.6990000009536743
1622113731821,-0.4900000095367431,4.381999969482422,-7.117000102996826,-0.1570000052452087,-9.75100040435791,-0.7239999771118164
1622113731831,-0.6299999952316284,3.964499950408935,-6.763999938964844,-0.2750000059604644,-9.711999893188477,-0.7170000076293945
1622113731841,-0.7699999809265136,3.546999931335449,-6.410999774932861,-0.3140000104904174,-9.718999862670898,-0.6779999732971191
1622113731851,-0.8399999737739563,3.246999979019165,-6.322000026702881,-0.3529999852180481,-9.68000030517578,-0.6710000038146972
1622113731861,-0.4199999868869781,3.384999990463257,-6.297999858856201,-0.3919999897480011,-9.609999656677246,-0.6190000176429749
1622113731871,-0.1400000005960464,3.3239998817443848,-5.953000068664551,-0.4709999859333038,-9.564000129699709,-0.6510000228881835
1622113731881,0.4900000095367431,3.3359999656677246,-6.021999835968018,-0.5099999904632568,-9.564000129699709,-0.6510000228881835
1622113731891,0.9100000262260436,3.559999942779541,-5.271999835968018,-0.5490000247955322,-9.571000099182127,-0.6119999885559082
1622113731901,1.75,3.4539999961853027,-5.077000141143799,-0.5490000247955322,-9.571000099182127,-0.6119999885559082
1622113731911,2.240000009536743,3.441999912261963,-5.007999897003174,-0.5490000247955322,-9.571000099182127,-0.6119999885559082
1622113731921,2.940000057220459,3.7420001029968266,-5.0980000495910645,-0.5490000247955322,-9.571000099182127,-0.6119999885559082
1622113731931,3.2899999618530273,4.098999977111816,-5.105999946594238,-0.5879999995231628,-9.609999656677246,-0.6190000176429749
1622113731941,3.6400001049041744,4.686999797821045,-5.215000152587891,-0.5879999995231628,-9.609999656677246,-0.6190000176429749
1622113731951,4.059999942779541,4.828999996185303,-5.617000102996826,-0.6280000209808348,-9.616999626159668,-0.5799999833106994
1622113731961,4.619999885559082,5.571000099182129,-6.197000026702881,-0.6669999957084655,-9.616999626159668,-0.5799999833106994
1622113731970,4.900000095367432,6.195000171661377,-6.513000011444092,-0.7059999704360961,-9.637000083923342,-0.4639999866485595
1622113731980,4.96999979019165,7.00600004196167,-7.080999851226807,-0.7450000047683715,-9.675999641418455,-0.4709999859333038
1622113731990,5.25,8.02400016784668,-7.611999988555909,-0.7450000047683715,-9.682000160217283,-0.4329999983310699
1622113732000,5.599999904632568,8.854999542236328,-7.892000198364258,-0.7850000262260437,-9.682000160217283,-0.4329999983310699
1622113732010,6.019999980926514,10.1850004196167,-8.581999778747559,-0.7850000262260437,-9.675999641418455,-0.4709999859333038
1622113732020,5.949999809265137,11.583999633789064,-9.258999824523924,-0.7850000262260437,-9.689000129699709,-0.3939999938011169
1622113732030,5.809999942779541,13.177000045776367,-9.831000328063965,-0.8240000009536743,-9.772999763488768,-0.3689999878406524
1622113732040,5.739999771118164,14.527999877929688,-10.232999801635742,-0.7450000047683715,-9.734999656677246,-0.3619999885559082
1622113732050,6.090000152587891,15.909999847412108,-10.414999961853027,-0.6669999957084655,-9.734999656677246,-0.3619999885559082
1622113732060,5.949999809265137,17.06599998474121,-10.921999931335447,-0.6280000209808348,-9.727999687194824,-0.4009999930858612
1622113732070,5.599999904632568,17.690000534057617,-11.23900032043457,-0.5490000247955322,-9.767000198364256,-0.4079999923706054
1622113732080,5.599999904632568,17.85449981689453,-11.565500259399414,-0.5099999904632568,-9.720999717712402,-0.4390000104904174
1622113732090,5.599999904632568,18.018999099731445,-11.892000198364258,-0.3919999897480011,-9.710000038146973,-0.277999997138977
1622113732100,5.880000114440918,18.13599967956543,-12.154999732971191,-0.3529999852180481,-9.696000099182127,-0.3549999892711639
1622113732110,5.53000020980835,18.322999954223633,-12.406999588012695,-0.3140000104904174,-9.793999671936035,-0.2529999911785125
1622113732120,5.739999771118164,17.750999450683594,-12.791999816894531,-0.2349999994039535,-9.741999626159668,-0.3240000009536743
1622113732130,5.949999809265137,17.0939998626709,-12.69499969482422,-0.1959999948740005,-9.80500030517578,-0.414000004529953
1622113732140,5.739999771118164,16.652000427246094,-12.20400047302246,-0.1570000052452087,-9.80500030517578,-0.414000004529953
1622113732150,5.670000076293945,15.5649995803833,-11.6850004196167,-0.1180000007152557,-9.80500030517578,-0.414000004529953
1622113732160,5.179999828338623,14.52299976348877,-11.015000343322754,-0.0780000016093254,-9.80500030517578,-0.414000004529953
1622113732170,4.900000095367432,13.076000213623049,-10.062000274658203,-0.0780000016093254,-9.727999687194824,-0.4009999930858612
1622113732180,4.829999923706055,11.656999588012695,-9.67300033569336,-0.1180000007152557,-9.734999656677246,-0.3619999885559082
1622113732190,4.829999923706055,10.375,-9.258999824523924,-0.1180000007152557,-9.779999732971191,-0.3300000131130218
1622113732200,4.760000228881836,9.300999641418455,-8.809000015258789,-0.1959999948740005,-9.779999732971191,-0.3300000131130218
1622113732210,4.619999885559082,8.770000457763672,-8.618000030517578,-0.2349999994039535,-9.786999702453612,-0.2919999957084655
1622113732220,4.340000152587891,8.602999687194824,-9.286999702453612,-0.2750000059604644,-9.786999702453612,-0.2919999957084655
1622113732230,4.340000152587891,8.489999771118164,-9.449000358581545,-0.3140000104904174,-9.793999671936035,-0.2529999911785125
1622113732240,3.990000009536743,8.79800033569336,-9.182000160217283,-0.3529999852180481,-9.755000114440918,-0.2460000067949295
1622113732250,3.7100000381469727,9.232000350952148,-8.821000099182129,-0.3529999852180481,-9.710000038146973,-0.277999997138977
1622113732260,3.5,9.803999900817873,-8.435999870300293,-0.3529999852180481,-9.710000038146973,-0.277999997138977
1622113732270,3.1500000953674316,10.526000022888184,-8.095000267028809,-0.3529999852180481,-9.717000007629396,-0.2399999946355819
1622113732280,2.869999885559082,10.857999801635742,-7.9660000801086435,-0.3529999852180481,-9.717000007629396,-0.2399999946355819
1622113732290,3.009999990463257,11.109999656677246,-7.77899980545044,-0.3529999852180481,-9.717000007629396,-0.2399999946355819
1622113732300,3.1500000953674316,11.29599952697754,-8.029999732971191,-0.3529999852180481,-9.722999572753906,-0.2010000050067901
1622113732310,3.009999990463257,11.284000396728516,-7.961999893188477,-0.3140000104904174,-9.762000083923342,-0.2080000042915344
1622113732320,3.3949999809265137,11.543500900268556,-8.022500038146973,-0.3140000104904174,-9.717000007629396,-0.2399999946355819
1622113732330,3.7799999713897705,11.803000450134276,-8.083000183105469,-0.2750000059604644,-9.755000114440918,-0.2460000067949295
1622113732340,3.6400001049041744,11.607999801635742,-8.189000129699707,-0.2750000059604644,-9.755000114440918,-0.2460000067949295
1622113732350,3.5,11.75,-8.59000015258789,-0.3140000104904174,-9.807000160217283,-0.1759999990463256
1622113732360,3.2200000286102295,11.692999839782717,-8.670999526977539,-0.3140000104904174,-9.83899974822998,-0.221000000834465
1622113732370,2.6600000858306885,12.026000022888184,-8.541000366210938,-0.3529999852180481,-9.83199977874756,-0.2599999904632568
1622113732380,2.309999942779541,12.541000366210938,-8.237000465393066,-0.4309999942779541,-9.83899974822998,-0.221000000834465
1622113732390,2.1700000762939453,13.380000114440918,-8.16100025177002,-0.5490000247955322,-9.86400032043457,-0.3050000071525573
1622113732400,1.190000057220459,14.654000282287598,-7.723000049591064,-0.7450000047683715,-9.947999954223633,-0.2800000011920929
1622113732410,0.0700000002980232,17.378999710083008,-6.247000217437744,-0.981000006198883,-9.994000434875488,-0.248999997973442
1622113732420,-0.7699999809265136,21.85199928283691,-5.814000129699707,-1.1770000457763672,-9.961999893188477,-0.2029999941587448
1622113732430,-1.1200000047683716,28.055999755859375,-4.71999979019165,-1.3730000257492063,-9.897999763488768,-0.1120000034570694
1622113732440,-1.0499999523162842,35.62699890136719,-4.521999835968018,-1.4509999752044678,-9.866000175476074,-0.06700000166893
1622113732450,-1.3300000429153442,43.70800018310547,-4.802999973297119,-1.491000056266785,-9.866000175476074,-0.06700000166893
1622113732460,-1.3300000429153442,51.27899932861328,-4.605999946594238,-1.4509999752044678,-9.859999656677246,-0.1049999967217445
1622113732470,-1.2599999904632568,57.2400016784668,-3.3410000801086426,-1.4119999408721924,-9.859999656677246,-0.1049999967217445
1622113732480,-1.3300000429153442,62.89699935913086,-1.562000036239624,-1.3339999914169312,-9.814000129699709,-0.1369999945163726
1622113732490,-0.9800000190734864,68.5979995727539,0.3680000007152557,-1.215999960899353,-9.744000434875488,-0.0850000008940696
1622113732500,-0.4900000095367431,73.56600189208984,0.8169999718666076,-1.1380000114440918,-9.67300033569336,-0.032999999821186
1622113732510,0.0700000002980232,76.76499938964844,0.8119999766349792,-0.9409999847412108,-9.744000434875488,-0.0850000008940696
1622113732520,0.2800000011920929,79.052001953125,1.1449999809265137,-0.7450000047683715,-9.718999862670898,-0.0010000000474974
1622113732530,0.5600000023841857,79.93599700927734,1.371999979019165,-0.5879999995231628,-9.744000434875488,-0.0850000008940696
1622113732540,0.6299999952316284,79.81900024414062,0.4269999861717224,-0.5099999904632568,-9.717000007629396,-0.2399999946355819
1622113732550,0.3499999940395355,78.67900085449219,-0.7689999938011169,-0.3529999852180481,-9.755000114440918,-0.2460000067949295
1622113732560,-0.209999993443489,77.08899688720702,-1.830999970436096,-0.2349999994039535,-9.762000083923342,-0.2080000042915344
1622113732570,-0.3149999976158142,76.16650390625,-2.242500066757202,-0.1180000007152557,-9.762000083923342,-0.2080000042915344
1622113732580,-0.4199999868869781,75.24400329589844,-2.6540000438690186,0.0,-9.717000007629396,-0.2399999946355819
1622113732590,-0.7699999809265136,72.34500122070312,-3.947000026702881,0.0780000016093254,-9.755000114440918,-0.2460000067949295
1622113732600,-0.7699999809265136,68.44300079345703,-5.203999996185303,0.1180000007152557,-9.717000007629396,-0.2399999946355819
1622113732610,-0.9100000262260436,64.88700103759766,-6.400000095367432,0.1959999948740005,-9.710000038146973,-0.277999997138977
1622113732620,-0.8399999737739563,61.362998962402344,-7.375999927520752,0.1959999948740005,-9.663999557495115,-0.3100000023841857
1622113732630,-1.0499999523162842,58.095001220703125,-8.593000411987305,0.1959999948740005,-9.70300006866455,-0.31700000166893
1622113732640,-1.190000057220459,54.99700164794922,-9.5649995803833,0.1959999948740005,-9.696000099182127,-0.3549999892711639
1622113732650,-1.2599999904632568,51.88199996948242,-10.04300022125244,0.1959999948740005,-9.734999656677246,-0.3619999885559082
1622113732660,-1.3300000429153442,49.18199920654297,-10.447999954223633,0.1959999948740005,-9.734999656677246,-0.3619999885559082
1622113732670,-1.1200000047683716,46.6150016784668,-10.402999877929688,0.1570000052452087,-9.727999687194824,-0.4009999930858612
1622113732680,-1.1200000047683716,44.01499938964844,-10.57699966430664,0.1959999948740005,-9.696000099182127,-0.3549999892711639
1622113732690,-0.9800000190734864,41.63899993896485,-10.00100040435791,0.1570000052452087,-9.689000129699709,-0.3939999938011169
1622113732700,-0.8399999737739563,39.506000518798835,-9.595999717712402,0.1570000052452087,-9.675999641418455,-0.4709999859333038
1622113732710,-0.6299999952316284,37.17499923706055,-8.869000434875488,0.0780000016093254,-9.689000129699709,-0.3939999938011169
1622113732720,-0.3499999940395355,35.47600173950195,-8.102999687194824,0.1180000007152557,-9.682000160217283,-0.4329999983310699
1622113732730,-0.0700000002980232,33.26599884033203,-8.065999984741211,0.1180000007152557,-9.682000160217283,-0.4329999983310699
1622113732740,0.0700000002980232,31.274999618530273,-8.062000274658203,0.1570000052452087,-9.71399974822998,-0.4779999852180481
1622113732750,0.209999993443489,29.645000457763672,-8.491000175476074,0.1570000052452087,-9.71399974822998,-0.4779999852180481
1622113732760,0.0,28.076000213623047,-8.057000160217285,0.1180000007152557,-9.753000259399414,-0.4850000143051147
1622113732770,-0.4199999868869781,26.474000930786133,-7.842000007629395,0.0780000016093254,-9.746000289916992,-0.5239999890327453
1622113732780,-0.4900000095367431,25.363000869750977,-7.184999942779541,0.0780000016093254,-9.78499984741211,-0.5299999713897705
1622113732790,-0.7699999809265136,23.882999420166016,-6.451000213623047,0.0390000008046627,-9.746000289916992,-0.5239999890327453
1622113732800,-0.699999988079071,23.35199928283691,-6.260000228881836,0.0390000008046627,-9.71399974822998,-0.4779999852180481
1622113732810,-0.6299999952316284,22.820999145507812,-6.068999767303467,0.0780000016093254,-9.71399974822998,-0.4779999852180481
1622113732820,-0.5600000023841857,21.542999267578125,-6.080999851226807,0.0390000008046627,-9.70699977874756,-0.5170000195503234
1622113732830,0.0,20.62299919128418,-6.1020002365112305,0.0390000008046627,-9.668999671936035,-0.5099999904632568
1622113732840,0.4900000095367431,19.301000595092773,-6.263999938964844,0.0390000008046627,-9.70699977874756,-0.5170000195503234
1622113732850,0.9800000190734864,18.243000030517575,-6.308000087738037,0.1180000007152557,-9.647999763488768,-0.6259999871253967
1622113732860,1.190000057220459,17.20400047302246,-6.065000057220459,0.1180000007152557,-9.661999702453612,-0.5490000247955322
1622113732870,1.4700000286102295,15.850000381469728,-6.446000099182129,0.0780000016093254,-9.675999641418455,-0.4709999859333038
1622113732880,1.75,14.38599967956543,-6.205999851226807,0.0390000008046627,-9.661999702453612,-0.5490000247955322
1622113732890,1.399999976158142,12.994999885559082,-6.380000114440918,0.0390000008046627,-9.70699977874756,-0.5170000195503234
1622113732900,1.0499999523162842,11.348999977111816,-6.315000057220459,0.0390000008046627,-9.70699977874756,-0.5170000195503234
1622113732910,1.3300000429153442,10.659999847412108,-6.436999797821045,0.0,-9.746000289916992,-0.5239999890327453
1622113732920,1.190000057220459,9.83199977874756,-6.583000183105469,0.0,-9.746000289916992,-0.5239999890327453
1622113732930,1.3300000429153442,8.993000030517578,-6.659999847412109,0.0390000008046627,-9.71399974822998,-0.4779999852180481
1622113732940,1.2599999904632568,8.140999794006348,-6.668000221252441,0.0,-9.71399974822998,-0.4779999852180481
1622113732950,1.1200000047683716,7.520999908447266,-6.7769999504089355,-0.0390000008046627,-9.71399974822998,-0.4779999852180481
1622113732960,0.9100000262260436,7.370999813079834,-6.73199987411499,-0.0780000016093254,-9.746000289916992,-0.5239999890327453
1622113732970,0.7699999809265136,7.269999980926514,-6.9629998207092285,-0.0780000016093254,-9.753000259399414,-0.4850000143051147
1622113732980,0.6299999952316284,7.46400022506714,-6.857999801635742,-0.0390000008046627,-9.753000259399414,-0.4850000143051147
1622113732990,0.4199999868869781,7.427999973297118,-6.651000022888184,-0.0780000016093254,-9.71399974822998,-0.4779999852180481
1622113733000,0.209999993443489,8.01200008392334,-6.335000038146973,-0.0780000016093254,-9.760000228881836,-0.4460000097751617
1622113733010,0.209999993443489,8.388999938964844,-6.054999828338623,-0.1180000007152557,-9.79800033569336,-0.453000009059906
1622113733020,0.1049999967217445,8.577499389648438,-5.915499687194824,-0.1570000052452087,-9.79800033569336,-0.453000009059906
1622113733030,0.0,8.765999794006348,-5.776000022888184,-0.1570000052452087,-9.720999717712402,-0.4390000104904174
1622113733040,-0.209999993443489,9.199999809265137,-5.414999961853027,-0.1570000052452087,-9.720999717712402,-0.4390000104904174
1622113733050,-0.1400000005960464,9.718999862670898,-5.535999774932861,-0.1570000052452087,-9.71399974822998,-0.4779999852180481
1622113733060,0.1400000005960464,10.286999702453612,-5.934000015258789,-0.1959999948740005,-9.720999717712402,-0.4390000104904174
1622113733070,-0.1400000005960464,10.850000381469728,-5.906000137329102,-0.1570000052452087,-9.71399974822998,-0.4779999852180481
1622113733080,-0.2800000011920929,11.0649995803833,-5.51200008392334,-0.1570000052452087,-9.753000259399414,-0.4850000143051147
1622113733090,-0.0700000002980232,11.272000312805176,-5.47599983215332,-0.1570000052452087,-9.71399974822998,-0.4779999852180481
1622113733100,-0.209999993443489,11.402000427246094,-5.808000087738037,-0.1180000007152557,-9.71399974822998,-0.4779999852180481
1622113733110,0.0700000002980232,11.008999824523926,-5.5929999351501465,-0.1180000007152557,-9.71399974822998,-0.4779999852180481
1622113733120,0.209999993443489,11.19499969482422,-5.84499979019165,-0.1570000052452087,-9.675999641418455,-0.4709999859333038
1622113733130,0.209999993443489,11.090000152587892,-5.650000095367432,-0.1959999948740005,-9.70699977874756,-0.5170000195503234
1622113733140,0.1400000005960464,10.857999801635742,-5.548999786376953,-0.1180000007152557,-9.70699977874756,-0.5170000195503234
1622113733150,0.0,10.930999755859377,-5.961999893188477,-0.1180000007152557,-9.732000350952148,-0.6010000109672546
1622113733160,0.209999993443489,10.68000030517578,-6.14900016784668,-0.0780000016093254,-9.73900032043457,-0.5619999766349792
1622113733170,0.1400000005960464,10.399999618530272,-5.771999835968018,-0.0780000016093254,-9.73900032043457,-0.5619999766349792
1622113733180,-0.4199999868869781,10.234000205993652,-5.23199987411499,-0.0780000016093254,-9.746000289916992,-0.5239999890327453
1622113733190,-0.6299999952316284,10.076000213623049,-5.545000076293945,-0.0780000016093254,-9.791999816894531,-0.492000013589859
1622113733200,-1.190000057220459,10.229999542236328,-6.014999866485596,-0.0390000008046627,-9.791999816894531,-0.492000013589859
1622113733210,-1.5399999618530271,9.965999603271484,-6.132999897003174,-0.0780000016093254,-9.836999893188477,-0.4600000083446502
1622113733220,-1.5750000476837158,9.856499671936035,-6.116499900817871,-0.0780000016093254,-9.822999954223633,-0.537000000476837
1622113733230,-1.6100000143051147,9.746999740600586,-6.099999904632568,-0.0780000016093254,-9.791999816894531,-0.492000013589859
1622113733240,-1.399999976158142,9.147000312805178,-5.921999931335449,-0.0780000016093254,-9.791999816894531,-0.492000013589859
1622113733250,-1.6100000143051147,8.668999671936035,-5.223999977111816,-0.0780000016093254,-9.79800033569336,-0.453000009059906
1622113733260,-1.190000057220459,8.62399959564209,-5.374000072479248,-0.0780000016093254,-9.746000289916992,-0.5239999890327453
