timestamp,gyro_x,gyro_y,gyro_z,acc_x,acc_y,acc_z
1621593163033,0.0,0.0,0.0,0.0,0.0,0.0
1621593163682,-0.1400000005960464,6.434000015258789,-8.675000190734863,-1.5299999713897705,-9.487000465393066,-1.3140000104904177
1621593163692,0.2800000011920929,5.964000225067139,-8.829000473022461,-1.5299999713897705,-9.526000022888184,-1.3209999799728394
1621593163702,0.2800000011920929,6.01200008392334,-9.104000091552734,-1.4509999752044678,-9.538999557495115,-1.24399995803833
1621593163712,0.7699999809265136,5.874000072479248,-9.128999710083008,-1.491000056266785,-9.50100040435791,-1.2369999885559082
1621593163722,1.2599999904632568,5.493000030517578,-8.982999801635742,-1.4509999752044678,-9.51900005340576,-1.3600000143051147
1621593163732,1.75,5.460999965667725,-9.20199966430664,-1.491000056266785,-9.532999992370604,-1.2829999923706057
1621593163742,1.6799999475479126,5.550000190734863,-8.901000022888184,-1.491000056266785,-9.532999992370604,-1.2829999923706057
1621593163752,1.8200000524520872,4.999000072479248,-8.99899959564209,-1.491000056266785,-9.532999992370604,-1.2829999923706057
1621593163762,1.8200000524520872,4.730999946594238,-8.690999984741211,-1.491000056266785,-9.538999557495115,-1.24399995803833
1621593163772,2.0999999046325684,4.697999954223633,-8.909000396728516,-1.5299999713897705,-9.57800006866455,-1.2510000467300415
1621593163782,2.0999999046325684,4.381999969482422,-8.326000213623047,-1.4509999752044678,-9.571000099182127,-1.2890000343322754
1621593163792,2.1700000762939453,4.046000003814697,-8.029000282287598,-1.491000056266785,-9.57800006866455,-1.2510000467300415
1621593163802,2.1700000762939453,3.67300009727478,-7.526999950408936,-1.491000056266785,-9.57800006866455,-1.2510000467300415
1621593163812,2.0299999713897705,3.3570001125335693,-6.942999839782715,-1.5299999713897705,-9.57800006866455,-1.2510000467300415
1621593163822,2.0999999046325684,3.2070000171661377,-6.8979997634887695,-1.5299999713897705,-9.538999557495115,-1.24399995803833
1621593163832,2.0999999046325684,2.861999988555908,-6.959000110626221,-1.569000005722046,-9.54599952697754,-1.2050000429153442
1621593163842,2.0999999046325684,2.609999895095825,-7.144999980926514,-1.6080000400543213,-9.54599952697754,-1.2050000429153442
1621593163852,1.8899998664855957,2.431999921798706,-7.140999794006348,-1.569000005722046,-9.54599952697754,-1.2050000429153442
1621593163862,1.6799999475479126,2.253999948501587,-7.13700008392334,-1.6080000400543213,-9.526000022888184,-1.3209999799728394
1621593163872,1.6100000143051147,2.4040000438690186,-7.182000160217285,-1.6080000400543213,-9.532999992370604,-1.2829999923706057
1621593163882,1.2599999904632568,2.2980000972747803,-6.986999988555908,-1.6480000019073486,-9.57800006866455,-1.2510000467300415
1621593163892,0.9800000190734864,2.3910000324249268,-7.11299991607666,-1.6080000400543213,-9.585000038146973,-1.212000012397766
1621593163902,0.2800000011920929,2.427999973297119,-7.320000171661377,-1.6480000019073486,-9.592000007629396,-1.1729999780654907
1621593163912,-0.1400000005960464,2.371000051498413,-7.401000022888184,-1.6480000019073486,-9.592000007629396,-1.1729999780654907
1621593163922,0.0,2.500999927520752,-7.732999801635742,-1.6080000400543213,-9.54599952697754,-1.2050000429153442
1621593163932,-0.0700000002980232,2.5250000953674316,-7.870999813079834,-1.6480000019073486,-9.553000450134276,-1.1670000553131104
1621593163942,-0.2800000011920929,2.8580000400543213,-7.741000175476073,-1.6480000019073486,-9.54599952697754,-1.2050000429153442
1621593163952,-0.209999993443489,3.0810000896453857,-8.199999809265137,-1.6480000019073486,-9.538999557495115,-1.24399995803833
1621593163962,-0.4900000095367431,3.186000108718872,-8.394000053405762,-1.6480000019073486,-9.508000373840332,-1.1979999542236328
1621593163972,-0.5600000023841857,3.4170000553131104,-8.496000289916992,-1.6480000019073486,-9.508000373840332,-1.1979999542236328
1621593163982,-0.4199999868869781,3.7170000076293945,-8.585000038146973,-1.6080000400543213,-9.47599983215332,-1.1529999971389773
1621593163992,-0.5600000023841857,3.67300009727478,-8.734999656677246,-1.6080000400543213,-9.513999938964846,-1.1599999666213987
1621593164002,-0.4199999868869781,3.900000095367432,-8.41100025177002,-1.569000005722046,-9.508000373840332,-1.1979999542236328
1621593164012,-0.2800000011920929,3.9809999465942383,-8.467000007629395,-1.569000005722046,-9.54599952697754,-1.2050000429153442
1621593164022,-0.3499999940395355,4.175000190734863,-8.362000465393066,-1.569000005722046,-9.508000373840332,-1.1979999542236328
1621593164032,-0.1400000005960464,4.349999904632568,-8.543999671936035,-1.5299999713897705,-9.508000373840332,-1.1979999542236328
1621593164042,-0.3499999940395355,4.702000141143799,-9.335000038146973,-1.569000005722046,-9.538999557495115,-1.24399995803833
1621593164052,-0.3499999940395355,4.896999835968018,-9.229999542236328,-1.569000005722046,-9.57800006866455,-1.2510000467300415
1621593164062,-0.699999988079071,5.116000175476074,-9.262000083923342,-1.6080000400543213,-9.585000038146973,-1.212000012397766
1621593164072,-1.190000057220459,5.497000217437744,-9.407999992370604,-1.6080000400543213,-9.57800006866455,-1.2510000467300415
1621593164082,-1.4700000286102295,5.531499862670898,-9.402000427246092,-1.569000005722046,-9.538999557495115,-1.24399995803833
1621593164092,-1.75,5.565999984741211,-9.395999908447264,-1.569000005722046,-9.571000099182127,-1.2890000343322754
1621593164102,-2.0299999713897705,5.761000156402588,-9.291000366210936,-1.5299999713897705,-9.616999626159668,-1.2580000162124634
1621593164112,-1.8200000524520872,5.866000175476074,-9.484999656677246,-1.569000005722046,-9.57800006866455,-1.2510000467300415
1621593164122,-1.8899999856948853,6.015999794006348,-9.529999732971191,-1.5299999713897705,-9.54599952697754,-1.2050000429153442
1621593164132,-1.9600000381469729,6.052999973297119,-8.527999877929688,-1.5299999713897705,-9.50100040435791,-1.2369999885559082
1621593164142,-1.75,5.992000102996826,-8.184000015258789,-1.569000005722046,-9.532999992370604,-1.2829999923706057
1621593164152,-1.399999976158142,5.984000205993652,-8.541000366210938,-1.569000005722046,-9.538999557495115,-1.24399995803833
1621593164162,-1.1200000047683716,6.669000148773193,-9.20199966430664,-1.569000005722046,-9.532999992370604,-1.2829999923706057
1621593164172,-1.0499999523162842,7.041999816894531,-9.704999923706056,-1.569000005722046,-9.532999992370604,-1.2829999923706057
1621593164182,-1.3300000429153442,7.1519999504089355,-10.324999809265137,-1.5299999713897705,-9.532999992370604,-1.2829999923706057
1621593164192,-1.4700000286102295,7.382999897003175,-10.425999641418455,-1.569000005722046,-9.532999992370604,-1.2829999923706057
1621593164202,-1.6799999475479126,7.512000083923339,-10.758999824523926,-1.5299999713897705,-9.57800006866455,-1.2510000467300415
1621593164212,-1.9600000381469729,7.828999996185303,-11.343000411987305,-1.5299999713897705,-9.609999656677246,-1.2960000038146973
1621593164222,-1.8200000524520872,8.23799991607666,-12.053000450134276,-1.491000056266785,-9.616999626159668,-1.2580000162124634
1621593164232,-1.9600000381469729,8.854000091552734,-12.72599983215332,-1.491000056266785,-9.571000099182127,-1.2890000343322754
1621593164242,-2.240000009536743,8.927000045776367,-13.138999938964844,-1.4509999752044678,-9.532999992370604,-1.2829999923706057
1621593164252,-2.0299999713897705,8.906999588012695,-13.427000045776367,-1.4119999408721924,-9.532999992370604,-1.2829999923706057
1621593164262,-1.6799999475479126,9.470999717712402,-13.39900016784668,-1.3730000257492063,-9.508000373840332,-1.1979999542236328
1621593164272,-0.9800000190734864,9.729999542236328,-14.064000129699709,-1.3730000257492063,-9.494000434875488,-1.2760000228881836
1621593164282,-0.4199999868869781,9.791000366210936,-14.409000396728516,-1.3730000257492063,-9.487000465393066,-1.3140000104904177
1621593164292,0.0700000002980232,9.6850004196167,-14.21399974822998,-1.3339999914169312,-9.508000373840332,-1.1979999542236328
1621593164302,0.1400000005960464,9.63249969482422,-14.116499900817873,-1.3730000257492063,-9.532999992370604,-1.2829999923706057
1621593164312,0.209999993443489,9.579999923706056,-14.019000053405762,-1.3339999914169312,-9.532999992370604,-1.2829999923706057
1621593164322,0.4199999868869781,9.753999710083008,-14.20199966430664,-1.3339999914169312,-9.571000099182127,-1.2890000343322754
1621593164332,0.8399999737739563,9.5600004196167,-14.307000160217283,-1.3339999914169312,-9.571000099182127,-1.2890000343322754
1621593164342,0.9100000262260436,9.710000038146973,-14.35200023651123,-1.3339999914169312,-9.571000099182127,-1.2890000343322754
1621593164352,0.9100000262260436,9.555999755859377,-13.881999969482422,-1.2940000295639038,-9.564000129699709,-1.3279999494552612
1621593164362,1.0499999523162842,9.555999755859377,-13.881999969482422,-1.2549999952316284,-9.532999992370604,-1.2829999923706057
1621593164372,1.1200000047683716,9.11400032043457,-13.390999794006348,-1.2549999952316284,-9.602999687194824,-1.3350000381469729
1621593164382,1.3300000429153442,8.814000129699707,-13.302000045776367,-1.2549999952316284,-9.571000099182127,-1.2890000343322754
1621593164392,1.5399999618530271,8.98799991607666,-13.484000205993652,-1.2549999952316284,-9.616999626159668,-1.2580000162124634
1621593164402,1.399999976158142,8.723999977111816,-13.60200023651123,-1.2940000295639038,-9.571000099182127,-1.2890000343322754
1621593164412,1.4700000286102295,8.833999633789062,-14.222000122070312,-1.2549999952316284,-9.609999656677246,-1.2960000038146973
1621593164422,0.9100000262260436,8.57800006866455,-13.982999801635742,-1.2549999952316284,-9.616999626159668,-1.2580000162124634
1621593164432,0.2800000011920929,8.57800006866455,-13.982999801635742,-1.215999960899353,-9.661999702453612,-1.22599995136261
1621593164441,-0.209999993443489,8.79699993133545,-14.015000343322754,-1.2549999952316284,-9.701000213623049,-1.2330000400543213
1621593164451,-0.5600000023841857,8.92300033569336,-13.921999931335447,-1.215999960899353,-9.668999671936035,-1.187000036239624
1621593164461,-0.9800000190734864,8.939000129699707,-14.416999816894531,-1.215999960899353,-9.661999702453612,-1.22599995136261
1621593164471,-1.3300000429153442,9.628999710083008,-14.295000076293944,-1.215999960899353,-9.661999702453612,-1.22599995136261
1621593164481,-1.6100000143051147,9.758000373840332,-14.628000259399414,-1.1770000457763672,-9.62399959564209,-1.218999981880188
1621593164491,-2.380000114440918,10.013999938964844,-14.866999626159668,-1.1770000457763672,-9.616999626159668,-1.2580000162124634
1621593164501,-2.6600000858306885,9.895999908447264,-14.602999687194824,-1.0980000495910645,-9.62399959564209,-1.218999981880188
1621593164511,-3.2899999618530273,9.928999900817873,-14.383999824523926,-1.1380000114440918,-9.616999626159668,-1.2580000162124634
1621593164521,-3.46500015258789,10.194499969482422,-14.479499816894531,-1.0980000495910645,-9.654999732971191,-1.2640000581741333
1621593164531,-3.6400001049041744,10.460000038146973,-14.574999809265137,-1.1380000114440918,-9.616999626159668,-1.2580000162124634
1621593164541,-3.990000009536743,10.62600040435791,-15.11400032043457,-1.0590000152587893,-9.64900016784668,-1.3029999732971191
1621593164551,-4.269999980926514,10.70699977874756,-15.17099952697754,-1.0199999809265137,-9.616999626159668,-1.2580000162124634
1621593164561,-4.690000057220459,10.26099967956543,-15.463000297546388,-0.981000006198883,-9.654999732971191,-1.2640000581741333
1621593164571,-4.900000095367432,10.111000061035156,-15.41800022125244,-0.981000006198883,-9.602999687194824,-1.3350000381469729
1621593164581,-5.25,9.925000190734863,-15.166999816894531,-0.9020000100135804,-9.564000129699709,-1.3279999494552612
1621593164591,-5.110000133514404,9.899999618530272,-15.029000282287598,-0.9020000100135804,-9.564000129699709,-1.3279999494552612
1621593164601,-4.96999979019165,9.567999839782717,-15.159000396728516,-0.8629999756813049,-9.564000129699709,-1.3279999494552612
1621593164611,-4.829999923706055,9.243000030517578,-14.932000160217283,-0.8629999756813049,-9.564000129699709,-1.3279999494552612
1621593164621,-4.690000057220459,9.03600025177002,-14.968000411987305,-0.8240000009536743,-9.55799961090088,-1.3669999837875366
1621593164631,-4.550000190734863,8.732000350952148,-14.453000068664553,-0.8240000009536743,-9.55799961090088,-1.3669999837875366
1621593164641,-4.690000057220459,8.432000160217285,-14.36400032043457,-0.8240000009536743,-9.55799961090088,-1.3669999837875366
1621593164651,-4.480000019073486,8.177000045776367,-14.125,-0.8240000009536743,-9.505000114440918,-1.437000036239624
1621593164661,-4.130000114440918,8.067999839782715,-13.503999710083008,-0.7850000262260437,-9.505000114440918,-1.437000036239624
1621593164671,-3.7799999713897705,7.710999965667725,-13.496000289916992,-0.7850000262260437,-9.49899959564209,-1.47599995136261
1621593164681,-3.430000066757202,7.208000183105469,-12.66100025177002,-0.7450000047683715,-9.491999626159668,-1.5140000581741333
1621593164691,-2.799999952316284,6.438000202178955,-11.517000198364258,-0.7850000262260437,-9.52400016784668,-1.559999942779541
1621593164701,-1.9600000381469729,5.854000091552734,-10.625,-0.7450000047683715,-9.45300006866455,-1.5080000162124634
1621593164711,-0.7699999809265136,5.189000129699707,-9.675999641418455,-0.7450000047683715,-9.369000434875488,-1.5329999923706057
1621593164721,0.0,4.797500133514404,-9.673999786376951,-0.7450000047683715,-9.37600040435791,-1.49399995803833
1621593164731,0.7699999809265136,4.406000137329102,-9.671999931335447,-0.6669999957084655,-9.388999938964846,-1.4170000553131104
1621593164741,1.8200000524520872,3.78600001335144,-9.781000137329102,-0.7059999704360961,-9.383000373840332,-1.4550000429153442
1621593164751,2.7300000190734863,2.994999885559082,-10.133999824523926,-0.7059999704360961,-9.42099952697754,-1.462000012397766
1621593164761,3.5,2.7070000171661377,-10.11400032043457,-0.7059999704360961,-9.467000007629396,-1.4299999475479126
1621593164771,4.059999942779541,2.5820000171661377,-10.20699977874756,-0.7450000047683715,-9.543999671936035,-1.444000005722046
1621593164781,4.619999885559082,2.2730000019073486,-10.473999977111816,-0.7450000047683715,-9.58899974822998,-1.4119999408721924
1621593164791,4.900000095367432,2.302000045776367,-11.038000106811523,-0.7850000262260437,-9.635000228881836,-1.3799999952316284
1621593164801,5.039999961853027,2.325999975204468,-11.175999641418455,-0.7850000262260437,-9.55799961090088,-1.3669999837875366
1621593164811,5.110000133514404,2.5369999408721924,-11.5649995803833,-0.7450000047683715,-9.55799961090088,-1.3669999837875366
1621593164821,5.599999904632568,2.687000036239624,-11.609999656677246,-0.7850000262260437,-9.564000129699709,-1.3279999494552612
1621593164831,6.159999847412109,2.999000072479248,-11.767999649047852,-0.7850000262260437,-9.526000022888184,-1.3209999799728394
1621593164841,6.650000095367432,3.7739999294281006,-12.128999710083008,-0.7450000047683715,-9.494000434875488,-1.2760000228881836
1621593164851,7.070000171661377,4.369999885559082,-11.881999969482422,-0.7059999704360961,-9.532999992370604,-1.2829999923706057
1621593164861,7.0,4.913000106811523,-12.140999794006348,-0.7450000047683715,-9.64900016784668,-1.3029999732971191
1621593164871,6.789999961853027,5.520999908447266,-11.963000297546388,-0.7450000047683715,-9.694000244140623,-1.2710000276565552
1621593164881,6.440000057220459,6.611999988555908,-11.699999809265137,-0.7450000047683715,-9.73900032043457,-1.2389999628067017
1621593164891,5.670000076293945,7.249000072479248,-10.87600040435791,-0.7450000047683715,-9.777999877929688,-1.2460000514984133
1621593164901,4.760000228881836,7.484000205993653,-10.19499969482422,-0.7450000047683715,-9.822999954223633,-1.2139999866485596
1621593164911,3.849999904632568,8.34000015258789,-9.404999732971191,-0.7450000047683715,-9.829999923706056,-1.1759999990463257
1621593164921,3.569999933242798,8.704999923706055,-9.055999755859377,-0.7059999704360961,-9.829999923706056,-1.1759999990463257
1621593164931,3.2899999618530273,9.06999969482422,-8.706999778747559,-0.6669999957084655,-9.791999816894531,-1.1690000295639038
1621593164941,2.240000009536743,9.272999763488768,-8.244999885559082,-0.7059999704360961,-9.791999816894531,-1.1690000295639038
1621593164951,2.0999999046325684,9.593000411987305,-8.045999526977539,-0.6669999957084655,-9.760000228881836,-1.1230000257492063
1621593164961,1.4700000286102295,9.958000183105469,-7.697999954223632,-0.6280000209808348,-9.760000228881836,-1.1230000257492063
1621593164971,1.4700000286102295,10.291000366210936,-7.567999839782715,-0.6280000209808348,-9.753000259399414,-1.1619999408721924
1621593164981,1.1200000047683716,10.295000076293944,-6.784999847412109,-0.6669999957084655,-9.708000183105469,-1.194000005722046
1621593164991,0.4900000095367431,10.095999717712402,-6.465000152587891,-0.6280000209808348,-9.71399974822998,-1.1549999713897705
1621593165001,0.4900000095367431,9.645999908447264,-6.330999851226807,-0.6280000209808348,-9.71399974822998,-1.1549999713897705
1621593165011,0.0700000002980232,9.496000289916992,-6.2870001792907715,-0.5490000247955322,-9.746000289916992,-1.2009999752044678
1621593165021,-0.2800000011920929,9.227999687194824,-5.978000164031982,-0.5879999995231628,-9.708000183105469,-1.194000005722046
1621593165031,-0.209999993443489,8.866999626159668,-5.544000148773193,-0.5490000247955322,-9.708000183105469,-1.194000005722046
1621593165041,-0.5600000023841857,8.21500015258789,-5.873000144958496,-0.5490000247955322,-9.675999641418455,-1.1480000019073486
1621593165051,-0.699999988079071,7.719999790191651,-5.888999938964844,-0.5879999995231628,-9.668999671936035,-1.187000036239624
1621593165061,-0.7699999809265136,7.4120001792907715,-6.1570000648498535,-0.5879999995231628,-9.708000183105469,-1.194000005722046
1621593165071,-0.6299999952316284,6.90500020980835,-6.104000091552734,-0.6280000209808348,-9.630000114440918,-1.1799999475479126
1621593165081,-0.699999988079071,6.336999893188477,-5.705999851226807,-0.7059999704360961,-9.661999702453612,-1.22599995136261
1621593165091,-0.6299999952316284,6.228000164031982,-6.294000148773193,-0.7059999704360961,-9.661999702453612,-1.22599995136261
1621593165101,-0.699999988079071,5.870999813079834,-6.285999774932861,-0.6669999957084655,-9.661999702453612,-1.22599995136261
1621593165111,-0.4900000095367431,5.639999866485596,-6.184999942779541,-0.7059999704360961,-9.661999702453612,-1.22599995136261
1621593165121,-0.7350000143051147,5.5264997482299805,-6.3470001220703125,-0.7059999704360961,-9.701000213623049,-1.2330000400543213
1621593165131,-0.9800000190734864,5.413000106811523,-6.508999824523926,-0.7059999704360961,-9.661999702453612,-1.22599995136261
1621593165141,-0.7699999809265136,4.994999885559082,-6.156000137329102,-0.7059999704360961,-9.701000213623049,-1.2330000400543213
1621593165151,-0.9100000262260436,5.019000053405762,-6.294000148773193,-0.7059999704360961,-9.701000213623049,-1.2330000400543213
1621593165161,-1.190000057220459,4.906000137329102,-6.455999851226807,-0.7059999704360961,-9.661999702453612,-1.22599995136261
1621593165171,-1.1200000047683716,4.3460001945495605,-6.909999847412109,-0.7059999704360961,-9.661999702453612,-1.22599995136261
1621593165181,-1.1200000047683716,4.188000202178955,-7.223000049591064,-0.7450000047683715,-9.661999702453612,-1.22599995136261
1621593165191,-1.399999976158142,4.005000114440918,-7.396999835968018,-0.7450000047683715,-9.661999702453612,-1.22599995136261
1621593165201,-1.4700000286102295,3.8310000896453857,-7.21400022506714,-0.7059999704360961,-9.616999626159668,-1.2580000162124634
1621593165211,-1.8200000524520872,3.611999988555908,-7.182000160217285,-0.7059999704360961,-9.609999656677246,-1.2960000038146973
1621593165221,-2.0299999713897705,3.4010000228881836,-6.793000221252441,-0.7059999704360961,-9.64900016784668,-1.3029999732971191
1621593165231,-1.9600000381469729,2.950999975204468,-6.658999919891357,-0.7850000262260437,-9.64900016784668,-1.3029999732971191
1621593165241,-1.9600000381469729,3.11299991607666,-6.771999835968018,-0.7059999704360961,-9.687000274658203,-1.309999942779541
1621593165251,-1.8200000524520872,2.489000082015991,-6.455999851226807,-0.7059999704360961,-9.609999656677246,-1.2960000038146973
1621593165261,-1.190000057220459,1.491000056266785,-5.63700008392334,-0.6669999957084655,-9.538999557495115,-1.24399995803833
1621593165271,-0.4900000095367431,0.8100000023841857,-5.401000022888184,-0.6669999957084655,-9.494000434875488,-1.2760000228881836
1621593165281,0.209999993443489,0.0970000028610229,-5.385000228881836,-0.7059999704360961,-9.532999992370604,-1.2829999923706057
1621593165291,0.699999988079071,-0.3819999992847442,-5.895999908447266,-0.6669999957084655,-9.553000450134276,-1.1670000553131104
1621593165301,0.5600000023841857,-0.7059999704360961,-5.669000148773193,-0.7059999704360961,-9.668999671936035,-1.187000036239624
1621593165311,0.0700000077486038,-0.7059999704360961,-5.669000148773193,-0.7450000047683715,-9.701000213623049,-1.2330000400543213
1621593165321,-0.4199999868869781,-0.7059999704360961,-5.669000148773193,-0.7850000262260437,-9.732999801635742,-1.2779999971389773
1621593165331,-1.190000057220459,-0.7549999952316284,-5.39300012588501,-0.7850000262260437,-9.73900032043457,-1.2389999628067017
1621593165341,-2.380000114440918,-0.6010000109672546,-4.65500020980835,-0.8240000009536743,-9.777999877929688,-1.2460000514984133
1621593165351,-2.869999885559082,-0.7020000219345092,-4.886000156402588,-0.7850000262260437,-9.73900032043457,-1.2389999628067017
1621593165361,-3.569999933242798,-0.1019999980926513,-5.065000057220459,-0.7850000262260437,-9.701000213623049,-1.2330000400543213
1621593165371,-3.7100000381469727,0.0839999988675117,-5.315999984741211,-0.7850000262260437,-9.71399974822998,-1.1549999713897705
1621593165381,-3.7799999713897705,0.0839999988675117,-5.315999984741211,-0.8240000009536743,-9.71399974822998,-1.1549999713897705
1621593165391,-3.7799999713897705,0.5019999742507933,-5.669000148773193,-0.8629999756813049,-9.637000083923342,-1.1419999599456787
1621593165401,-3.6400001049041744,0.9639999866485596,-5.872000217437744,-0.8629999756813049,-9.630000114440918,-1.1799999475479126
1621593165411,-3.2200000286102295,1.2929999828338623,-6.525000095367432,-0.9020000100135804,-9.654999732971191,-1.2640000581741333
1621593165421,-3.430000066757202,1.6169999837875366,-6.751999855041504,-0.9020000100135804,-9.654999732971191,-1.2640000581741333
1621593165431,-3.569999933242798,1.98199999332428,-6.4029998779296875,-0.9020000100135804,-9.701000213623049,-1.2330000400543213
1621593165441,-3.359999895095825,2.36299991607666,-6.548999786376953,-0.9020000100135804,-9.708000183105469,-1.194000005722046
1621593165451,-3.6400001049041744,2.615000009536743,-6.36299991607666,-0.9020000100135804,-9.746000289916992,-1.2009999752044678
1621593165461,-3.5,3.1659998893737793,-6.264999866485596,-0.9020000100135804,-9.708000183105469,-1.194000005722046
1621593165471,-3.2200000286102295,3.3399999141693115,-6.447999954223633,-0.9409999847412108,-9.661999702453612,-1.22599995136261
1621593165481,-2.869999885559082,3.822999954223633,-6.36299991607666,-0.9409999847412108,-9.661999702453612,-1.22599995136261
1621593165491,-2.450000047683716,3.9609999656677246,-6.339000225067139,-0.9409999847412108,-9.62399959564209,-1.218999981880188
1621593165501,-2.3450000286102295,4.053999900817871,-6.464500427246094,-0.9409999847412108,-9.57800006866455,-1.2510000467300415
1621593165511,-2.240000009536743,4.146999835968018,-6.590000152587891,-0.9020000100135804,-9.585000038146973,-1.212000012397766
1621593165521,-1.75,4.171999931335449,-6.728000164031982,-0.9409999847412108,-9.54599952697754,-1.2050000429153442
1621593165531,-1.190000057220459,4.645999908447266,-7.0,-0.9020000100135804,-9.57800006866455,-1.2510000467300415
1621593165541,-0.9100000262260436,4.678999900817871,-6.781000137329102,-0.9409999847412108,-9.54599952697754,-1.2050000429153442
1621593165551,-0.9800000190734864,4.958000183105469,-7.1579999923706055,-0.9020000100135804,-9.571000099182127,-1.2890000343322754
1621593165561,-0.8399999737739563,5.076000213623047,-7.421000003814697,-0.9020000100135804,-9.564000129699709,-1.3279999494552612
1621593165571,-0.9100000262260436,5.169000148773193,-7.546999931335449,-0.9020000100135804,-9.609999656677246,-1.2960000038146973
1621593165581,-0.9800000190734864,5.2870001792907715,-7.810999870300293,-0.9409999847412108,-9.602999687194824,-1.3350000381469729
1621593165591,-0.8399999737739563,5.829999923706055,-8.069999694824219,-0.9020000100135804,-9.602999687194824,-1.3350000381469729
1621593165601,-0.8399999737739563,6.110000133514404,-8.446999549865723,-0.9020000100135804,-9.602999687194824,-1.3350000381469729
1621593165611,-0.6299999952316284,6.215000152587891,-8.642000198364258,-0.9020000100135804,-9.564000129699709,-1.3279999494552612
1621593165621,-0.1400000005960464,6.446000099182129,-8.743000030517578,-0.9020000100135804,-9.571000099182127,-1.2890000343322754
1621593165631,0.209999993443489,6.4019999504089355,-8.892999649047852,-0.8629999756813049,-9.571000099182127,-1.2890000343322754
1621593165641,0.209999993443489,7.046000003814697,-8.92199993133545,-0.8629999756813049,-9.571000099182127,-1.2890000343322754
1621593165651,0.209999993443489,7.159999847412109,-8.760000228881836,-0.8629999756813049,-9.532999992370604,-1.2829999923706057
1621593165661,0.7699999809265136,7.241000175476073,-8.817000389099121,-0.8629999756813049,-9.532999992370604,-1.2829999923706057
1621593165671,0.9800000190734864,7.375,-8.366000175476074,-0.8240000009536743,-9.57800006866455,-1.2510000467300415
1621593165681,1.399999976158142,7.47599983215332,-8.135000228881836,-0.8240000009536743,-9.654999732971191,-1.2640000581741333
1621593165691,1.2599999904632568,7.642499923706055,-8.070499420166016,-0.8240000009536743,-9.687000274658203,-1.309999942779541
1621593165701,1.1200000047683716,7.809000015258789,-8.005999565124512,-0.7850000262260437,-9.73900032043457,-1.2389999628067017
1621593165711,0.699999988079071,7.573999881744384,-7.478000164031982,-0.7850000262260437,-9.732999801635742,-1.2779999971389773
1621593165721,0.3499999940395355,7.695000171661377,-6.959000110626221,-0.7059999704360961,-9.758000373840332,-1.3619999885559082
1621593165731,-0.209999993443489,8.008000373840332,-7.118000030517578,-0.7450000047683715,-9.718999862670898,-1.3550000190734863
1621593165741,-0.4199999868869781,7.776000022888184,-7.015999794006348,-0.7450000047683715,-9.72599983215332,-1.3170000314712524
1621593165751,-0.699999988079071,7.844999790191651,-7.004000186920166,-0.8240000009536743,-9.72599983215332,-1.3170000314712524
1621593165761,-1.399999976158142,7.427999973297118,-6.651000022888184,-0.7850000262260437,-9.72599983215332,-1.3170000314712524
1621593165771,-2.450000047683716,7.302000045776368,-6.74399995803833,-0.7850000262260437,-9.72599983215332,-1.3170000314712524
1621593165781,-2.6600000858306885,6.978000164031982,-6.517000198364258,-0.8629999756813049,-9.72599983215332,-1.3170000314712524
1621593165791,-3.009999990463257,7.289999961853027,-6.676000118255615,-0.8240000009536743,-9.687000274658203,-1.309999942779541
1621593165801,-3.2200000286102295,6.875999927520752,-6.748000144958496,-0.8240000009536743,-9.687000274658203,-1.309999942779541
1621593165811,-3.6400001049041744,6.288000106811523,-6.638999938964844,-0.7850000262260437,-9.64900016784668,-1.3029999732971191
1621593165821,-3.2200000286102295,5.992000102996826,-5.767000198364258,-0.7850000262260437,-9.64900016784668,-1.3029999732971191
1621593165831,-3.0799999237060547,5.6479997634887695,-5.828000068664551,-0.8240000009536743,-9.57800006866455,-1.2510000467300415
1621593165841,-2.7300000190734863,5.691999912261963,-6.886000156402588,-0.8629999756813049,-9.532999992370604,-1.2829999923706057
1621593165851,-2.309999942779541,6.007999897003174,-7.469999790191651,-0.8629999756813049,-9.532999992370604,-1.2829999923706057
1621593165861,-1.8899999856948853,6.474999904632568,-8.098999977111816,-0.8629999756813049,-9.538999557495115,-1.24399995803833
1621593165871,-1.8200000524520872,6.617000102996826,-8.5,-0.9020000100135804,-9.602999687194824,-1.3350000381469729
1621593165881,-1.9600000381469729,6.672999858856201,-8.418999671936035,-0.9020000100135804,-9.602999687194824,-1.3350000381469729
1621593165891,-1.924999952316284,6.9670000076293945,-8.473999977111816,-0.9020000100135804,-9.55799961090088,-1.3669999837875366
1621593165901,-1.8899999856948853,7.261000156402587,-8.529000282287598,-0.9409999847412108,-9.564000129699709,-1.3279999494552612
1621593165911,-1.6799999475479126,7.379000186920166,-8.791999816894531,-0.9020000100135804,-9.609999656677246,-1.2960000038146973
1621593165921,-1.8899999856948853,7.844999790191651,-9.42099952697754,-0.9020000100135804,-9.564000129699709,-1.3279999494552612
1621593165931,-2.309999942779541,8.628000259399414,-9.425000190734863,-0.8629999756813049,-9.564000129699709,-1.3279999494552612
1621593165941,-1.4700000286102295,8.741000175476074,-9.262999534606934,-0.8629999756813049,-9.571000099182127,-1.2890000343322754
1621593165951,-1.1200000047683716,9.121999740600586,-9.409000396728516,-0.8240000009536743,-9.602999687194824,-1.3350000381469729
1621593165961,-0.4199999868869781,9.767000198364256,-9.437000274658203,-0.7850000262260437,-9.564000129699709,-1.3279999494552612
1621593165971,0.1400000005960464,10.050999641418455,-10.239999771118164,-0.7850000262260437,-9.609999656677246,-1.2960000038146973
1621593165981,0.699999988079071,10.36299991607666,-10.39799976348877,-0.7450000047683715,-9.595999717712402,-1.3730000257492063
1621593165991,0.7699999809265136,10.56999969482422,-10.362000465393066,-0.7450000047683715,-9.58899974822998,-1.4119999408721924
1621593166001,1.1200000047683716,10.58199977874756,-10.430999755859377,-0.7059999704360961,-9.58899974822998,-1.4119999408721924
1621593166011,1.0499999523162842,10.359000205993652,-9.972999572753906,-0.7059999704360961,-9.595999717712402,-1.3730000257492063
1621593166021,1.3300000429153442,10.25,-9.35200023651123,-0.6669999957084655,-9.687000274658203,-1.309999942779541
1621593166031,1.2599999904632568,10.107999801635742,-8.951000213623047,-0.6669999957084655,-9.64900016784668,-1.3029999732971191
1621593166041,0.9800000190734864,10.095999717712402,-8.881999969482422,-0.7059999704360961,-9.68000030517578,-1.3480000495910645
1621593166051,0.8399999737739563,9.72700023651123,-8.805000305175781,-0.6669999957084655,-9.642000198364256,-1.3420000076293943
1621593166061,0.9800000190734864,9.555999755859377,-9.04800033569336,-0.6280000209808348,-9.602999687194824,-1.3350000381469729
1621593166071,0.699999988079071,8.980999946594238,-9.006999969482422,-0.6280000209808348,-9.642000198364256,-1.3420000076293943
1621593166080,0.7699999809265136,8.668000221252441,-8.848999977111816,-0.6280000209808348,-9.602999687194824,-1.3350000381469729
1621593166090,0.8049999475479126,8.496000289916992,-8.879499435424805,-0.5879999995231628,-9.609999656677246,-1.2960000038146973
1621593166100,0.8399999737739563,8.324000358581543,-8.90999984741211,-0.6280000209808348,-9.609999656677246,-1.2960000038146973
1621593166110,0.6299999952316284,7.6589999198913565,-9.168999671936035,-0.6669999957084655,-9.654999732971191,-1.2640000581741333
1621593166120,0.4900000095367431,7.703000068664551,-9.01900005340576,-0.6280000209808348,-9.654999732971191,-1.2640000581741333
1621593166130,0.4199999868869781,7.379000186920166,-8.791999816894531,-0.5879999995231628,-9.609999656677246,-1.2960000038146973
1621593166140,0.3499999940395355,6.5269999504089355,-8.800000190734863,-0.5490000247955322,-9.687000274658203,-1.309999942779541
1621593166150,0.699999988079071,6.4019999504089355,-8.892999649047852,-0.5490000247955322,-9.687000274658203,-1.309999942779541
1621593166160,0.4900000095367431,6.238999843597412,-8.779999732971191,-0.5490000247955322,-9.687000274658203,-1.309999942779541
1621593166170,0.1400000005960464,6.145999908447266,-8.654000282287598,-0.5099999904632568,-9.661999702453612,-1.22599995136261
1621593166180,0.1400000005960464,6.190999984741211,-8.503999710083008,-0.5879999995231628,-9.654999732971191,-1.2640000581741333
1621593166190,0.3499999940395355,5.984000205993652,-8.541000366210938,-0.6280000209808348,-9.654999732971191,-1.2640000581741333
1621593166200,0.0700000002980232,5.914999961853027,-8.553000450134277,-0.6280000209808348,-9.64900016784668,-1.3029999732971191
1621593166210,-0.4900000095367431,6.303999900817871,-8.342000007629395,-0.6280000209808348,-9.694000244140623,-1.2710000276565552
1621593166220,-0.4900000095367431,6.333000183105469,-7.697000026702882,-0.6280000209808348,-9.687000274658203,-1.309999942779541
1621593166230,-0.3499999940395355,6.283999919891357,-7.421999931335449,-0.6280000209808348,-9.654999732971191,-1.2640000581741333
1621593166240,-0.4199999868869781,6.38100004196167,-7.973000049591064,-0.6280000209808348,-9.654999732971191,-1.2640000581741333
1621593166250,-0.6299999952316284,6.020999908447266,-7.539000034332275,-0.6280000209808348,-9.64900016784668,-1.3029999732971191
1621593166260,-0.699999988079071,6.110000133514404,-7.238999843597413,-0.6280000209808348,-9.64900016784668,-1.3029999732971191
1621593166270,-0.7699999809265136,6.072999954223633,-7.0320000648498535,-0.6669999957084655,-9.6850004196167,-1.5479999780654907
1621593166280,-1.3300000429153442,6.130000114440918,-6.951000213623047,-0.6669999957084655,-9.666999816894531,-1.4259999990463257
1621593166290,-1.5399999618530271,6.23199987411499,-6.71999979019165,-0.5879999995231628,-9.711999893188477,-1.3940000534057615
1621593166300,-1.8200000524520872,6.093999862670898,-6.74399995803833,-0.5879999995231628,-9.68000030517578,-1.3480000495910645
1621593166310,-1.6799999475479126,5.960000038146973,-7.193999767303467,-0.6280000209808348,-9.68000030517578,-1.3480000495910645
1621593166320,-1.5750000476837158,5.854499816894531,-6.999499797821045,-0.6280000209808348,-9.602999687194824,-1.3350000381469729
1621593166330,-1.4700000286102295,5.749000072479248,-6.804999828338623,-0.6280000209808348,-9.609999656677246,-1.2960000038146973
1621593166340,-1.4700000286102295,5.614999771118164,-6.046999931335449,-0.6669999957084655,-9.526000022888184,-1.3209999799728394
1621593166350,-1.190000057220459,5.140999794006348,-5.775000095367432,-0.6669999957084655,-9.532999992370604,-1.2829999923706057
1621593166360,-0.699999988079071,4.914000034332275,-6.098999977111816,-0.6669999957084655,-9.571000099182127,-1.2890000343322754
1621593166370,-0.209999993443489,4.735000133514404,-6.699999809265137,-0.6669999957084655,-9.571000099182127,-1.2890000343322754
1621593166380,0.0,4.244999885559082,-7.140999794006348,-0.7059999704360961,-9.64900016784668,-1.3029999732971191
1621593166390,0.0,4.354000091552734,-7.762000083923339,-0.6669999957084655,-9.68000030517578,-1.3480000495910645
1621593166400,0.0700000002980232,4.309000015258789,-7.9120001792907715,-0.7450000047683715,-9.635000228881836,-1.3799999952316284
1621593166410,0.0,4.419000148773193,-8.531999588012695,-0.7450000047683715,-9.68000030517578,-1.3480000495910645
1621593166420,-0.209999993443489,5.099999904632568,-8.767999649047852,-0.7450000047683715,-9.64900016784668,-1.3029999732971191
1621593166430,-0.4900000095367431,5.942999839782715,-9.116000175476074,-0.7450000047683715,-9.654999732971191,-1.2640000581741333
1621593166440,-0.4900000095367431,6.9039998054504395,-9.729000091552734,-0.7059999704360961,-9.642000198364256,-1.3420000076293943
1621593166450,-0.699999988079071,7.472000122070312,-10.12600040435791,-0.7450000047683715,-9.642000198364256,-1.3420000076293943
1621593166460,-0.4199999868869781,8.291000366210938,-10.336999893188477,-0.7059999704360961,-9.64900016784668,-1.3029999732971191
1621593166470,0.0,9.425999641418455,-9.923999786376951,-0.6669999957084655,-9.64900016784668,-1.3029999732971191
1621593166480,0.2800000011920929,9.791000366210936,-9.574999809265137,-0.6669999957084655,-9.602999687194824,-1.3350000381469729
1621593166490,0.4199999868869781,10.319000244140623,-9.34000015258789,-0.6280000209808348,-9.609999656677246,-1.2960000038146973
1621593166500,0.209999993443489,10.48900032043457,-9.097000122070312,-0.5879999995231628,-9.64900016784668,-1.3029999732971191
1621593166510,0.7699999809265136,10.100000381469728,-9.30799961090088,-0.5879999995231628,-9.687000274658203,-1.309999942779541
1621593166520,0.699999988079071,10.140000343322754,-8.732000350952148,-0.5879999995231628,-9.687000274658203,-1.309999942779541
1621593166530,0.4900000095367431,10.343000411987305,-8.270000457763672,-0.5490000247955322,-9.694000244140623,-1.2710000276565552
1621593166540,0.3499999940395355,10.031000137329102,-8.111000061035156,-0.5490000247955322,-9.609999656677246,-1.2960000038146973
1621593166550,0.2800000011920929,9.824000358581545,-8.14799976348877,-0.6669999957084655,-9.595999717712402,-1.3730000257492063
1621593166560,0.2800000011920929,9.598999977111816,-8.080999374389648,-0.5879999995231628,-9.602999687194824,-1.3350000381469729
1621593166570,0.2800000011920929,9.37399959564209,-8.013999938964844,-0.5490000247955322,-9.687000274658203,-1.309999942779541
1621593166580,0.1400000005960464,9.175000190734863,-7.693999767303467,-0.5099999904632568,-9.64900016784668,-1.3029999732971191
1621593166590,0.4199999868869781,8.355999946594238,-7.482999801635742,-0.5099999904632568,-9.687000274658203,-1.309999942779541
1621593166600,0.2800000011920929,8.380999565124512,-7.619999885559082,-0.5099999904632568,-9.64900016784668,-1.3029999732971191
1621593166610,-0.2800000011920929,8.02400016784668,-7.611999988555909,-0.5099999904632568,-9.64900016784668,-1.3029999732971191
1621593166620,-0.3499999940395355,7.663000106811523,-7.177999973297119,-0.5490000247955322,-9.694000244140623,-1.2710000276565552
1621593166630,-0.4199999868869781,7.282000064849853,-7.0320000648498535,-0.5879999995231628,-9.687000274658203,-1.309999942779541
1621593166640,-0.4199999868869781,6.763000011444092,-6.910999774932861,-0.5490000247955322,-9.687000274658203,-1.309999942779541
1621593166650,-0.3499999940395355,6.373000144958496,-7.120999813079834,-0.5099999904632568,-9.64900016784668,-1.3029999732971191
1621593166660,-0.9800000190734864,5.922999858856201,-6.98799991607666,-0.5490000247955322,-9.68000030517578,-1.3480000495910645
1621593166670,-0.9800000190734864,5.614999771118164,-7.255000114440918,-0.5879999995231628,-9.68000030517578,-1.3480000495910645
1621593166680,-1.2599999904632568,5.583000183105469,-7.473999977111816,-0.5879999995231628,-9.68000030517578,-1.3480000495910645
1621593166690,-1.190000057220459,5.189000129699707,-7.258999824523927,-0.5879999995231628,-9.708000183105469,-1.194000005722046
1621593166700,-1.3300000429153442,4.901000022888184,-7.238999843597413,-0.5879999995231628,-9.701000213623049,-1.2330000400543213
1621593166710,-1.5399999618530271,4.5929999351501465,-7.506000041961671,-0.6280000209808348,-9.654999732971191,-1.2640000581741333
1621593166720,-1.6799999475479126,4.618000030517578,-7.644000053405762,-0.5879999995231628,-9.64900016784668,-1.3029999732971191
1621593166730,-1.6799999475479126,4.361999988555908,-7.405000209808349,-0.6280000209808348,-9.654999732971191,-1.2640000581741333
1621593166740,-1.8200000524520872,4.123000144958496,-7.6599998474121085,-0.5879999995231628,-9.687000274658203,-1.309999942779541
1621593166750,-1.75,3.7780001163482666,-7.72100019454956,-0.5879999995231628,-9.72599983215332,-1.3170000314712524
1621593166760,-1.8899999856948853,3.940000057220459,-7.835000038146973,-0.5879999995231628,-9.732999801635742,-1.2779999971389773
1621593166770,-1.6799999475479126,3.8589999675750737,-7.777999877929688,-0.5879999995231628,-9.72599983215332,-1.3170000314712524
1621593166780,-1.6100000143051147,3.82699990272522,-7.997000217437744,-0.5879999995231628,-9.687000274658203,-1.309999942779541
1621593166790,-1.75,3.7579998970031734,-8.008999824523926,-0.5490000247955322,-9.642000198364256,-1.3420000076293943
1621593166800,-2.0299999713897705,3.936000108718872,-7.4089999198913565,-0.5879999995231628,-9.68000030517578,-1.3480000495910645
1621593166810,-2.1700000762939453,3.9489998817443848,-7.478000164031982,-0.5879999995231628,-9.635000228881836,-1.3799999952316284
1621593166820,-2.134999990463257,3.8694999217987065,-7.633999824523927,-0.5879999995231628,-9.64900016784668,-1.3029999732971191
1621593166830,-2.0999999046325684,3.7899999618530273,-7.789999961853027,-0.6280000209808348,-9.628000259399414,-1.4190000295639038
1621593166840,-1.5399999618530271,3.566999912261963,-7.331999778747559,-0.6280000209808348,-9.595999717712402,-1.3730000257492063
1621593166850,-1.8200000524520872,3.052999973297119,-6.427999973297119,-0.6280000209808348,-9.564000129699709,-1.3279999494552612
1621593166860,-1.190000057220459,2.930999994277954,-5.73799991607666,-0.6280000209808348,-9.564000129699709,-1.3279999494552612
1621593166870,-0.7699999809265136,3.1619999408721924,-5.840000152587891,-0.6280000209808348,-9.532999992370604,-1.2829999923706057
1621593166880,-0.3499999940395355,2.878000020980835,-6.244999885559082,-0.5879999995231628,-9.564000129699709,-1.3279999494552612
1621593166890,0.1400000005960464,2.747999906539917,-7.120999813079834,-0.6280000209808348,-9.609999656677246,-1.2960000038146973
1621593166900,0.6299999952316284,2.302000045776367,-7.413000106811523,-0.6669999957084655,-9.64900016784668,-1.3029999732971191
1621593166910,1.0499999523162842,1.8890000581741333,-7.486000061035157,-0.6280000209808348,-9.642000198364256,-1.3420000076293943
1621593166920,0.8399999737739563,2.197000026702881,-7.217999935150147,-0.6669999957084655,-9.64900016784668,-1.3029999732971191
1621593166930,0.6299999952316284,2.4200000762939453,-7.676000118255616,-0.7059999704360961,-9.642000198364256,-1.3420000076293943
1621593166940,0.3499999940395355,2.5409998893737793,-8.366000175476074,-0.7059999704360961,-9.68000030517578,-1.3480000495910645
1621593166950,0.4199999868869781,3.190000057220459,-8.819999694824219,-0.7059999704360961,-9.609999656677246,-1.2960000038146973
1621593166960,0.4199999868869781,3.315999984741211,-8.72700023651123,-0.7059999704360961,-9.635000228881836,-1.3799999952316284
1621593166970,0.209999993443489,3.7460000514984126,-9.14900016784668,-0.6669999957084655,-9.602999687194824,-1.3350000381469729
1621593166980,0.209999993443489,3.8919999599456783,-8.767000198364258,-0.6280000209808348,-9.635000228881836,-1.3799999952316284
1621593166990,0.699999988079071,4.15500020980835,-8.649999618530273,-0.6280000209808348,-9.564000129699709,-1.3279999494552612
1621593167000,0.8399999737739563,4.48799991607666,-8.520000457763672,-0.6280000209808348,-9.64900016784668,-1.3029999732971191
1621593167010,0.9800000190734864,4.638000011444092,-8.5649995803833,-0.5879999995231628,-9.64900016784668,-1.3029999732971191
1621593167020,0.9800000190734864,5.0229997634887695,-7.927999973297118,-0.5879999995231628,-9.64900016784668,-1.3029999732971191
1621593167030,0.8399999737739563,4.6579999923706055,-7.067999839782715,-0.5879999995231628,-9.654999732971191,-1.2640000581741333
1621593167040,1.190000057220459,4.519999980926514,-7.0929999351501465,-0.5490000247955322,-9.654999732971191,-1.2640000581741333
1621593167050,1.0499999523162842,4.5279998779296875,-6.736000061035156,-0.5879999995231628,-9.654999732971191,-1.2640000581741333
1621593167060,0.9800000190734864,4.216000080108643,-6.578000068664551,-0.5879999995231628,-9.616999626159668,-1.2580000162124634
1621593167070,0.9100000262260436,4.191999912261963,-6.440000057220459,-0.5879999995231628,-9.616999626159668,-1.2580000162124634
1621593167080,0.875,4.066499710083008,-6.5329999923706055,-0.5099999904632568,-9.654999732971191,-1.2640000581741333
1621593167090,0.8399999737739563,3.9409999847412114,-6.625999927520752,-0.5099999904632568,-9.64900016784668,-1.3029999732971191
1621593167100,0.9800000190734864,3.6040000915527344,-6.329999923706055,-0.5099999904632568,-9.654999732971191,-1.2640000581741333
1621593167110,0.9100000262260436,3.3529999256134033,-6.517000198364258,-0.5490000247955322,-9.654999732971191,-1.2640000581741333
1621593167120,0.9100000262260436,2.881999969482422,-6.671000003814697,-0.5879999995231628,-9.694000244140623,-1.2710000276565552
1621593167130,0.5600000023841857,3.0239999294281006,-7.072000026702881,-0.6280000209808348,-9.732999801635742,-1.2779999971389773
1621593167140,0.4900000095367431,2.98799991607666,-6.866000175476074,-0.6669999957084655,-9.73900032043457,-1.2389999628067017
1621593167150,0.209999993443489,3.1619999408721924,-7.047999858856201,-0.7059999704360961,-9.694000244140623,-1.2710000276565552
1621593167160,0.0,3.186000108718872,-7.185999870300293,-0.7059999704360961,-9.694000244140623,-1.2710000276565552
1621593167170,-0.4900000095367431,3.7739999294281006,-7.295000076293945,-0.6669999957084655,-9.694000244140623,-1.2710000276565552
1621593167180,-0.9100000262260436,4.038000106811523,-7.177999973297119,-0.6669999957084655,-9.694000244140623,-1.2710000276565552
1621593167190,-0.9100000262260436,4.743000030517578,-7.551000118255616,-0.7059999704360961,-9.694000244140623,-1.2710000276565552
1621593167200,-0.7699999809265136,5.169000148773193,-7.546999931335449,-0.7059999704360961,-9.694000244140623,-1.2710000276565552
1621593167210,-0.9800000190734864,5.420000076293945,-7.361000061035157,-0.6669999957084655,-9.694000244140623,-1.2710000276565552
1621593167220,-0.7699999809265136,5.688000202178955,-7.669000148773193,-0.6669999957084655,-9.654999732971191,-1.2640000581741333
1621593167230,-0.5600000023841857,6.195000171661377,-7.722000122070312,-0.6669999957084655,-9.654999732971191,-1.2640000581741333
1621593167240,-0.4900000095367431,6.2270002365112305,-7.502999782562256,-0.6280000209808348,-9.64900016784668,-1.3029999732971191
1621593167250,-0.5600000023841857,6.34499979019165,-7.765999794006347,-0.6280000209808348,-9.642000198364256,-1.3420000076293943
1621593167260,-0.699999988079071,6.494999885559082,-7.810999870300293,-0.6280000209808348,-9.694000244140623,-1.2710000276565552
1621593167270,-1.1200000047683716,6.660999774932861,-8.350000381469727,-0.5879999995231628,-9.694000244140623,-1.2710000276565552
1621593167280,-1.6799999475479126,6.625,-8.142999649047852,-0.6280000209808348,-9.642000198364256,-1.3420000076293943
1621593167290,-1.75,6.660999774932861,-8.350000381469727,-0.5879999995231628,-9.687000274658203,-1.309999942779541
1621593167300,-2.0999999046325684,6.775000095367432,-8.187999725341797,-0.5879999995231628,-9.64900016784668,-1.3029999732971191
1621593167310,-2.380000114440918,6.599999904632568,-8.005000114440918,-0.5879999995231628,-9.687000274658203,-1.309999942779541
1621593167320,-2.309999942779541,6.474999904632568,-8.098999977111816,-0.5490000247955322,-9.687000274658203,-1.309999942779541
1621593167330,-2.309999942779541,6.209499835968018,-8.003499984741211,-0.5490000247955322,-9.687000274658203,-1.309999942779541
1621593167340,-2.309999942779541,5.943999767303467,-7.907999992370605,-0.5490000247955322,-9.602999687194824,-1.3350000381469729
1621593167350,-1.8899999856948853,5.53000020980835,-6.7729997634887695,-0.5490000247955322,-9.609999656677246,-1.2960000038146973
1621593167360,-1.6799999475479126,5.23799991607666,-6.327000141143799,-0.5490000247955322,-9.609999656677246,-1.2960000038146973
1621593167370,-1.2599999904632568,4.698999881744385,-6.493000030517578,-0.5490000247955322,-9.609999656677246,-1.2960000038146973
1621593167380,-1.1200000047683716,4.873000144958496,-6.675000190734863,-0.5879999995231628,-9.609999656677246,-1.2960000038146973
1621593167390,-1.399999976158142,4.369999885559082,-7.047999858856201,-0.5099999904632568,-9.694000244140623,-1.2710000276565552
1621593167400,-1.4700000286102295,4.041999816894531,-7.604000091552734,-0.5490000247955322,-9.64900016784668,-1.3029999732971191
1621593167410,-1.4700000286102295,3.8350000381469727,-7.639999866485595,-0.5490000247955322,-9.694000244140623,-1.2710000276565552
1621593167420,-1.6100000143051147,3.7780001163482666,-7.72100019454956,-0.6280000209808348,-9.64900016784668,-1.3029999732971191
1621593167430,-1.9600000381469729,3.7939999103546143,-8.215999603271484,-0.6280000209808348,-9.64900016784668,-1.3029999732971191
1621593167440,-1.8899999856948853,4.248000144958496,-8.776000022888184,-0.6280000209808348,-9.609999656677246,-1.2960000038146973
1621593167450,-2.0299999713897705,4.539999961853027,-9.222000122070312,-0.6280000209808348,-9.609999656677246,-1.2960000038146973
1621593167460,-1.75,4.864999771118164,-9.449000358581545,-0.5879999995231628,-9.64900016784668,-1.3029999732971191
1621593167470,-1.8200000524520872,5.127999782562256,-9.331000328063965,-0.6280000209808348,-9.64900016784668,-1.3029999732971191
1621593167480,-1.399999976158142,5.4039998054504395,-9.282999992370604,-0.6669999957084655,-9.609999656677246,-1.2960000038146973
1621593167490,-1.399999976158142,5.744999885559082,-8.795999526977539,-0.6280000209808348,-9.64900016784668,-1.3029999732971191
1621593167500,-0.9800000190734864,6.195000171661377,-8.930000305175781,-0.5879999995231628,-9.64900016784668,-1.3029999732971191
1621593167510,-0.6299999952316284,6.203000068664551,-8.572999954223633,-0.5879999995231628,-9.64900016784668,-1.3029999732971191
1621593167520,-0.7699999809265136,5.826000213623047,-7.644000053405762,-0.5490000247955322,-9.642000198364256,-1.3420000076293943
1621593167530,-0.6299999952316284,5.8460001945495605,-7.35699987411499,-0.5490000247955322,-9.642000198364256,-1.3420000076293943
1621593167540,-0.6299999952316284,5.9029998779296875,-7.275000095367432,-0.5490000247955322,-9.602999687194824,-1.3350000381469729
1621593167550,-0.7350000143051147,5.860499858856201,-7.034000396728516,-0.5490000247955322,-9.602999687194824,-1.3350000381469729
1621593167560,-0.8399999737739563,5.817999839782715,-6.793000221252441,-0.5490000247955322,-9.602999687194824,-1.3350000381469729
1621593167570,-0.9100000262260436,5.7769999504089355,-7.368999958038329,-0.5490000247955322,-9.602999687194824,-1.3350000381469729
1621593167580,-0.8399999737739563,5.019000053405762,-7.501999855041504,-0.5490000247955322,-9.64900016784668,-1.3029999732971191
1621593167590,-0.699999988079071,4.695000171661377,-7.275000095367432,-0.5099999904632568,-9.64900016784668,-1.3029999732971191
1621593167600,-0.6299999952316284,4.269000053405762,-7.27899980545044,-0.5490000247955322,-9.64900016784668,-1.3029999732971191
1621593167610,-0.5600000023841857,3.8350000381469727,-7.639999866485595,-0.5490000247955322,-9.64900016784668,-1.3029999732971191
1621593167620,-0.4199999868869781,3.8919999599456783,-7.559000015258789,-0.5490000247955322,-9.609999656677246,-1.2960000038146973
1621593167630,-0.4900000095367431,3.6400001049041744,-7.745999813079834,-0.5490000247955322,-9.64900016784668,-1.3029999732971191
1621593167640,-0.6299999952316284,3.9809999465942383,-8.467000007629395,-0.5490000247955322,-9.635000228881836,-1.3799999952316284
1621593167650,-0.6299999952316284,3.8510000705718994,-8.135000228881836,-0.5879999995231628,-9.68000030517578,-1.3480000495910645
1621593167660,-0.3499999940395355,3.900000095367432,-8.41100025177002,-0.5879999995231628,-9.687000274658203,-1.309999942779541
1621593167670,-0.1400000005960464,4.158999919891357,-7.867000102996825,-0.5879999995231628,-9.687000274658203,-1.309999942779541
1621593167680,-0.1400000005960464,4.3420000076293945,-7.692999839782715,-0.5879999995231628,-9.64900016784668,-1.3029999732971191
1621593167690,-0.3499999940395355,4.90500020980835,-7.664999961853027,-0.5879999995231628,-9.687000274658203,-1.309999942779541
1621593167700,-0.2800000011920929,4.926000118255615,-7.376999855041504,-0.5879999995231628,-9.609999656677246,-1.2960000038146973
1621593167710,-0.209999993443489,4.926000118255615,-7.376999855041504,-0.5879999995231628,-9.609999656677246,-1.2960000038146973
1621593167719,0.1400000005960464,4.86899995803833,-7.458000183105469,-0.5879999995231628,-9.609999656677246,-1.2960000038146973
1621593167729,0.1400000005960464,4.921999931335449,-6.951000213623047,-0.5490000247955322,-9.602999687194824,-1.3350000381469729
1621593167739,0.1050000041723251,5.031499862670898,-6.9670000076293945,-0.5490000247955322,-9.609999656677246,-1.2960000038146973
1621593167749,0.0700000002980232,5.140999794006348,-6.982999801635742,-0.5490000247955322,-9.609999656677246,-1.2960000038146973
1621593167759,-0.0700000002980232,4.921999931335449,-6.951000213623047,-0.5490000247955322,-9.642000198364256,-1.3420000076293943
1621593167769,0.0700000002980232,4.888999938964844,-7.170000076293945,-0.5879999995231628,-9.68000030517578,-1.3480000495910645
1621593167779,-0.1400000005960464,4.670000076293945,-7.13700008392334,-0.5879999995231628,-9.68000030517578,-1.3480000495910645
1621593167789,-0.2800000011920929,5.006999969482422,-7.433000087738037,-0.5879999995231628,-9.687000274658203,-1.309999942779541
1621593167799,-0.4199999868869781,4.410999774932861,-7.681000232696533,-0.5879999995231628,-9.68000030517578,-1.3480000495910645
1621593167809,-0.699999988079071,4.605000019073486,-7.574999809265136,-0.5879999995231628,-9.68000030517578,-1.3480000495910645
1621593167819,-0.8399999737739563,4.808000087738037,-7.11299991607666,-0.6280000209808348,-9.68000030517578,-1.3480000495910645
1621593167829,-0.6299999952316284,4.683000087738037,-7.205999851226807,-0.5490000247955322,-9.68000030517578,-1.3480000495910645
1621593167839,-0.4900000095367431,4.349999904632568,-7.335999965667725,-0.5879999995231628,-9.64900016784668,-1.3029999732971191
1621593167849,-0.699999988079071,4.329999923706055,-6.415999889373779,-0.5490000247955322,-9.609999656677246,-1.2960000038146973
1621593167859,-0.2800000011920929,4.083000183105469,-5.818999767303467,-0.5879999995231628,-9.609999656677246,-1.2960000038146973
1621593167869,0.1400000005960464,3.9449999332427974,-5.843999862670898,-0.5879999995231628,-9.571000099182127,-1.2890000343322754
1621593167879,0.4900000095367431,3.9570000171661377,-5.913000106811523,-0.5879999995231628,-9.609999656677246,-1.2960000038146973
1621593167889,0.7699999809265136,4.184000015258789,-6.796999931335449,-0.6280000209808348,-9.585000038146973,-1.212000012397766
1621593167899,0.2800000011920929,4.03000020980835,-7.5349998474121085,-0.6280000209808348,-9.616999626159668,-1.2580000162124634
1621593167909,0.0,4.459000110626221,-7.956999778747559,-0.6280000209808348,-9.616999626159668,-1.2580000162124634
1621593167919,-0.3499999940395355,4.803999900817871,-7.895999908447266,-0.5879999995231628,-9.654999732971191,-1.2640000581741333
1621593167929,-0.4549999833106994,4.897500038146973,-8.021499633789062,-0.6280000209808348,-9.616999626159668,-1.2580000162124634
1621593167939,-0.5600000023841857,4.991000175476074,-8.147000312805176,-0.6280000209808348,-9.64900016784668,-1.3029999732971191
1621593167949,-0.699999988079071,5.583000183105469,-8.682999610900879,-0.7059999704360961,-9.668999671936035,-1.187000036239624
1621593167959,-0.7699999809265136,5.51800012588501,-9.119999885559082,-0.6669999957084655,-9.661999702453612,-1.22599995136261
1621593167969,-0.6299999952316284,6.060999870300293,-9.380000114440918,-0.5879999995231628,-9.654999732971191,-1.2640000581741333
1621593167979,-0.5600000023841857,6.73799991607666,-9.1899995803833,-0.5879999995231628,-9.694000244140623,-1.2710000276565552
1621593167989,-0.4199999868869781,7.309999942779541,-8.803999900817871,-0.5490000247955322,-9.694000244140623,-1.2710000276565552
1621593167999,-0.4900000095367431,7.39900016784668,-8.503999710083008,-0.5490000247955322,-9.609999656677246,-1.2960000038146973
1621593168009,-0.1400000005960464,7.329999923706055,-8.517000198364258,-0.4709999859333038,-9.654999732971191,-1.2640000581741333
1621593168019,-0.1400000005960464,7.387000083923339,-8.4350004196167,-0.4709999859333038,-9.616999626159668,-1.2580000162124634
1621593168029,0.0,7.217000007629395,-7.469999790191651,-0.4309999942779541,-9.571000099182127,-1.2890000343322754
1621593168039,0.2800000011920929,6.63700008392334,-7.004000186920166,-0.3919999897480011,-9.585000038146973,-1.212000012397766
1621593168049,0.699999988079071,6.25600004196167,-6.857999801635742,-0.4309999942779541,-9.616999626159668,-1.2580000162124634
1621593168059,0.8399999737739563,5.553999900817871,-6.909999847412109,-0.4309999942779541,-9.630000114440918,-1.1799999475479126
1621593168069,1.1200000047683716,4.929999828338623,-6.593999862670898,-0.4309999942779541,-9.62399959564209,-1.218999981880188
1621593168079,1.4700000286102295,4.138999938964844,-6.947000026702881,-0.4309999942779541,-9.616999626159668,-1.2580000162124634
1621593168089,1.5399999618530271,3.450000047683716,-7.067999839782715,-0.4709999859333038,-9.654999732971191,-1.2640000581741333
1621593168099,1.4700000286102295,2.9019999504089355,-7.5910000801086435,-0.5099999904632568,-9.654999732971191,-1.2640000581741333
1621593168109,1.0499999523162842,2.558000087738037,-7.651999950408936,-0.5099999904632568,-9.654999732971191,-1.2640000581741333
1621593168119,0.8399999737739563,2.385499954223633,-7.682499885559082,-0.5099999904632568,-9.654999732971191,-1.2640000581741333
1621593168129,0.6299999952316284,2.2130000591278076,-7.7129998207092285,-0.5099999904632568,-9.694000244140623,-1.2710000276565552
1621593168139,0.4199999868869781,2.193000078201294,-8.00100040435791,-0.5490000247955322,-9.694000244140623,-1.2710000276565552
1621593168149,0.2800000011920929,2.0789999961853027,-8.163000106811523,-0.5879999995231628,-9.694000244140623,-1.2710000276565552
1621593168159,0.209999993443489,2.2209999561309814,-8.564000129699707,-0.5879999995231628,-9.654999732971191,-1.2640000581741333
1621593168169,0.4199999868869781,2.3510000705718994,-8.897000312805176,-0.5490000247955322,-9.701000213623049,-1.2330000400543213
1621593168179,0.0,2.694999933242798,-8.836000442504883,-0.5879999995231628,-9.701000213623049,-1.2330000400543213
1621593168189,0.0700000002980232,3.4089999198913574,-8.852999687194824,-0.5879999995231628,-9.675999641418455,-1.1480000019073486
1621593168199,0.8399999737739563,3.7049999237060542,-8.515999794006348,-0.5879999995231628,-9.668999671936035,-1.187000036239624
1621593168209,0.8399999737739563,4.11899995803833,-8.442999839782715,-0.5879999995231628,-9.661999702453612,-1.22599995136261
1621593168219,0.9800000190734864,4.565000057220459,-8.151000022888184,-0.5879999995231628,-9.661999702453612,-1.22599995136261
1621593168229,0.9800000190734864,4.96999979019165,-8.4350004196167,-0.5490000247955322,-9.668999671936035,-1.187000036239624
1621593168239,1.1200000047683716,5.002999782562256,-8.215999603271484,-0.5099999904632568,-9.630000114440918,-1.1799999475479126
1621593168249,1.6100000143051147,5.290999889373779,-8.236000061035156,-0.5099999904632568,-9.62399959564209,-1.218999981880188
1621593168259,1.8200000524520872,5.465000152587891,-8.418999671936035,-0.5099999904632568,-9.62399959564209,-1.218999981880188
1621593168269,1.8899999856948853,5.513999938964844,-8.694999694824219,-0.5099999904632568,-9.694000244140623,-1.2710000276565552
1621593168279,1.3300000429153442,5.468999862670898,-8.845000267028809,-0.5099999904632568,-9.73900032043457,-1.2389999628067017
1621593168289,0.7699999809265136,5.172999858856201,-9.180999755859377,-0.4709999859333038,-9.732999801635742,-1.2779999971389773
1621593168299,0.5600000023841857,5.27400016784668,-8.949999809265137,-0.4309999942779541,-9.694000244140623,-1.2710000276565552
1621593168309,0.3149999976158142,5.369500160217285,-8.684499740600586,-0.4709999859333038,-9.661999702453612,-1.22599995136261
1621593168319,0.0700000002980232,5.465000152587891,-8.418999671936035,-0.5099999904632568,-9.701000213623049,-1.2330000400543213
1621593168329,0.0700000002980232,5.583000183105469,-8.682999610900879,-0.5099999904632568,-9.654999732971191,-1.2640000581741333
1621593168339,-0.0700000002980232,4.938000202178955,-8.654000282287598,-0.4709999859333038,-9.661999702453612,-1.22599995136261
1621593168349,-0.1400000005960464,4.61299991607666,-8.427000045776367,-0.4709999859333038,-9.637000083923342,-1.1419999599456787
1621593168359,0.5600000023841857,4.2729997634887695,-7.704999923706055,-0.5099999904632568,-9.598999977111816,-1.1349999904632568
1621593168369,1.5399999618530271,4.041999816894531,-7.604000091552734,-0.5099999904632568,-9.592000007629396,-1.1729999780654907
1621593168379,2.240000009536743,3.940000057220459,-7.835000038146973,-0.5099999904632568,-9.630000114440918,-1.1799999475479126
1621593168389,2.5199999809265137,3.9079999923706055,-8.053999900817871,-0.5490000247955322,-9.668999671936035,-1.187000036239624
1621593168399,2.6600000858306885,4.188000202178955,-8.430999755859375,-0.5490000247955322,-9.675999641418455,-1.1480000019073486
1621593168409,2.380000114440918,4.52400016784668,-8.72700023651123,-0.5490000247955322,-9.708000183105469,-1.194000005722046
1621593168419,1.75,4.888999938964844,-8.378000259399414,-0.5490000247955322,-9.71399974822998,-1.1549999713897705
1621593168429,1.190000057220459,5.034999847412109,-7.997000217437744,-0.5490000247955322,-9.753000259399414,-1.1619999408721924
1621593168439,1.1200000047683716,5.415999889373779,-8.142999649047852,-0.5490000247955322,-9.746000289916992,-1.2009999752044678
1621593168449,0.4900000095367431,6.145999908447266,-8.654000282287598,-0.5879999995231628,-9.746000289916992,-1.2009999752044678
1621593168459,-0.1400000005960464,7.078999996185303,-8.70300006866455,-0.5099999904632568,-9.760000228881836,-1.1230000257492063
1621593168469,-0.6299999952316284,7.440000057220459,-9.137000083923342,-0.4709999859333038,-9.68299961090088,-1.1100000143051147
1621593168479,-0.6299999952316284,7.560999870300293,-8.618000030517578,-0.4709999859333038,-9.668999671936035,-1.187000036239624
1621593168489,-0.699999988079071,8.11299991607666,-8.520999908447266,-0.5099999904632568,-9.668999671936035,-1.187000036239624
1621593168499,-0.7350000143051147,8.244500160217285,-8.461999893188477,-0.5099999904632568,-9.668999671936035,-1.187000036239624
1621593168509,-0.7699999809265136,8.37600040435791,-8.402999877929688,-0.5099999904632568,-9.675999641418455,-1.1480000019073486
1621593168519,-0.4900000095367431,9.18299961090088,-8.545000076293945,-0.5879999995231628,-9.64400005340576,-1.1030000448226929
1621593168529,-0.4900000095367431,9.52400016784668,-8.059000015258789,-0.5879999995231628,-9.637000083923342,-1.1419999599456787
1621593168539,-0.8399999737739563,10.512999534606934,-8.026000022888184,-0.6280000209808348,-9.68299961090088,-1.1100000143051147
1621593168549,-0.9100000262260436,11.385000228881836,-7.730000019073486,-0.5879999995231628,-9.71399974822998,-1.1549999713897705
1621593168559,-0.9100000262260436,11.972999572753906,-7.8400001525878915,-0.6280000209808348,-9.701000213623049,-1.2330000400543213
1621593168569,-0.7699999809265136,12.536999702453612,-7.811999797821045,-0.6280000209808348,-9.708000183105469,-1.194000005722046
1621593168579,-0.7699999809265136,13.197999954223633,-8.335000038146973,-0.6280000209808348,-9.661999702453612,-1.22599995136261
1621593168589,-1.190000057220459,13.968000411987305,-8.270000457763672,-0.6280000209808348,-9.701000213623049,-1.2330000400543213
1621593168599,-1.3300000429153442,14.868000030517578,-8.538000106811523,-0.5490000247955322,-9.661999702453612,-1.22599995136261
1621593168609,-1.3300000429153442,15.727999687194824,-8.17300033569336,-0.5879999995231628,-9.661999702453612,-1.22599995136261
1621593168619,-1.399999976158142,16.684999465942383,-8.359999656677246,-0.6280000209808348,-9.62399959564209,-1.218999981880188
1621593168629,-1.3300000429153442,17.451000213623047,-9.07800006866455,-0.6280000209808348,-9.62399959564209,-1.218999981880188
1621593168639,-1.2599999904632568,18.392000198364254,-8.769000053405762,-0.5490000247955322,-9.654999732971191,-1.2640000581741333
1621593168649,-0.7699999809265136,19.05699920654297,-8.510000228881836,-0.5490000247955322,-9.57800006866455,-1.2510000467300415
1621593168659,-0.5600000023841857,19.70199966430664,-8.538000106811523,-0.5099999904632568,-9.654999732971191,-1.2640000581741333
1621593168669,-0.4199999868869781,20.232999801635746,-8.729000091552734,-0.5099999904632568,-9.661999702453612,-1.22599995136261
1621593168679,0.0700000002980232,20.70400047302246,-8.574999809265137,-0.5099999904632568,-9.654999732971191,-1.2640000581741333
1621593168689,0.7699999809265136,20.64699935913086,-8.656000137329102,-0.4709999859333038,-9.661999702453612,-1.22599995136261
1621593168699,1.0499999523162842,20.762500762939453,-8.707000732421875,-0.4709999859333038,-9.654999732971191,-1.2640000581741333
1621593168709,1.3300000429153442,20.878000259399418,-8.758000373840332,-0.3140000104904174,-9.585000038146973,-1.212000012397766
1621593168719,1.8899999856948853,20.927000045776367,-9.032999992370604,-0.3140000104904174,-9.585000038146973,-1.212000012397766
1621593168729,2.240000009536743,20.78499984741211,-8.631999969482422,-0.2750000059604644,-9.57800006866455,-1.2510000467300415
1621593168739,2.6600000858306885,20.74799919128418,-8.425000190734863,-0.2349999994039535,-9.585000038146973,-1.212000012397766
1621593168749,2.6600000858306885,20.309999465942383,-8.359999656677246,-0.1959999948740005,-9.62399959564209,-1.218999981880188
1621593168759,2.869999885559082,19.47100067138672,-8.437000274658203,-0.1959999948740005,-9.661999702453612,-1.22599995136261
1621593168769,3.0799999237060547,18.575000762939453,-8.595000267028809,-0.1570000052452087,-9.654999732971191,-1.2640000581741333
1621593168779,2.7300000190734863,17.731000900268555,-8.246000289916992,-0.1570000052452087,-9.616999626159668,-1.2580000162124634
1621593168789,2.240000009536743,16.80699920654297,-7.8410000801086435,-0.1180000007152557,-9.654999732971191,-1.2640000581741333
1621593168799,2.0999999046325684,16.045000076293945,-7.548999786376954,-0.1180000007152557,-9.654999732971191,-1.2640000581741333
1621593168809,1.8200000524520872,14.718999862670898,-7.2849998474121085,-0.1180000007152557,-9.73900032043457,-1.2389999628067017
1621593168819,1.6100000143051147,13.817999839782717,-7.017000198364258,-0.1180000007152557,-9.770999908447264,-1.2849999666213987
1621593168829,1.3300000429153442,12.58199977874756,-6.453000068664551,-0.0780000016093254,-9.770999908447264,-1.2849999666213987
1621593168839,0.8399999737739563,11.276000022888184,-5.9019999504089355,-0.0390000008046627,-9.73900032043457,-1.2389999628067017
1621593168849,0.8399999737739563,10.177000045776367,-5.313000202178955,0.0,-9.753000259399414,-1.1619999408721924
1621593168859,1.190000057220459,8.899999618530273,-5.324999809265137,-0.0780000016093254,-9.71399974822998,-1.1549999713897705
1621593168869,1.190000057220459,7.751999855041504,-5.670000076293945,-0.1180000007152557,-9.708000183105469,-1.194000005722046
1621593168879,0.9800000190734864,6.872000217437744,-6.322999954223633,-0.1180000007152557,-9.668999671936035,-1.187000036239624
1621593168889,0.5600000023841857,6.081999778747559,-6.675000190734863,-0.1180000007152557,-9.708000183105469,-1.194000005722046
1621593168899,0.1750000119209289,5.9679999351501465,-6.837500095367432,-0.1570000052452087,-9.746000289916992,-1.2009999752044678
1621593168909,-0.209999993443489,5.854000091552734,-7.0,-0.1570000052452087,-9.746000289916992,-1.2009999752044678
1621593168919,-1.0499999523162842,5.140999794006348,-6.982999801635742,-0.2349999994039535,-9.791999816894531,-1.1690000295639038
1621593168929,-1.8899999856948853,5.1529998779296875,-7.052000045776367,-0.2349999994039535,-9.822999954223633,-1.2139999866485596
1621593168939,-2.309999942779541,4.914000034332275,-7.308000087738037,-0.2750000059604644,-9.829999923706056,-1.1759999990463257
1621593168949,-2.940000057220459,5.056000232696533,-7.709000110626221,-0.2750000059604644,-9.753000259399414,-1.1619999408721924
1621593168959,-3.5,5.043000221252441,-7.639999866485595,-0.3140000104904174,-9.675999641418455,-1.1480000019073486
1621593168969,-3.7100000381469727,5.052000045776367,-7.282999992370605,-0.3140000104904174,-9.708000183105469,-1.194000005722046
1621593168979,-3.2899999618530273,5.566999912261963,-6.979000091552734,-0.3529999852180481,-9.668999671936035,-1.187000036239624
1621593168989,-3.7799999713897705,6.072999954223633,-7.0320000648498535,-0.3140000104904174,-9.720999717712402,-1.1169999837875366
1621593168999,-4.059999942779541,5.960000038146973,-7.193999767303467,-0.3140000104904174,-9.708000183105469,-1.194000005722046
1621593169009,-3.990000009536743,5.814000129699707,-6.367000102996826,-0.2750000059604644,-9.701000213623049,-1.2330000400543213
1621593169019,-3.990000009536743,5.453000068664551,-5.933000087738037,-0.2349999994039535,-9.701000213623049,-1.2330000400543213
1621593169029,-4.130000114440918,5.486000061035156,-5.714000225067139,-0.2349999994039535,-9.701000213623049,-1.2330000400543213
1621593169039,-4.130000114440918,5.164999961853027,-5.913000106811523,-0.2750000059604644,-9.654999732971191,-1.2640000581741333
1621593169049,-4.480000019073486,5.039999961853027,-6.00600004196167,-0.3140000104904174,-9.694000244140623,-1.2710000276565552
1621593169059,-4.409999847412109,4.625999927520752,-6.078999996185303,-0.2750000059604644,-9.687000274658203,-1.309999942779541
1621593169069,-4.409999847412109,4.589000225067139,-5.872000217437744,-0.2750000059604644,-9.64900016784668,-1.3029999732971191
1621593169079,-4.619999885559082,4.284999847412109,-5.35699987411499,-0.3140000104904174,-9.64900016784668,-1.3029999732971191
1621593169089,-4.550000190734863,3.7579998970031734,-5.5920000076293945,-0.3140000104904174,-9.64900016784668,-1.3029999732971191
1621593169099,-4.690000057220459,3.5959999561309814,-5.479000091552734,-0.3529999852180481,-9.64900016784668,-1.3029999732971191
1621593169109,-4.619999885559082,3.437999963760376,-5.790999889373779,-0.3529999852180481,-9.64900016784668,-1.3029999732971191
1621593169119,-4.340000152587891,3.1170001029968266,-5.989999771118164,-0.3529999852180481,-9.642000198364256,-1.3420000076293943
1621593169129,-4.130000114440918,3.182000160217285,-6.156000137329102,-0.3529999852180481,-9.595999717712402,-1.3730000257492063
1621593169139,-3.9200000762939458,3.246999979019165,-6.322000026702881,-0.3529999852180481,-9.602999687194824,-1.3350000381469729
1621593169149,-3.7799999713897705,2.878000020980835,-6.244999885559082,-0.3529999852180481,-9.602999687194824,-1.3350000381469729
1621593169159,-3.1500000953674316,2.5329999923706055,-6.306000232696533,-0.3919999897480011,-9.635000228881836,-1.3799999952316284
1621593169169,-3.359999895095825,2.427999973297119,-6.111000061035156,-0.4709999859333038,-9.628000259399414,-1.4190000295639038
1621593169179,-2.940000057220459,2.3350000381469727,-5.985000133514404,-0.4309999942779541,-9.595999717712402,-1.3730000257492063
1621593169189,-2.5899999141693115,2.1640000343322754,-6.229000091552734,-0.4309999942779541,-9.595999717712402,-1.3730000257492063
1621593169199,-2.1700000762939453,2.1080000400543213,-6.309999942779541,-0.4309999942779541,-9.58899974822998,-1.4119999408721924
1621593169209,-1.6799999475479126,1.8159999847412107,-5.863999843597412,-0.4309999942779541,-9.55799961090088,-1.3669999837875366
1621593169219,-1.4700000286102295,1.8639999628067017,-6.139999866485596,-0.4309999942779541,-9.526000022888184,-1.3209999799728394
1621593169229,-1.0499999523162842,1.694000005722046,-6.382999897003174,-0.4709999859333038,-9.602999687194824,-1.3350000381469729
1621593169239,-1.0499999523162842,2.188999891281128,-6.367000102996826,-0.4709999859333038,-9.642000198364256,-1.3420000076293943
1621593169249,-1.190000057220459,2.302000045776367,-6.203999996185303,-0.5099999904632568,-9.68000030517578,-1.3480000495910645
1621593169259,-1.6100000143051147,2.378999948501587,-5.835000038146973,-0.5099999904632568,-9.635000228881836,-1.3799999952316284
1621593169269,-2.380000114440918,2.680000066757202,-5.925000190734863,-0.5099999904632568,-9.642000198364256,-1.3420000076293943
1621593169279,-2.380000114440918,2.822000026702881,-5.118000030517578,-0.5490000247955322,-9.711999893188477,-1.3940000534057615
1621593169289,-2.5899999141693115,2.6510000228881836,-5.361000061035156,-0.5490000247955322,-9.711999893188477,-1.3940000534057615
1621593169299,-2.6600000858306885,2.8299999237060547,-5.968999862670898,-0.5099999904632568,-9.704999923706056,-1.4320000410079956
1621593169309,-2.799999952316284,2.3269999027252197,-5.133999824523926,-0.4709999859333038,-9.666999816894531,-1.4259999990463257
1621593169318,-2.7300000190734863,1.965999960899353,-4.699999809265137,-0.5099999904632568,-9.628000259399414,-1.4190000295639038
1621593169328,-2.6600000858306885,1.531999945640564,-5.060999870300293,-0.5099999904632568,-9.55799961090088,-1.3669999837875366
1621593169338,-2.0999999046325684,1.6210000514984133,-5.968999862670898,-0.5099999904632568,-9.55799961090088,-1.3669999837875366
1621593169348,-1.6799999475479126,1.6289999485015867,-6.821000099182129,-0.5490000247955322,-9.564000129699709,-1.3279999494552612
1621593169358,-1.6799999475479126,1.6369999647140503,-7.067999839782715,-0.5099999904632568,-9.55799961090088,-1.3669999837875366
1621593169368,-1.6799999475479126,1.6449999809265137,-7.315000057220459,-0.5099999904632568,-9.635000228881836,-1.3799999952316284
1621593169378,-1.6100000143051147,1.9859999418258667,-8.036999702453613,-0.5879999995231628,-9.628000259399414,-1.4190000295639038
1621593169388,-1.75,1.8799999952316284,-7.842999935150147,-0.5490000247955322,-9.635000228881836,-1.3799999952316284
1621593169398,-2.309999942779541,2.313999891281128,-8.6899995803833,-0.5879999995231628,-9.673999786376951,-1.3869999647140503
1621593169408,-2.5899999141693115,2.569999933242798,-8.928999900817871,-0.5879999995231628,-9.68000030517578,-1.3480000495910645
1621593169418,-2.869999885559082,3.1170001029968266,-9.614999771118164,-0.5490000247955322,-9.602999687194824,-1.3350000381469729
1621593169428,-2.799999952316284,3.635999917984009,-9.737000465393066,-0.5490000247955322,-9.642000198364256,-1.3420000076293943
1621593169438,-2.5899999141693115,4.52400016784668,-9.9350004196167,-0.5099999904632568,-9.635000228881836,-1.3799999952316284
1621593169448,-2.309999942779541,5.054999828338623,-10.12600040435791,-0.5099999904632568,-9.628000259399414,-1.4190000295639038
1621593169458,-1.8200000524520872,5.793000221252441,-10.279999732971191,-0.5099999904632568,-9.666999816894531,-1.4259999990463257
1621593169468,-1.4700000286102295,6.198999881744385,-10.564000129699709,-0.4309999942779541,-9.58899974822998,-1.4119999408721924
1621593169478,-1.0499999523162842,6.822999954223633,-10.880000114440918,-0.4309999942779541,-9.58899974822998,-1.4119999408721924
1621593169488,-0.7699999809265136,7.026000022888184,-10.41800022125244,-0.3919999897480011,-9.595999717712402,-1.3730000257492063
1621593169498,-0.5600000023841857,6.985000133514404,-9.78600025177002,-0.3919999897480011,-9.642000198364256,-1.3420000076293943
1621593169508,-0.4900000095367431,6.830999851226807,-9.3149995803833,-0.3919999897480011,-9.628000259399414,-1.4190000295639038
1621593169518,-0.5600000023841857,6.414000034332275,-8.961999893188477,-0.3919999897480011,-9.628000259399414,-1.4190000295639038
1621593169528,-0.5600000023841857,6.288000106811523,-9.055999755859377,-0.3529999852180481,-9.635000228881836,-1.3799999952316284
1621593169538,-0.6299999952316284,6.230999946594238,-9.137000083923342,-0.3529999852180481,-9.635000228881836,-1.3799999952316284
1621593169548,-0.4199999868869781,5.992000102996826,-9.392000198364256,-0.3529999852180481,-9.628000259399414,-1.4190000295639038
1621593169558,-0.4900000095367431,5.9679999351501465,-9.253999710083008,-0.3529999852180481,-9.65999984741211,-1.4639999866485596
1621593169568,-0.1400000005960464,5.679999828338623,-9.234000205993652,-0.3140000104904174,-9.704999923706056,-1.4320000410079956
1621593169578,-0.3149999976158142,5.454999923706055,-9.166999816894531,-0.3140000104904174,-9.704999923706056,-1.4320000410079956
1621593169588,-0.4900000095367431,5.230000019073486,-9.100000381469728,-0.3140000104904174,-9.673999786376951,-1.3869999647140503
1621593169598,-0.5600000023841857,5.059000015258789,-9.343000411987305,-0.2750000059604644,-9.673999786376951,-1.3869999647140503
1621593169608,-0.4199999868869781,4.682000160217285,-9.623000144958496,-0.3140000104904174,-9.621000289916992,-1.4570000171661377
1621593169618,-0.4199999868869781,4.645999908447266,-9.416000366210936,-0.3529999852180481,-9.628000259399414,-1.4190000295639038
1621593169628,-0.1400000005960464,4.585000038146973,-9.071999549865724,-0.3140000104904174,-9.635000228881836,-1.3799999952316284
1621593169638,-0.0700000002980232,4.560999870300293,-8.934000015258789,-0.3919999897480011,-9.68000030517578,-1.3480000495910645
1621593169648,-0.209999993443489,4.961999893188477,-8.791999816894531,-0.3529999852180481,-9.68000030517578,-1.3480000495910645
1621593169658,-0.4900000095367431,5.0879998207092285,-8.699000358581543,-0.3529999852180481,-9.673999786376951,-1.3869999647140503
1621593169668,-0.8399999737739563,4.86899995803833,-8.666000366210938,-0.3140000104904174,-9.642000198364256,-1.3420000076293943
1621593169678,-0.9100000262260436,5.533999919891357,-8.406999588012695,-0.3529999852180481,-9.602999687194824,-1.3350000381469729
1621593169688,-0.8399999737739563,5.854000091552734,-8.208000183105469,-0.3140000104904174,-9.602999687194824,-1.3350000381469729
1621593169698,-0.4199999868869781,6.048999786376953,-8.102999687194824,-0.3529999852180481,-9.635000228881836,-1.3799999952316284
1621593169708,-0.3499999940395355,6.316999912261963,-8.41100025177002,-0.3529999852180481,-9.68000030517578,-1.3480000495910645
1621593169718,-0.4199999868869781,6.421999931335449,-8.605999946594238,-0.3140000104904174,-9.711999893188477,-1.3940000534057615
1621593169728,-0.8399999737739563,6.710000038146973,-8.62600040435791,-0.2750000059604644,-9.711999893188477,-1.3940000534057615
1621593169738,-1.3300000429153442,6.632999897003174,-8.994999885559082,-0.3140000104904174,-9.666999816894531,-1.4259999990463257
1621593169748,-1.4700000286102295,7.10699987411499,-9.267000198364256,-0.3140000104904174,-9.718999862670898,-1.3550000190734863
1621593169758,-1.4700000286102295,7.370999813079834,-9.14900016784668,-0.3140000104904174,-9.68000030517578,-1.3480000495910645
1621593169768,-1.3300000429153442,7.387000083923339,-9.64400005340576,-0.3140000104904174,-9.635000228881836,-1.3799999952316284
1621593169778,-0.9100000262260436,7.224999904632568,-9.529999732971191,-0.3140000104904174,-9.642000198364256,-1.3420000076293943
1621593169788,-0.8399999737739563,7.297999858856201,-8.734999656677246,-0.2750000059604644,-9.55799961090088,-1.3669999837875366
1621593169798,-0.1400000005960464,6.790999889373779,-8.682999610900879,-0.2750000059604644,-9.526000022888184,-1.3209999799728394
1621593169808,0.4200000166893005,6.7829999923706055,-8.43549919128418,-0.2750000059604644,-9.487000465393066,-1.3140000104904177
1621593169818,0.9800000190734864,6.775000095367432,-8.187999725341797,-0.2750000059604644,-9.454999923706056,-1.2690000534057615
1621593169828,1.75,6.6529998779296875,-8.706999778747559,-0.2750000059604644,-9.526000022888184,-1.3209999799728394
1621593169838,2.5899999141693115,6.418000221252441,-9.387999534606934,-0.2750000059604644,-9.595999717712402,-1.3730000257492063
1621593169848,2.940000057220459,6.133999824523926,-9.793999671936035,-0.2750000059604644,-9.602999687194824,-1.3350000381469729
1621593169858,3.2899999618530273,6.296000003814697,-9.906999588012695,-0.3140000104904174,-9.642000198364256,-1.3420000076293943
1621593169868,3.359999895095825,6.539000034332275,-10.078000068664553,-0.2750000059604644,-9.64900016784668,-1.3029999732971191
1621593169878,3.569999933242798,6.880000114440918,-10.798999786376951,-0.2750000059604644,-9.68000030517578,-1.3480000495910645
1621593169888,3.6400001049041744,7.2849998474121085,-11.083000183105469,-0.3919999897480011,-9.673999786376951,-1.3869999647140503
1621593169898,3.990000009536743,7.969999790191651,-11.744000434875488,-0.3140000104904174,-9.673999786376951,-1.3869999647140503
1621593169908,4.199999809265137,8.871000289916992,-12.01200008392334,-0.3140000104904174,-9.68000030517578,-1.3480000495910645
1621593169918,4.269999980926514,9.032999992370604,-12.12600040435791,-0.2750000059604644,-9.687000274658203,-1.309999942779541
1621593169928,4.269999980926514,9.84000015258789,-12.267999649047852,-0.2750000059604644,-9.694000244140623,-1.2710000276565552
1621593169938,3.9200000762939458,10.411999702453612,-11.883000373840332,-0.2349999994039535,-9.732999801635742,-1.2779999971389773
1621593169948,3.990000009536743,11.043999671936035,-11.842000007629396,-0.2349999994039535,-9.73900032043457,-1.2389999628067017
1621593169958,3.430000066757202,10.878000259399414,-11.303000450134276,-0.1570000052452087,-9.73900032043457,-1.2389999628067017
1621593169968,3.009999990463257,10.642999649047852,-10.776000022888184,-0.1180000007152557,-9.770999908447264,-1.2849999666213987
1621593169978,2.380000114440918,10.383000373840332,-10.111000061035156,-0.1180000007152557,-9.732999801635742,-1.2779999971389773
1621593169988,1.8200000524520872,9.93299961090088,-9.97700023651123,-0.1570000052452087,-9.694000244140623,-1.2710000276565552
1621593169998,1.399999976158142,9.470999717712402,-9.77400016784668,-0.0780000016093254,-9.746000289916992,-1.2009999752044678
1621593170008,1.3300000429153442,8.802000045776367,-9.607999801635742,-0.1180000007152557,-9.73900032043457,-1.2389999628067017
1621593170018,1.1549999713897705,8.496000289916992,-9.483999252319338,-0.0780000016093254,-9.73900032043457,-1.2389999628067017
1621593170028,0.9800000190734864,8.1899995803833,-9.359999656677246,-0.0780000016093254,-9.701000213623049,-1.2330000400543213
1621593170038,0.4199999868869781,7.695000171661377,-9.37600040435791,-0.0390000008046627,-9.746000289916992,-1.2009999752044678
1621593170048,0.4199999868869781,7.3379998207092285,-9.368000030517578,-0.1180000007152557,-9.654999732971191,-1.2640000581741333
1621593170058,0.0700000002980232,6.795000076293945,-9.107999801635742,-0.1180000007152557,-9.654999732971191,-1.2640000581741333
1621593170068,0.1400000005960464,6.38100004196167,-9.180999755859377,-0.1180000007152557,-9.62399959564209,-1.218999981880188
1621593170078,0.4900000095367431,5.611000061035156,-9.246000289916992,-0.1570000052452087,-9.654999732971191,-1.2640000581741333
1621593170088,0.8399999737739563,5.420000076293945,-9.777000427246092,-0.1570000052452087,-9.616999626159668,-1.2580000162124634
1621593170098,0.8399999737739563,4.85699987411499,-9.805999755859377,-0.1180000007152557,-9.654999732971191,-1.2640000581741333
1621593170108,1.399999976158142,5.019000053405762,-9.918999671936035,-0.1180000007152557,-9.654999732971191,-1.2640000581741333
1621593170118,1.5399999618530271,4.775000095367432,-9.74899959564209,-0.1570000052452087,-9.661999702453612,-1.22599995136261
1621593170128,1.5399999618530271,4.820000171661377,-9.598999977111816,-0.1180000007152557,-9.630000114440918,-1.1799999475479126
1621593170138,1.6100000143051147,4.580999851226807,-9.854000091552734,-0.1570000052452087,-9.668999671936035,-1.187000036239624
1621593170148,1.8899999856948853,4.767000198364258,-10.105999946594238,-0.1180000007152557,-9.57800006866455,-1.2510000467300415
1621593170158,1.9600000381469729,4.96999979019165,-9.642999649047852,-0.1570000052452087,-9.57800006866455,-1.2510000467300415
1621593170168,2.309999942779541,5.245999813079834,-9.595000267028809,-0.1570000052452087,-9.616999626159668,-1.2580000162124634
1621593170178,2.380000114440918,5.869999885559082,-9.91100025177002,-0.1180000007152557,-9.62399959564209,-1.218999981880188
1621593170188,2.799999952316284,6.072999954223633,-9.449000358581545,-0.1180000007152557,-9.746000289916992,-1.2009999752044678
1621593170198,2.5199999809265137,5.934999942779541,-9.472999572753906,-0.1180000007152557,-9.73900032043457,-1.2389999628067017
1621593170208,2.0299999713897705,6.341000080108643,-9.75699996948242,-0.0780000016093254,-9.668999671936035,-1.187000036239624
1621593170218,1.399999976158142,6.315999984741211,-9.619000434875488,-0.0780000016093254,-9.661999702453612,-1.22599995136261
1621593170228,1.6100000143051147,6.644999980926514,-9.064000129699709,-0.0780000016093254,-9.708000183105469,-1.194000005722046
1621593170238,1.2599999904632568,6.6529998779296875,-8.706999778747559,-0.0780000016093254,-9.73900032043457,-1.2389999628067017
1621593170248,1.0850000381469729,6.5879998207092285,-8.540499687194824,-0.0780000016093254,-9.78499984741211,-1.2079999446868896
1621593170258,0.9100000262260436,6.5229997634887695,-8.37399959564209,-0.0780000016093254,-9.753000259399414,-1.1619999408721924
1621593170268,0.6299999952316284,6.025000095367432,-7.9650001525878915,-0.0390000008046627,-9.637000083923342,-1.1419999599456787
1621593170278,0.6299999952316284,5.533999919891357,-7.197999954223633,-0.0780000016093254,-9.598999977111816,-1.1349999904632568
1621593170288,0.5600000023841857,4.815999984741211,-6.75600004196167,-0.0780000016093254,-9.592000007629396,-1.1729999780654907
1621593170298,1.399999976158142,4.301000118255615,-7.059999942779541,-0.0780000016093254,-9.585000038146973,-1.212000012397766
1621593170308,1.4700000286102295,4.223999977111816,-7.42899990081787,-0.0780000016093254,-9.668999671936035,-1.187000036239624
1621593170318,1.4700000286102295,3.5840001106262207,-7.827000141143799,-0.0780000016093254,-9.668999671936035,-1.187000036239624
1621593170328,1.5399999618530271,3.2100000381469727,-8.531999588012695,-0.1180000007152557,-9.708000183105469,-1.194000005722046
1621593170338,1.2599999904632568,3.428999900817871,-8.5649995803833,-0.1180000007152557,-9.708000183105469,-1.194000005722046
1621593170348,0.699999988079071,3.364000082015991,-9.003000259399414,-0.1180000007152557,-9.701000213623049,-1.2330000400543213
1621593170358,0.6299999952316284,3.7460000514984126,-9.14900016784668,-0.1180000007152557,-9.753000259399414,-1.1619999408721924
1621593170368,0.2800000011920929,4.126999855041504,-9.295000076293944,-0.1180000007152557,-9.753000259399414,-1.1619999408721924
1621593170378,0.1400000005960464,4.98199987411499,-9.711999893188477,-0.1570000052452087,-9.753000259399414,-1.1619999408721924
1621593170388,-0.2800000011920929,5.359000205993652,-9.43299961090088,-0.1180000007152557,-9.720999717712402,-1.1169999837875366
1621593170398,-0.4900000095367431,6.0,-9.03499984741211,-0.1180000007152557,-9.720999717712402,-1.1169999837875366
1621593170408,-0.1400000005960464,6.689000129699707,-8.913999557495117,-0.1180000007152557,-9.71399974822998,-1.1549999713897705
1621593170418,0.3499999940395355,6.940999984741211,-8.72700023651123,-0.0780000016093254,-9.68299961090088,-1.1100000143051147
1621593170428,0.0,7.480000019073486,-8.560999870300293,-0.0780000016093254,-9.720999717712402,-1.1169999837875366
1621593170438,0.2800000011920929,7.176000118255615,-8.045999526977539,0.0390000008046627,-9.68299961090088,-1.1100000143051147
1621593170448,0.0,7.159999847412109,-7.551000118255616,0.0390000008046627,-9.68299961090088,-1.1100000143051147
1621593170458,-0.209999993443489,6.835999965667725,-7.323999881744384,0.0390000008046627,-9.741999626159668,-1.0010000467300415
1621593170468,0.0,6.567999839782715,-7.015999794006348,0.0390000008046627,-9.727999687194824,-1.0779999494552612
1621593170478,-0.0350000001490116,6.324999809265137,-6.8454999923706055,0.0390000008046627,-9.767000198364256,-1.0850000381469729
1621593170488,-0.0700000002980232,6.081999778747559,-6.675000190734863,0.0390000008046627,-9.720999717712402,-1.1169999837875366
1621593170498,-0.3499999940395355,5.668000221252441,-6.748000144958496,0.0390000008046627,-9.71399974822998,-1.1549999713897705
1621593170508,-0.6299999952316284,5.125,-6.488999843597412,0.0,-9.720999717712402,-1.1169999837875366
1621593170518,-0.699999988079071,4.75600004196167,-6.4120001792907715,0.0,-9.720999717712402,-1.1169999837875366
1621593170528,-0.699999988079071,4.2729997634887695,-6.497000217437744,-0.0390000008046627,-9.720999717712402,-1.1169999837875366
1621593170538,-1.1200000047683716,3.7420001029968266,-6.306000232696533,-0.0390000008046627,-9.68299961090088,-1.1100000143051147
1621593170548,-1.5399999618530271,3.503000020980835,-6.560999870300293,-0.0390000008046627,-9.720999717712402,-1.1169999837875366
1621593170558,-1.6799999475479126,3.372999906539917,-6.229000091552734,-0.0780000016093254,-9.68299961090088,-1.1100000143051147
1621593170568,-1.75,3.4179999828338623,-6.078999996185303,-0.0390000008046627,-9.727999687194824,-1.0779999494552612
1621593170578,-1.75,2.9800000190734863,-6.013999938964844,-0.0780000016093254,-9.760000228881836,-1.1230000257492063
1621593170588,-2.0299999713897705,3.372999906539917,-6.229000091552734,-0.0780000016093254,-9.734999656677246,-1.0390000343322754
1621593170598,-2.0999999046325684,3.510999917984009,-6.204999923706055,-0.0780000016093254,-9.689000129699709,-1.0709999799728394
1621593170608,-2.0999999046325684,3.7739999294281006,-6.086999893188477,-0.1180000007152557,-9.727999687194824,-1.0779999494552612
1621593170618,-2.0999999046325684,4.3379998207092285,-6.059000015258789,-0.1570000052452087,-9.675999641418455,-1.1480000019073486
1621593170628,-2.1700000762939453,4.302000045776367,-5.8520002365112305,-0.1570000052452087,-9.71399974822998,-1.1549999713897705
1621593170638,-2.0999999046325684,4.876999855041504,-5.89300012588501,-0.1180000007152557,-9.675999641418455,-1.1480000019073486
1621593170648,-2.309999942779541,4.703000068664551,-5.710000038146973,-0.1570000052452087,-9.668999671936035,-1.187000036239624
1621593170658,-2.309999942779541,5.132999897003174,-6.131999969482422,-0.1180000007152557,-9.668999671936035,-1.187000036239624
1621593170668,-2.0299999713897705,4.982999801635742,-6.086999893188477,-0.1180000007152557,-9.661999702453612,-1.22599995136261
1621593170678,-1.6799999475479126,5.144999980926514,-6.201000213623047,-0.1180000007152557,-9.701000213623049,-1.2330000400543213
1621593170688,-1.8200000524520872,5.26200008392334,-6.464000225067139,-0.0780000016093254,-9.708000183105469,-1.194000005722046
1621593170698,-1.9600000381469729,5.2845001220703125,-6.388999938964844,0.0,-9.708000183105469,-1.194000005722046
1621593170708,-2.0999999046325684,5.307000160217285,-6.314000129699707,-0.0390000008046627,-9.746000289916992,-1.2009999752044678
1621593170718,-2.5199999809265137,5.559000015258789,-6.127999782562256,-0.0390000008046627,-9.732999801635742,-1.2779999971389773
1621593170728,-2.5899999141693115,5.453000068664551,-5.933000087738037,-0.0390000008046627,-9.694000244140623,-1.2710000276565552
1621593170738,-2.309999942779541,5.044000148773193,-6.432000160217285,-0.0390000008046627,-9.62399959564209,-1.218999981880188
1621593170748,-2.309999942779541,4.7270002365112305,-5.8480000495910645,-0.0780000016093254,-9.592000007629396,-1.1729999780654907
1621593170758,-1.8200000524520872,4.224999904632568,-5.013000011444092,-0.0780000016093254,-9.553000450134276,-1.1670000553131104
1621593170768,-0.9100000262260436,3.8069999217987065,-4.659999847412109,-0.0390000008046627,-9.592000007629396,-1.1729999780654907
1621593170778,-0.6299999952316284,3.624000072479248,-4.834000110626221,-0.0780000016093254,-9.630000114440918,-1.1799999475479126
1621593170788,-0.3499999940395355,3.177999973297119,-5.125999927520752,-0.1180000007152557,-9.630000114440918,-1.1799999475479126
1621593170798,-0.2800000011920929,3.056999921798706,-5.644999980926514,-0.1180000007152557,-9.668999671936035,-1.187000036239624
1621593170808,-0.3499999940395355,3.2070000171661377,-5.690000057220459,-0.1180000007152557,-9.661999702453612,-1.22599995136261
1621593170818,-0.3499999940395355,3.2109999656677246,-6.114999771118164,-0.1180000007152557,-9.675999641418455,-1.1480000019073486
1621593170828,-0.3499999940395355,3.3399999141693115,-6.447999954223633,-0.1180000007152557,-9.675999641418455,-1.1480000019073486
1621593170838,-0.9100000262260436,3.6530001163482666,-6.605999946594238,-0.1180000007152557,-9.720999717712402,-1.1169999837875366
1621593170848,-0.9100000262260436,3.9449999332427974,-7.052000045776367,-0.2349999994039535,-9.760000228881836,-1.1230000257492063
1621593170858,-0.6299999952316284,4.480000019073486,-7.669000148773193,-0.1959999948740005,-9.71399974822998,-1.1549999713897705
1621593170868,-0.9100000262260436,4.539999961853027,-8.012999534606934,-0.1180000007152557,-9.708000183105469,-1.194000005722046
1621593170878,-0.7699999809265136,4.973999977111816,-7.651999950408936,-0.1180000007152557,-9.753000259399414,-1.1619999408721924
1621593170888,-0.699999988079071,5.019000053405762,-7.501999855041504,-0.1180000007152557,-9.708000183105469,-1.194000005722046
1621593170898,-0.7699999809265136,5.019000053405762,-7.501999855041504,-0.0780000016093254,-9.708000183105469,-1.194000005722046
1621593170908,-0.9800000190734864,5.546000003814697,-7.267000198364258,-0.0780000016093254,-9.708000183105469,-1.194000005722046
1621593170917,-1.0149999856948853,5.451000213623047,-6.928500175476074,-0.0390000008046627,-9.73900032043457,-1.2389999628067017
1621593170928,-1.0499999523162842,5.355999946594238,-6.590000152587891,-0.0390000008046627,-9.73900032043457,-1.2389999628067017
1621593170938,-1.2599999904632568,5.23799991607666,-6.327000141143799,-0.0390000008046627,-9.746000289916992,-1.2009999752044678
1621593170948,-1.3300000429153442,4.824999809265137,-6.39900016784668,-0.0390000008046627,-9.708000183105469,-1.194000005722046
1621593170957,-1.4700000286102295,4.3379998207092285,-6.059000015258789,-0.0390000008046627,-9.708000183105469,-1.194000005722046
1621593170967,-2.0999999046325684,3.83899998664856,-5.64900016784668,-0.0390000008046627,-9.708000183105469,-1.194000005722046
1621593170977,-1.6799999475479126,3.177999973297119,-6.334000110626221,-0.0390000008046627,-9.73900032043457,-1.2389999628067017
1621593170987,-1.6799999475479126,2.696000099182129,-6.419000148773193,-0.0780000016093254,-9.654999732971191,-1.2640000581741333
1621593170997,-1.9600000381469729,2.2820000648498535,-6.492000102996826,-0.1180000007152557,-9.654999732971191,-1.2640000581741333
1621593171007,-2.0999999046325684,1.7100000381469729,-6.877999782562256,-0.1180000007152557,-9.654999732971191,-1.2640000581741333
1621593171017,-1.8200000524520872,1.4099999666213987,-6.788000106811523,-0.1180000007152557,-9.661999702453612,-1.22599995136261
1621593171027,-1.8899999856948853,1.3899999856948853,-7.076000213623047,-0.1180000007152557,-9.616999626159668,-1.2580000162124634
1621593171037,-2.0999999046325684,1.3209999799728394,-7.0879998207092285,-0.1570000052452087,-9.616999626159668,-1.2580000162124634
1621593171047,-2.0299999713897705,0.996999979019165,-6.861000061035156,-0.1180000007152557,-9.654999732971191,-1.2640000581741333
1621593171057,-1.8899999856948853,1.4670000076293943,-6.706999778747559,-0.1570000052452087,-9.62399959564209,-1.218999981880188
1621593171067,-1.6799999475479126,1.4789999723434448,-6.776000022888184,-0.1570000052452087,-9.661999702453612,-1.22599995136261
1621593171077,-1.4700000286102295,1.9700000286102295,-6.334000110626221,-0.1570000052452087,-9.661999702453612,-1.22599995136261
1621593171087,-1.0499999523162842,2.509000062942505,-6.168000221252441,-0.2349999994039535,-9.616999626159668,-1.2580000162124634
1621593171097,-0.699999988079071,2.812999963760376,-6.683000087738037,-0.2349999994039535,-9.661999702453612,-1.22599995136261
1621593171107,-0.209999993443489,3.121000051498413,-6.414999961853027,-0.1959999948740005,-9.661999702453612,-1.22599995136261
1621593171117,0.0700000002980232,3.1089999675750732,-6.346499919891357,-0.1570000052452087,-9.637000083923342,-1.1419999599456787
1621593171127,0.3499999940395355,3.0969998836517334,-6.2779998779296875,-0.1180000007152557,-9.585000038146973,-1.212000012397766
1621593171137,0.5600000023841857,2.996000051498413,-6.508999824523926,-0.1959999948740005,-9.57800006866455,-1.2510000467300415
1621593171147,0.5600000023841857,3.377000093460083,-6.65500020980835,-0.1959999948740005,-9.654999732971191,-1.2640000581741333
1621593171157,0.4199999868869781,3.8550000190734863,-7.3520002365112305,-0.2349999994039535,-9.732999801635742,-1.2779999971389773
1621593171167,0.1400000005960464,4.431000232696533,-7.39300012588501,-0.2750000059604644,-9.72599983215332,-1.3170000314712524
1621593171177,-0.1400000005960464,4.557000160217285,-7.300000190734864,-0.2349999994039535,-9.687000274658203,-1.309999942779541
1621593171187,-0.9100000262260436,4.683000087738037,-7.205999851226807,-0.2349999994039535,-9.694000244140623,-1.2710000276565552
1621593171197,-0.8399999737739563,5.395999908447266,-7.223000049591064,-0.1959999948740005,-9.701000213623049,-1.2330000400543213
1621593171207,-1.0499999523162842,5.671999931335449,-7.173999786376953,-0.2349999994039535,-9.73900032043457,-1.2389999628067017
1621593171217,-1.2599999904632568,5.861999988555908,-7.85099983215332,-0.1959999948740005,-9.732999801635742,-1.2779999971389773
1621593171227,-1.1200000047683716,5.943999767303467,-7.907999992370605,-0.1959999948740005,-9.654999732971191,-1.2640000581741333
1621593171237,-0.9100000262260436,5.623000144958496,-6.8979997634887695,-0.1959999948740005,-9.62399959564209,-1.218999981880188
1621593171247,-0.2800000011920929,5.814000129699707,-6.367000102996826,-0.2349999994039535,-9.62399959564209,-1.218999981880188
1621593171257,0.6299999952316284,5.703999996185303,-6.954999923706055,-0.2349999994039535,-9.62399959564209,-1.218999981880188
1621593171267,0.699999988079071,5.931000232696533,-7.83900022506714,-0.2349999994039535,-9.62399959564209,-1.218999981880188
1621593171277,0.9100000262260436,6.203000068664551,-8.572999954223633,-0.2349999994039535,-9.609999656677246,-1.2960000038146973
1621593171287,0.699999988079071,6.564000129699707,-9.006999969482422,-0.2750000059604644,-9.654999732971191,-1.2640000581741333
1621593171297,0.4199999868869781,7.061999797821045,-9.416999816894531,-0.2750000059604644,-9.701000213623049,-1.2330000400543213
1621593171307,0.0700000002980232,7.690999984741211,-10.159000396728516,-0.2750000059604644,-9.73900032043457,-1.2389999628067017
1621593171317,-0.5600000023841857,8.310999870300293,-10.048999786376951,-0.2750000059604644,-9.73900032043457,-1.2389999628067017
1621593171327,-0.4900000095367431,8.904999732971191,-10.192999839782717,-0.2750000059604644,-9.746000289916992,-1.2009999752044678
1621593171337,-0.4199999868869781,9.49899959564209,-10.336999893188477,-0.2750000059604644,-9.668999671936035,-1.187000036239624
1621593171347,-0.0700000002980232,10.010000228881836,-10.815999984741213,-0.2349999994039535,-9.585000038146973,-1.212000012397766
1621593171357,-0.1400000005960464,10.529000282287598,-10.937999725341797,-0.2349999994039535,-9.630000114440918,-1.1799999475479126
1621593171367,0.0700000002980232,11.631999969482422,-10.743000030517578,-0.1959999948740005,-9.708000183105469,-1.194000005722046
1621593171377,0.4900000095367431,12.078000068664553,-10.451000213623049,-0.1959999948740005,-9.701000213623049,-1.2330000400543213
1621593171387,0.4900000095367431,12.746999740600586,-10.618000030517578,-0.1180000007152557,-9.701000213623049,-1.2330000400543213
1621593171397,0.6299999952316284,13.392000198364258,-10.645999908447266,-0.1570000052452087,-9.68000030517578,-1.3480000495910645
1621593171407,0.5600000023841857,13.45699977874756,-10.208000183105469,-0.1570000052452087,-9.64900016784668,-1.3029999732971191
1621593171417,0.9100000262260436,13.717000007629396,-9.66499996185303,-0.0780000016093254,-9.675999641418455,-1.1480000019073486
1621593171427,0.9800000190734864,13.956000328063965,-9.40999984741211,-0.0780000016093254,-9.630000114440918,-1.1799999475479126
1621593171437,1.0499999523162842,13.526000022888184,-8.98799991607666,-0.1180000007152557,-9.668999671936035,-1.187000036239624
1621593171447,1.190000057220459,13.744999885559082,-9.020000457763674,-0.0780000016093254,-9.701000213623049,-1.2330000400543213
1621593171457,1.190000057220459,13.944000244140623,-9.340999603271484,-0.0390000008046627,-9.661999702453612,-1.22599995136261
1621593171467,0.9800000190734864,14.220000267028809,-9.291999816894531,-0.0780000016093254,-9.701000213623049,-1.2330000400543213
1621593171477,0.7699999809265136,14.402000427246094,-9.118000030517578,-0.0780000016093254,-9.701000213623049,-1.2330000400543213
1621593171487,0.6299999952316284,14.154999732971191,-8.522000312805176,-0.0390000008046627,-9.701000213623049,-1.2330000400543213
1621593171497,0.3499999940395355,14.673999786376951,-8.642999649047852,-0.0390000008046627,-9.661999702453612,-1.22599995136261
1621593171507,0.209999993443489,14.706000328063965,-8.423999786376953,-0.0390000008046627,-9.661999702453612,-1.22599995136261
1621593171517,0.0700000002980232,14.093999862670898,-8.177000045776367,-0.0390000008046627,-9.62399959564209,-1.218999981880188
1621593171527,0.1050000041723251,14.069499969482422,-8.038999557495117,0.0,-9.661999702453612,-1.22599995136261
1621593171537,0.1400000005960464,14.045000076293944,-7.901000022888184,0.0,-9.675999641418455,-1.1480000019073486
1621593171547,0.1400000005960464,14.11400032043457,-7.888999938964843,0.0,-9.661999702453612,-1.22599995136261
1621593171557,0.4199999868869781,13.550999641418455,-7.916999816894531,-0.0390000008046627,-9.654999732971191,-1.2640000581741333
1621593171567,0.2800000011920929,12.909999847412108,-8.3149995803833,0.0,-9.701000213623049,-1.2330000400543213
1621593171577,0.209999993443489,12.82900047302246,-8.258000373840332,0.0,-9.73900032043457,-1.2389999628067017
1621593171587,0.0,12.690999984741213,-8.281999588012695,0.0780000016093254,-9.73900032043457,-1.2389999628067017
1621593171597,-0.1400000005960464,12.07900047302246,-8.03499984741211,0.0780000016093254,-9.701000213623049,-1.2330000400543213
1621593171607,-0.2800000011920929,11.364999771118164,-8.017999649047852,0.0390000008046627,-9.708000183105469,-1.194000005722046
1621593171617,-0.4900000095367431,10.878000259399414,-7.677999973297118,0.0780000016093254,-9.701000213623049,-1.2330000400543213
1621593171627,-0.3499999940395355,10.33899974822998,-7.843999862670899,0.0780000016093254,-9.668999671936035,-1.187000036239624
1621593171637,-0.699999988079071,9.812000274658203,-8.079000473022461,0.0390000008046627,-9.694000244140623,-1.2710000276565552
1621593171647,-0.4199999868869781,9.354000091552734,-8.302000045776367,0.0390000008046627,-9.732999801635742,-1.2779999971389773
1621593171657,-0.8399999737739563,8.878999710083008,-8.029999732971191,0.0390000008046627,-9.777999877929688,-1.2460000514984133
1621593171667,-1.6100000143051147,8.315999984741211,-8.057999610900879,0.0390000008046627,-9.732999801635742,-1.2779999971389773
1621593171677,-2.240000009536743,7.866000175476073,-7.925000190734864,0.0780000016093254,-9.654999732971191,-1.2640000581741333
1621593171687,-2.240000009536743,7.793000221252441,-7.511000156402587,0.0,-9.732999801635742,-1.2779999971389773
1621593171697,-2.5199999809265137,7.651000022888184,-8.317999839782715,0.0,-9.763999938964846,-1.3229999542236328
1621593171707,-2.380000114440918,7.432000160217285,-8.28499984741211,0.0,-9.770999908447264,-1.2849999666213987
1621593171717,-2.240000009536743,6.960999965667725,-7.230999946594238,0.0390000008046627,-9.654999732971191,-1.2640000581741333
1621593171727,-1.75,6.945000171661377,-6.736000061035156,0.0,-9.616999626159668,-1.2580000162124634
1621593171737,-1.2949999570846558,6.809499740600586,-6.9735002517700195,0.0,-9.57800006866455,-1.2510000467300415
1621593171747,-0.8399999737739563,6.673999786376953,-7.210999965667725,-0.0390000008046627,-9.54599952697754,-1.2050000429153442
1621593171757,-0.4199999868869781,6.802999973297119,-7.543000221252441,-0.0390000008046627,-9.585000038146973,-1.212000012397766
1621593171767,-0.3499999940395355,7.038000106811523,-8.069999694824219,-0.0390000008046627,-9.62399959564209,-1.218999981880188
1621593171777,-0.4900000095367431,7.1479997634887695,-8.690999984741211,0.0,-9.654999732971191,-1.2640000581741333
1621593171787,-0.7699999809265136,6.965000152587891,-8.864999771118164,-0.0390000008046627,-9.732999801635742,-1.2779999971389773
1621593171797,-1.2599999904632568,7.359000205993653,-9.079999923706056,-0.0390000008046627,-9.732999801635742,-1.2779999971389773
1621593171807,-1.190000057220459,7.2129998207092285,-9.461000442504885,0.0,-9.694000244140623,-1.2710000276565552
1621593171817,-1.1200000047683716,7.387000083923339,-9.64400005340576,0.0,-9.661999702453612,-1.22599995136261
1621593171827,-1.1200000047683716,7.548999786376954,-9.75699996948242,0.0390000008046627,-9.694000244140623,-1.2710000276565552
1621593171837,-1.399999976158142,7.342000007629395,-9.793999671936035,0.0780000016093254,-9.694000244140623,-1.2710000276565552
1621593171847,-1.3300000429153442,7.824999809265136,-9.708999633789062,0.0390000008046627,-9.694000244140623,-1.2710000276565552
1621593171857,-1.3300000429153442,7.914000034332275,-9.409000396728516,0.0390000008046627,-9.694000244140623,-1.2710000276565552
1621593171867,-1.0499999523162842,8.13700008392334,-9.866999626159668,0.0390000008046627,-9.661999702453612,-1.22599995136261
1621593171877,-0.7699999809265136,8.197999954223633,-10.211999893188477,0.1180000007152557,-9.701000213623049,-1.2330000400543213
1621593171887,-1.3300000429153442,8.109000205993652,-9.303000450134276,0.0780000016093254,-9.654999732971191,-1.2640000581741333
1621593171897,-1.4700000286102295,7.666999816894531,-8.812999725341797,0.1180000007152557,-9.694000244140623,-1.2710000276565552
1621593171907,-1.6799999475479126,7.422999858856201,-8.642000198364258,0.1180000007152557,-9.701000213623049,-1.2330000400543213
1621593171917,-1.5399999618530271,7.2129998207092285,-8.253000259399414,0.1180000007152557,-9.701000213623049,-1.2330000400543213
1621593171927,-1.4700000286102295,6.599999904632568,-8.005000114440918,0.1959999948740005,-9.661999702453612,-1.22599995136261
1621593171937,-1.5399999618530271,6.093999862670898,-7.953000068664551,0.1959999948740005,-9.661999702453612,-1.22599995136261
1621593171947,-1.5750000476837158,5.609000205993652,-7.824999809265136,0.1959999948740005,-9.701000213623049,-1.2330000400543213
1621593171957,-1.6100000143051147,5.124000072479248,-7.697000026702882,0.1570000052452087,-9.746000289916992,-1.2009999752044678
1621593171967,-1.4700000286102295,4.776000022888184,-7.331999778747559,0.1570000052452087,-9.73900032043457,-1.2389999628067017
1621593171977,-1.1200000047683716,4.11899995803833,-7.235000133514405,0.1570000052452087,-9.701000213623049,-1.2330000400543213
1621593171987,-1.4700000286102295,3.79800009727478,-7.433000087738037,0.1180000007152557,-9.72599983215332,-1.3170000314712524
1621593171997,-1.6100000143051147,3.1459999084472656,-7.762000083923339,0.1180000007152557,-9.654999732971191,-1.2640000581741333
1621593172007,-1.5399999618530271,2.553999900817871,-7.22599983215332,0.0780000016093254,-9.694000244140623,-1.2710000276565552
1621593172017,-1.6100000143051147,2.3589999675750732,-7.331999778747559,0.0780000016093254,-9.687000274658203,-1.309999942779541
1621593172027,-1.6799999475479126,1.7710000276565552,-7.222000122070312,0.0390000008046627,-9.687000274658203,-1.309999942779541
1621593172037,-2.0299999713897705,2.1760001182556152,-7.506000041961671,0.0390000008046627,-9.687000274658203,-1.309999942779541
1621593172047,-2.309999942779541,1.9210000038146973,-7.267000198364258,0.0390000008046627,-9.64900016784668,-1.3029999732971191
1621593172057,-2.1700000762939453,1.6210000514984133,-7.177999973297119,0.0780000016093254,-9.694000244140623,-1.2710000276565552
1621593172067,-1.8899999856948853,2.046999931335449,-7.173999786376953,0.0780000016093254,-9.64900016784668,-1.3029999732971191
1621593172077,-1.8200000524520872,1.690000057220459,-7.164999961853027,0.0780000016093254,-9.654999732971191,-1.2640000581741333
1621593172087,-1.6799999475479126,1.5850000381469729,-6.9710001945495605,0.0780000016093254,-9.654999732971191,-1.2640000581741333
1621593172097,-1.9600000381469729,1.6289999485015867,-6.821000099182129,0.0,-9.654999732971191,-1.2640000581741333
1621593172107,-1.5399999618530271,1.6289999485015867,-6.821000099182129,0.0390000008046627,-9.694000244140623,-1.2710000276565552
1621593172117,-1.5399999618530271,1.6130000352859497,-7.5339999198913565,0.0780000016093254,-9.770999908447264,-1.2849999666213987
1621593172127,-1.75,1.625,-7.603000164031982,0.0390000008046627,-9.847999572753906,-1.2979999780654907
1621593172137,-2.0999999046325684,1.8890000581741333,-7.486000061035157,0.0390000008046627,-9.8100004196167,-1.2920000553131104
1621593172147,-2.799999952316284,2.1519999504089355,-7.368000030517577,0.0390000008046627,-9.687000274658203,-1.309999942779541
1621593172157,-2.869999885559082,2.1519999504089355,-7.368000030517577,0.0390000008046627,-9.68000030517578,-1.3480000495910645
1621593172167,-3.0450000762939453,2.128000020980835,-7.230000019073486,0.0,-9.718999862670898,-1.3550000190734863
1621593172177,-3.2200000286102295,2.1040000915527344,-7.0920000076293945,0.0,-9.758000373840332,-1.3619999885559082
1621593172187,-3.2899999618530273,2.2699999809265137,-7.631999969482423,0.0780000016093254,-9.72599983215332,-1.3170000314712524
1621593172197,-2.940000057220459,2.4730000495910645,-7.170000076293945,0.0780000016093254,-9.687000274658203,-1.309999942779541
1621593172207,-2.7300000190734863,2.2209999561309814,-6.1479997634887695,0.0390000008046627,-9.609999656677246,-1.2960000038146973
1621593172217,-2.450000047683716,1.9780000448226929,-5.9770002365112305,0.0,-9.57800006866455,-1.2510000467300415
1621593172227,-1.75,2.188999891281128,-6.367000102996826,0.0,-9.616999626159668,-1.2580000162124634
1621593172237,-1.4700000286102295,2.309999942779541,-7.056000232696533,0.0,-9.604999542236328,-1.0959999561309814
1621593172247,-1.4700000286102295,2.4200000762939453,-7.676000118255616,0.0,-9.661999702453612,-1.22599995136261
1621593172257,-1.4700000286102295,2.249000072479248,-7.920000076293945,-0.0390000008046627,-9.642000198364256,-1.3420000076293943
1621593172267,-1.5399999618530271,2.5169999599456787,-8.227999687194824,-0.0390000008046627,-9.687000274658203,-1.309999942779541
1621593172277,-1.9600000381469729,3.052000045776367,-8.843999862670898,-0.0390000008046627,-9.687000274658203,-1.309999942779541
1621593172287,-2.450000047683716,3.4210000038146973,-8.920999526977539,0.0,-9.72599983215332,-1.3170000314712524
1621593172297,-2.5199999809265137,3.802000045776367,-9.06700038909912,0.0,-9.68000030517578,-1.3480000495910645
1621593172307,-2.450000047683716,4.321000099182129,-9.189000129699709,0.0390000008046627,-9.64900016784668,-1.3029999732971191
1621593172317,-2.380000114440918,4.78000020980835,-8.965999603271484,0.0390000008046627,-9.64900016784668,-1.3029999732971191
1621593172327,-1.8200000524520872,4.800000190734863,-8.678000450134277,0.0780000016093254,-9.642000198364256,-1.3420000076293943
1621593172337,-1.190000057220459,4.96999979019165,-8.4350004196167,0.0780000016093254,-9.687000274658203,-1.309999942779541
1621593172347,-1.0499999523162842,5.0960001945495605,-8.342000007629395,0.0780000016093254,-9.687000274658203,-1.309999942779541
1621593172357,-0.6299999952316284,5.046999931335449,-8.065999984741211,0.1180000007152557,-9.64900016784668,-1.3029999732971191
1621593172367,-0.8399999737739563,4.982999801635742,-7.296000003814697,0.1180000007152557,-9.642000198364256,-1.3420000076293943
1621593172377,-0.6299999952316284,4.743000030517578,-6.3429999351501465,0.1570000052452087,-9.68000030517578,-1.3480000495910645
1621593172387,-0.5950000286102294,4.546500205993652,-6.235499858856201,0.1180000007152557,-9.666999816894531,-1.4259999990463257
1621593172397,-0.5600000023841857,4.349999904632568,-6.127999782562256,0.1180000007152557,-9.635000228881836,-1.3799999952316284
1621593172407,-0.7699999809265136,4.281000137329102,-6.139999866485596,0.1180000007152557,-9.642000198364256,-1.3420000076293943
1621593172417,-0.7699999809265136,3.8680000305175786,-6.2129998207092285,0.1570000052452087,-9.609999656677246,-1.2960000038146973
1621593172427,-0.7699999809265136,3.5309998989105225,-5.916999816894531,0.1570000052452087,-9.642000198364256,-1.3420000076293943
1621593172437,-0.699999988079071,3.3489999771118164,-6.091000080108643,0.1180000007152557,-9.64900016784668,-1.3029999732971191
1621593172447,-0.9800000190734864,3.0160000324249268,-6.2210001945495605,0.0390000008046627,-9.64900016784668,-1.3029999732971191
1621593172457,-0.4199999868869781,2.760999917984009,-5.980999946594238,0.0780000016093254,-9.609999656677246,-1.2960000038146973
1621593172467,-0.3499999940395355,2.5859999656677246,-5.798999786376953,0.0390000008046627,-9.609999656677246,-1.2960000038146973
1621593172477,-0.3499999940395355,2.5980000495910645,-5.868000030517578,0.0390000008046627,-9.642000198364256,-1.3420000076293943
1621593172487,-0.0700000002980232,2.558000087738037,-6.443999767303467,0.0390000008046627,-9.64900016784668,-1.3029999732971191
1621593172497,-0.3499999940395355,2.549999952316284,-6.801000118255615,0.0390000008046627,-9.687000274658203,-1.309999942779541
1621593172507,-0.4199999868869781,2.9059998989105225,-6.809000015258789,0.0,-9.687000274658203,-1.309999942779541
1621593172517,-0.6299999952316284,3.377000093460083,-6.65500020980835,0.0,-9.718999862670898,-1.3550000190734863
1621593172527,-0.699999988079071,3.7909998893737793,-6.581999778747559,-0.0780000016093254,-9.704999923706056,-1.4320000410079956
1621593172537,-0.6299999952316284,3.9319999217987065,-6.982999801635742,-0.0390000008046627,-9.718999862670898,-1.3550000190734863
1621593172547,-1.1200000047683716,4.163000106811523,-7.085000038146973,-0.0390000008046627,-9.72599983215332,-1.3170000314712524
1621593172556,-0.9800000190734864,4.326000213623047,-7.197999954223633,-0.0390000008046627,-9.687000274658203,-1.309999942779541
1621593172566,-0.699999988079071,4.670000076293945,-7.13700008392334,-0.0780000016093254,-9.687000274658203,-1.309999942779541
1621593172576,-0.8399999737739563,4.96999979019165,-7.2270002365112305,-0.0390000008046627,-9.694000244140623,-1.2710000276565552
1621593172586,-0.6299999952316284,5.2829999923706055,-7.385000228881835,0.0,-9.64900016784668,-1.3029999732971191
1621593172596,-0.5600000023841857,5.566499710083008,-7.583499908447266,0.0,-9.616999626159668,-1.2580000162124634
1621593172606,-0.4900000095367431,5.849999904632568,-7.782000064849853,0.0,-9.654999732971191,-1.2640000581741333
1621593172616,-0.5600000023841857,5.943999767303467,-7.907999992370605,-0.0390000008046627,-9.72599983215332,-1.3170000314712524
1621593172626,-0.9100000262260436,6.206999778747559,-7.790999889373779,0.0,-9.763999938964846,-1.3229999542236328
1621593172636,-1.6799999475479126,6.434000015258789,-7.4660000801086435,0.0,-9.72599983215332,-1.3170000314712524
1621593172646,-1.75,6.502999782562256,-7.453999996185303,0.0,-9.673999786376951,-1.3869999647140503
1621593172656,-1.6100000143051147,6.283999919891357,-7.421999931335449,-0.0390000008046627,-9.68000030517578,-1.3480000495910645
1621593172666,-1.3300000429153442,6.491000175476074,-7.385000228881835,0.0390000008046627,-9.763999938964846,-1.3229999542236328
1621593172676,-1.5399999618530271,6.048999786376953,-6.894000053405762,0.0390000008046627,-9.770999908447264,-1.2849999666213987
1621593172686,-1.399999976158142,5.578999996185303,-5.840000152587891,0.0780000016093254,-9.64900016784668,-1.3029999732971191
1621593172696,-1.1200000047683716,5.067999839782715,-5.361000061035156,0.0390000008046627,-9.571000099182127,-1.2890000343322754
1621593172706,-0.3499999940395355,4.297999858856201,-5.426000118255615,0.0390000008046627,-9.571000099182127,-1.2890000343322754
1621593172716,-0.1400000005960464,4.349999904632568,-6.127999782562256,0.0390000008046627,-9.571000099182127,-1.2890000343322754
1621593172726,-0.1400000005960464,3.802999973297119,-6.651000022888184,0.0390000008046627,-9.687000274658203,-1.309999942779541
1621593172736,-0.1400000005960464,3.8550000190734863,-7.3520002365112305,0.0,-9.64900016784668,-1.3029999732971191
1621593172746,-0.3499999940395355,3.6400001049041744,-7.745999813079834,-0.0390000008046627,-9.642000198364256,-1.3420000076293943
1621593172756,-0.5600000023841857,3.6809999942779545,-8.378000259399414,-0.0390000008046627,-9.687000274658203,-1.309999942779541
1621593172766,-0.7699999809265136,3.8829998970031734,-9.12399959564209,-0.0390000008046627,-9.687000274658203,-1.309999942779541
1621593172776,-0.699999988079071,4.682000160217285,-9.623000144958496,-0.0390000008046627,-9.687000274658203,-1.309999942779541
1621593172786,-0.4199999868869781,5.257999897003174,-9.663999557495115,-0.0390000008046627,-9.642000198364256,-1.3420000076293943
1621593172796,-0.209999993443489,5.71999979019165,-9.866999626159668,-0.0780000016093254,-9.654999732971191,-1.2640000581741333
1621593172806,0.0,6.0345001220703125,-9.633499145507812,-0.0390000008046627,-9.654999732971191,-1.2640000581741333
1621593172816,0.209999993443489,6.348999977111816,-9.399999618530272,-0.0390000008046627,-9.654999732971191,-1.2640000581741333
1621593172826,0.699999988079071,6.888000011444092,-9.234000205993652,-0.0390000008046627,-9.661999702453612,-1.22599995136261
1621593172836,1.190000057220459,7.241000175476073,-8.817000389099121,0.0,-9.701000213623049,-1.2330000400543213
1621593172846,1.2599999904632568,7.663000106811523,-8.38700008392334,0.0390000008046627,-9.732999801635742,-1.2779999971389773
1621593172856,1.2599999904632568,7.951000213623046,-8.406999588012695,0.0390000008046627,-9.770999908447264,-1.2849999666213987
1621593172866,1.190000057220459,8.104999542236328,-7.669000148773193,0.1180000007152557,-9.770999908447264,-1.2849999666213987
1621593172876,0.4199999868869781,8.157999992370605,-7.1620001792907715,0.1180000007152557,-9.732999801635742,-1.2779999971389773
1621593172886,0.0,7.67899990081787,-6.465000152587891,0.0780000016093254,-9.732999801635742,-1.2779999971389773
1621593172896,-0.209999993443489,7.7729997634887695,-6.590000152587891,0.1570000052452087,-9.732999801635742,-1.2779999971389773
1621593172906,-0.5600000023841857,7.646999835968018,-6.684000015258789,0.1180000007152557,-9.694000244140623,-1.2710000276565552
1621593172916,-0.9800000190734864,7.171999931335449,-6.4120001792907715,0.0780000016093254,-9.732999801635742,-1.2779999971389773
1621593172926,-0.9100000262260436,6.576000213623047,-6.658999919891357,0.0780000016093254,-9.708000183105469,-1.194000005722046
1621593172936,-0.9100000262260436,6.142000198364258,-7.019999980926514,0.0780000016093254,-9.694000244140623,-1.2710000276565552
1621593172946,-1.399999976158142,5.566999912261963,-6.979000091552734,0.0780000016093254,-9.687000274658203,-1.309999942779541
1621593172956,-1.399999976158142,5.6479997634887695,-7.035999774932861,0.0390000008046627,-9.732999801635742,-1.2779999971389773
1621593172966,-1.6100000143051147,5.741000175476074,-7.1620001792907715,-0.0390000008046627,-9.694000244140623,-1.2710000276565552
1621593172976,-2.0299999713897705,6.122000217437744,-7.308000087738037,-0.1180000007152557,-9.72599983215332,-1.3170000314712524
1621593172986,-2.450000047683716,7.861999988555909,-7.499000072479248,-0.1570000052452087,-9.673999786376951,-1.3869999647140503
1621593172996,-2.1700000762939453,10.196999549865724,-7.441999912261963,-0.2349999994039535,-9.64900016784668,-1.3029999732971191
1621593173006,-1.9600000381469729,11.60849952697754,-6.980000019073486,-0.3529999852180481,-9.687000274658203,-1.309999942779541
1621593173016,-1.75,13.020000457763672,-6.51800012588501,-0.4709999859333038,-9.694000244140623,-1.2710000276565552
1621593173026,-1.3300000429153442,16.29199981689453,-5.728000164031982,-0.7059999704360961,-9.694000244140623,-1.2710000276565552
1621593173036,-1.6100000143051147,20.423999786376953,-4.572999954223633,-0.981000006198883,-9.732999801635742,-1.2779999971389773
1621593173046,-1.190000057220459,26.66900062561035,-4.111000061035156,-1.2940000295639038,-9.81700038909912,-1.253000020980835
1621593173056,-1.6100000143051147,35.14400100708008,-3.3989999294281006,-1.6480000019073486,-9.970999717712402,-1.2799999713897705
