timestamp,gyro_x,gyro_y,gyro_z,acc_x,acc_y,acc_z
1622112101752,0.0,0.0,0.0,0.0,0.0,0.0
1622112101761,-3.1500000953674316,16.635000228881836,-16.542999267578125,1.8830000162124632,-9.829999923706056,0.1790000051259994
1622112101771,-2.380000114440918,12.656999588012695,-15.75100040435791,2.236000061035156,-9.869000434875488,0.1720000058412551
1622112101781,-1.6100000143051147,6.368000030517578,-13.946000099182127,2.5889999866485596,-9.869000434875488,0.1720000058412551
1622112101791,-1.190000057220459,-2.499000072479248,-10.817999839782717,2.9030001163482666,-9.746000289916992,0.1539999991655349
1622112101801,-1.5399999618530271,-12.98900032043457,-7.763000011444091,3.413000106811523,-9.531999588012695,0.0719999969005584
1622112101811,-1.8899999856948853,-24.13999938964844,-5.394000053405762,3.6089999675750737,-9.468999862670898,0.163000002503395
1622112101821,-2.450000047683716,-35.314998626708984,-4.09499979019165,3.687000036239624,-9.416999816894531,0.0920000001788139
1622112101831,-3.009999990463257,-47.25299835205078,-3.711999893188477,3.7660000324249263,-9.461999893188477,0.123999997973442
1622112101841,-3.1500000953674316,-59.279998779296875,-3.6289999485015874,3.7269999980926514,-9.468999862670898,0.163000002503395
1622112101851,-3.849999904632568,-70.5979995727539,-3.13700008392334,3.6480000019073486,-9.54599952697754,0.1490000039339065
1622112101861,-3.9200000762939458,-81.56700134277344,-3.009999990463257,3.5299999713897705,-9.637000083923342,0.2129999995231628
1622112101871,-3.009999990463257,-91.5699996948242,-2.711999893188477,3.372999906539917,-9.720999717712402,0.2380000054836273
1622112101881,-2.5199999809265137,-95.75700378417967,-2.3485000133514404,3.177000045776367,-9.836999893188477,0.2169999927282333
1622112101891,-2.0299999713897705,-99.94400024414062,-1.9850000143051147,3.0199999809265137,-9.913999557495115,0.2039999961853027
1622112101901,-0.6299999952316284,-107.5989990234375,-1.7000000476837158,2.8239998817443848,-9.92099952697754,0.2419999986886978
1622112101911,0.7699999809265136,-114.31900024414064,-1.8899999856948853,2.628000020980835,-9.998000144958496,0.2290000021457672
1622112101921,2.5899999141693115,-120.81099700927734,-1.7549999952316284,2.2750000953674316,-10.17099952697754,0.0790000036358833
1622112101931,4.550000190734863,-125.96900177001952,-1.5269999504089355,1.9609999656677248,-10.229999542236328,0.1879999935626983
1622112101941,5.880000114440918,-129.09100341796875,-1.1540000438690186,1.687000036239624,-10.25,0.3039999902248382
1622112101951,6.650000095367432,-129.6580047607422,-0.7559999823570251,1.4119999408721924,-10.211999893188477,0.3100000023841857
1622112101961,7.0,-127.97499847412108,0.1800000071525573,1.215999960899353,-10.095999717712402,0.3310000002384185
1622112101971,6.71999979019165,-125.11599731445312,2.1059999465942383,1.0590000152587893,-9.9350004196167,0.3199999928474426
1622112101981,5.670000076293945,-121.41799926757812,4.107999801635742,0.9409999847412108,-9.960000038146973,0.2349999994039535
1622112101991,4.690000057220459,-117.86499786376952,6.938000202178955,0.7450000047683715,-9.913999557495115,0.2039999961853027
1622112102001,4.130000114440918,-114.08599853515624,8.883999824523926,0.4709999859333038,-9.836999893188477,0.2169999927282333
1622112102011,2.940000057220459,-110.28199768066406,10.69200038909912,0.2349999994039535,-9.675999641418455,0.2060000002384185
1622112102021,1.8200000524520872,-105.14800262451172,11.810999870300291,0.0780000016093254,-9.54599952697754,0.1490000039339065
1622112102031,0.3499999940395355,-97.96299743652344,13.788000106811523,-0.1180000007152557,-9.416999816894531,0.0920000001788139
1622112102041,-1.399999976158142,-89.697998046875,14.890000343322754,-0.2750000059604644,-9.326000213623049,0.0289999991655349
1622112102051,-3.5,-81.08100128173828,15.201000213623049,-0.3529999852180481,-9.36400032043457,0.0219999998807907
1622112102061,-5.110000133514404,-72.53800201416016,14.718000411987305,-0.3140000104904174,-9.388999938964846,-0.061999998986721
1622112102071,-6.159999847412109,-64.35900115966797,13.885000228881836,-0.3140000104904174,-9.312000274658203,-0.0489999987185001
1622112102081,-6.090000152587891,-57.35200119018555,12.845999717712402,-0.2349999994039535,-9.234999656677246,-0.0350000001490116
1622112102091,-5.110000133514404,-51.47200012207031,11.75,-0.1570000052452087,-9.12600040435791,0.0240000002086162
1622112102101,-3.359999895095825,-46.323001861572266,9.95699977874756,-0.0780000016093254,-9.20300006866455,0.0099999997764825
1622112102111,-2.5199999809265137,-44.532501220703125,9.27750015258789,0.0,-9.241999626159668,0.0040000001899898
1622112102121,-1.6799999475479126,-42.742000579833984,8.597999572753906,0.0780000016093254,-9.319000244140623,-0.0099999997764825
1622112102131,0.2800000011920929,-39.92499923706055,6.322999954223633,0.0780000016093254,-9.4350004196167,-0.0299999993294477
1622112102141,1.8899999856948853,-37.54100036621094,3.687000036239624,0.0390000008046627,-9.628000259399414,-0.0649999976158142
1622112102151,3.430000066757202,-34.617000579833984,1.2170000076293943,0.0,-9.781999588012695,-0.0920000001788139
1622112102161,4.269999980926514,-31.49099922180176,-0.7900000214576721,0.0,-9.82800006866455,-0.0599999986588954
1622112102171,4.900000095367432,-27.43199920654297,-2.8469998836517334,0.0,-9.852999687194824,-0.1439999938011169
1622112102181,5.670000076293945,-24.13599967956543,-4.611000061035156,0.0,-9.97599983215332,-0.1260000020265579
1622112102191,6.230000019073486,-20.80699920654297,-6.1570000648498535,0.0390000008046627,-10.04599952697754,-0.1780000030994415
1622112102201,6.159999847412109,-17.356000900268555,-7.183000087738037,0.0780000016093254,-10.078000068664553,-0.2240000069141387
1622112102211,4.96999979019165,-14.656000137329102,-7.986000061035157,0.1959999948740005,-10.17300033569336,-0.3600000143051147
1622112102221,3.7100000381469727,-11.663000106811523,-8.027000427246094,0.2750000059604644,-10.17300033569336,-0.3600000143051147
1622112102231,2.0999999046325684,-9.33199977874756,-8.753000259399414,0.2750000059604644,-10.064000129699709,-0.3009999990463256
1622112102241,-0.209999993443489,-6.711999893188477,-9.5,0.3919999897480011,-10.038999557495115,-0.2169999927282333
1622112102251,-1.5399999618530271,-5.439000129699707,-10.270999908447266,0.3919999897480011,-9.904999732971191,-0.0740000009536743
1622112102261,-2.450000047683716,-4.275000095367432,-10.42099952697754,0.3919999897480011,-9.711999893188477,-0.0399999991059303
1622112102271,-1.8899999856948853,-2.944999933242798,-11.109999656677246,0.4309999942779541,-9.744000434875488,-0.0850000008940696
1622112102281,-1.6100000143051147,-0.9419999718666076,-11.184000015258787,0.3919999897480011,-9.744000434875488,-0.0850000008940696
1622112102291,-1.0499999523162842,1.0449999570846558,-10.76200008392334,0.4709999859333038,-9.711999893188477,-0.0399999991059303
1622112102301,-0.4199999868869781,2.812999963760376,-10.30799961090088,0.5099999904632568,-9.67300033569336,-0.032999999821186
1622112102311,0.1400000005960464,4.166999816894531,-9.927000045776367,0.5490000247955322,-9.67300033569336,-0.032999999821186
1622112102321,0.4199999868869781,5.335000038146973,-9.295000076293944,0.5879999995231628,-9.67300033569336,-0.032999999821186
1622112102331,0.4199999868869781,6.072999954223633,-8.845000267028809,0.7059999704360961,-9.711999893188477,-0.0399999991059303
1622112102341,0.4199999868869781,6.810999870300293,-8.395000457763672,0.7450000047683715,-9.711999893188477,-0.0399999991059303
1622112102351,-0.4900000095367431,8.10099983215332,-7.243000030517577,0.7850000262260437,-9.744000434875488,-0.0850000008940696
1622112102361,-0.9800000190734864,8.550999641418457,-6.169000148773193,0.8240000009536743,-9.737000465393066,-0.123999997973442
1622112102371,-2.0299999713897705,8.944999694824219,-5.175000190734863,0.8629999756813049,-9.75699996948242,-0.0080000003799796
1622112102381,-3.2899999618530273,9.387000083923342,-4.458000183105469,0.9020000100135804,-9.737000465393066,-0.123999997973442
1622112102391,-4.480000019073486,9.730999946594238,-4.396999835968018,0.8629999756813049,-9.729999542236328,-0.1620000004768371
1622112102401,-4.96999979019165,9.94200038909912,-4.785999774932861,0.8629999756813049,-9.607000350952148,-0.1800000071525573
1622112102411,-4.760000228881836,10.310999870300291,-4.86299991607666,0.8240000009536743,-9.484999656677246,-0.1990000009536743
1622112102421,-4.829999923706055,10.189000129699709,-5.381999969482422,0.7850000262260437,-9.517000198364256,-0.2440000027418136
1622112102431,-4.760000228881836,10.725000381469728,-5.999000072479248,0.7450000047683715,-9.55500030517578,-0.2509999871253967
1622112102441,-3.990000009536743,11.142000198364258,-6.3520002365112305,0.7059999704360961,-9.54800033569336,-0.2899999916553497
1622112102451,-3.569999933242798,11.465999603271484,-7.7870001792907715,0.6669999957084655,-9.572999954223633,-0.3740000128746032
1622112102461,-3.009999990463257,12.60200023651123,-8.581999778747559,0.6280000209808348,-9.689000129699709,-0.3939999938011169
1622112102471,-2.5199999809265137,13.562999725341797,-9.19499969482422,0.6280000209808348,-9.829999923706056,-0.4990000128746032
1622112102481,-2.0999999046325684,14.986000061035156,-10.010000228881836,0.6280000209808348,-9.984999656677246,-0.5260000228881835
1622112102491,-2.0299999713897705,15.36299991607666,-10.937999725341797,0.6280000209808348,-10.107000350952148,-0.5080000162124633
1622112102501,-2.1700000762939453,16.003000259399414,-11.75,0.6280000209808348,-10.156999588012695,-0.6759999990463256
1622112102511,-2.799999952316284,17.402000427246094,-12.427000045776367,0.5879999995231628,-10.182000160217283,-0.7599999904632568
1622112102521,-3.430000066757202,18.73200035095215,-13.116000175476074,0.5490000247955322,-10.06700038909912,-0.7390000224113464
1622112102531,-3.430000066757202,19.29349899291992,-13.479000091552734,0.5490000247955322,-9.95699977874756,-0.6800000071525573
1622112102541,-3.430000066757202,19.854999542236328,-13.842000007629396,0.5490000247955322,-9.79599952697754,-0.6919999718666076
1622112102551,-3.569999933242798,20.79199981689453,-13.109000205993652,0.5879999995231628,-9.68000030517578,-0.6710000038146972
1622112102561,-3.0799999237060547,21.82200050354004,-12.50100040435791,0.5879999995231628,-9.609999656677246,-0.6190000176429749
1622112102571,-2.5199999809265137,21.863000869750977,-11.925000190734863,0.5879999995231628,-9.50100040435791,-0.5600000023841857
1622112102581,-1.1200000047683716,22.09000015258789,-11.600000381469728,0.6669999957084655,-9.352999687194824,-0.4939999878406524
1622112102591,0.4900000095367431,21.67200088500977,-11.248000144958496,0.7059999704360961,-9.321000099182127,-0.4490000009536743
1622112102601,1.6100000143051147,20.954999923706055,-10.80500030517578,0.7850000262260437,-9.366999626159668,-0.4169999957084655
1622112102611,2.380000114440918,19.847999572753903,-10.574000358581545,0.8240000009536743,-9.418999671936035,-0.3459999859333038
1622112102621,3.009999990463257,18.298999786376953,-9.85200023651123,0.8629999756813049,-9.46399974822998,-0.3149999976158142
1622112102631,3.569999933242798,16.69300079345703,-9.211000442504885,0.8629999756813049,-9.572999954223633,-0.3740000128746032
1622112102641,3.7799999713897705,15.517000198364258,-8.991999626159668,0.8240000009536743,-9.593999862670898,-0.2579999864101409
1622112102651,3.990000009536743,14.30500030517578,-8.565999984741211,0.7850000262260437,-9.663999557495115,-0.3100000023841857
1622112102661,3.2200000286102295,13.43299961090088,-8.862000465393066,0.7450000047683715,-9.6850004196167,-0.1940000057220459
1622112102671,2.450000047683716,13.246000289916992,-8.611000061035156,0.6280000209808348,-9.729999542236328,-0.1620000004768371
1622112102681,1.3300000429153442,12.934000015258787,-8.45199966430664,0.5879999995231628,-9.776000022888184,-0.1299999952316284
1622112102691,0.209999993443489,13.45699977874756,-7.791999816894531,0.5099999904632568,-9.776000022888184,-0.1299999952316284
1622112102701,-0.9100000262260436,14.017000198364258,-7.336999893188477,0.5099999904632568,-9.814000129699709,-0.1369999945163726
1622112102711,-1.8899999856948853,14.42300033569336,-7.620999813079834,0.4709999859333038,-9.814000129699709,-0.1369999945163726
1622112102721,-2.5199999809265137,15.010000228881836,-7.730999946594238,0.4309999942779541,-9.814000129699709,-0.1369999945163726
1622112102731,-2.940000057220459,15.22100067138672,-7.515999794006347,0.4309999942779541,-9.89099979400635,-0.1509999930858612
1622112102741,-3.359999895095825,15.432000160217283,-7.301000118255616,0.5099999904632568,-9.89099979400635,-0.1509999930858612
1622112102751,-3.0799999237060547,16.19099998474121,-7.166999816894531,0.5099999904632568,-9.807000160217283,-0.1759999990463256
1622112102761,-3.2200000286102295,16.364999771118164,-7.349999904632568,0.5490000247955322,-9.76900005340576,-0.1689999997615814
1622112102771,-3.5,16.06100082397461,-6.835000038146973,0.5490000247955322,-9.814000129699709,-0.1369999945163726
1622112102781,-3.5,15.737000465393066,-6.607999801635742,0.5879999995231628,-9.76900005340576,-0.1689999997615814
1622112102791,-3.569999933242798,15.74899959564209,-6.677000045776367,0.5879999995231628,-9.748000144958496,-0.2849999964237213
1622112102801,-3.1500000953674316,15.906999588012695,-6.363999843597412,0.5099999904632568,-9.710000038146973,-0.277999997138977
1622112102811,-2.5199999809265137,15.890999794006348,-5.869999885559082,0.5490000247955322,-9.6850004196167,-0.1940000057220459
1622112102821,-1.8200000524520872,15.862000465393066,-5.306000232696533,0.5490000247955322,-9.61400032043457,-0.1420000046491622
1622112102831,-1.0499999523162842,15.895000457763672,-5.086999893188477,0.5490000247955322,-9.58899974822998,-0.0579999983310699
1622112102841,-0.4199999868869781,15.611000061035156,-4.283999919891357,0.5490000247955322,-9.557000160217283,-0.0120000001043081
1622112102851,0.2800000011920929,15.404000282287598,-4.321000099182129,0.5099999904632568,-9.602999687194824,0.0199999995529651
1622112102861,0.6299999952316284,15.189000129699709,-4.714000225067139,0.4709999859333038,-9.609999656677246,0.0579999983310699
1622112102871,1.0499999523162842,15.13700008392334,-5.2210001945495605,0.4309999942779541,-9.571000099182127,0.0649999976158142
1622112102881,1.5399999618530271,15.562000274658203,-5.2170000076293945,0.4309999942779541,-9.654999732971191,0.0900000035762786
1622112102891,1.75,15.89900016784668,-5.513000011444092,0.4709999859333038,-9.661999702453612,0.1289999932050705
1622112102901,2.0299999713897705,16.280000686645508,-5.658999919891357,0.4309999942779541,-9.654999732971191,0.0900000035762786
1622112102911,2.240000009536743,15.902999877929688,-5.939000129699707,0.4309999942779541,-9.661999702453612,0.1289999932050705
1622112102921,2.0299999713897705,16.465999603271484,-5.909999847412109,0.4309999942779541,-9.701000213623049,0.1220000013709068
1622112102931,1.7149999141693115,16.719499588012695,-5.93649959564209,0.3529999852180481,-9.72599983215332,0.0379999987781047
1622112102941,1.399999976158142,16.972999572753906,-5.9629998207092285,0.3140000104904174,-9.770999908447264,0.0700000002980232
1622112102951,0.9800000190734864,17.13599967956543,-6.077000141143799,0.3140000104904174,-9.815999984741213,0.101000003516674
1622112102961,0.6299999952316284,17.687000274658203,-5.980000019073486,0.3140000104904174,-9.770999908447264,0.0700000002980232
1622112102971,0.209999993443489,18.486000061035156,-6.478000164031982,0.3529999852180481,-9.732000350952148,0.0759999975562095
1622112102981,0.0,18.98500061035156,-6.888000011444092,0.3529999852180481,-9.701000213623049,0.1220000013709068
1622112102991,0.4900000095367431,19.52400016784668,-6.7220001220703125,0.3529999852180481,-9.701000213623049,0.1220000013709068
1622112103001,0.5600000023841857,20.1200008392334,-6.474999904632568,0.3919999897480011,-9.732000350952148,0.0759999975562095
1622112103011,0.4900000095367431,20.57799911499023,-6.251999855041504,0.3919999897480011,-9.777999877929688,0.1080000028014183
1622112103021,0.4199999868869781,20.83799934387207,-5.708000183105469,0.3919999897480011,-9.847999572753906,0.0560000017285346
1622112103031,-0.0700000002980232,21.15399932861328,-5.084000110626221,0.3919999897480011,-9.887000083923342,0.0489999987185001
1622112103041,-0.4900000095367431,21.677000045776367,-4.422999858856201,0.4309999942779541,-9.918999671936035,0.0040000001899898
1622112103051,-1.0499999523162842,21.84000015258789,-4.5370001792907715,0.3919999897480011,-9.918999671936035,0.0040000001899898
1622112103061,-2.1700000762939453,22.167999267578125,-3.9809999465942383,0.4309999942779541,-9.904999732971191,-0.0740000009536743
1622112103071,-3.009999990463257,21.770999908447266,-3.3399999141693115,0.4309999942779541,-9.873000144958496,-0.0280000008642673
1622112103081,-3.5,21.652999877929688,-3.0769999027252197,0.4709999859333038,-9.814000129699709,-0.1369999945163726
1622112103091,-3.6400001049041744,21.361000061035156,-2.63100004196167,0.4709999859333038,-9.776000022888184,-0.1299999952316284
1622112103101,-3.7799999713897705,20.599000930786133,-2.3389999866485596,0.4709999859333038,-9.781999588012695,-0.0920000001788139
1622112103111,-3.7100000381469727,20.16900062561035,-1.9170000553131104,0.4309999942779541,-9.781999588012695,-0.0920000001788139
1622112103121,-3.2899999618530273,19.69499969482422,-1.6449999809265137,0.4309999942779541,-9.697999954223633,-0.1169999986886978
1622112103131,-2.6600000858306885,18.839000701904297,-1.2269999980926514,0.3919999897480011,-9.737000465393066,-0.123999997973442
1622112103141,-2.2750000953674316,18.24700164794922,-1.2960000038146973,0.3919999897480011,-9.69200038909912,-0.1550000011920929
1622112103151,-1.8899999856948853,17.655000686645508,-1.3650000095367432,0.3140000104904174,-9.645999908447264,-0.1870000064373016
1622112103161,-1.399999976158142,16.57699966430664,-1.6970000267028809,0.3140000104904174,-9.722999572753906,-0.2010000050067901
1622112103171,-0.9100000262260436,15.440999984741213,-2.111000061035156,0.2750000059604644,-9.717000007629396,-0.2399999946355819
1622112103181,-0.7699999809265136,14.45199966430664,-2.1429998874664307,0.2750000059604644,-9.717000007629396,-0.2399999946355819
1622112103191,-0.0700000002980232,13.66100025177002,-2.496000051498413,0.2349999994039535,-9.638999938964846,-0.2259999960660934
1622112103201,0.699999988079071,12.319000244140623,-2.946000099182129,0.1180000007152557,-9.60099983215332,-0.2189999967813491
1622112103211,1.8899999856948853,11.491000175476074,-3.0920000076293945,0.0390000008046627,-9.55500030517578,-0.2509999871253967
1622112103221,2.6600000858306885,10.814000129699709,-3.2820000648498535,0.0,-9.562000274658203,-0.2119999974966049
1622112103231,3.6400001049041744,10.63599967956543,-3.8819999694824214,-0.0780000016093254,-9.61400032043457,-0.1420000046491622
1622112103241,4.690000057220459,11.38599967956543,-4.105000019073486,-0.1570000052452087,-9.607000350952148,-0.1800000071525573
1622112103251,5.809999942779541,12.217000007629396,-4.385000228881836,-0.1959999948740005,-9.645999908447264,-0.1870000064373016
1622112103261,6.860000133514404,13.538999557495115,-4.2230000495910645,-0.2750000059604644,-9.638999938964846,-0.2259999960660934
1622112103271,7.349999904632568,15.177000045776367,-4.644999980926514,-0.3140000104904174,-9.63199996948242,-0.2649999856948852
1622112103280,7.699999809265136,17.240999221801758,-5.063000202178955,-0.3140000104904174,-9.63199996948242,-0.2649999856948852
1622112103290,7.559999942779541,19.415000915527344,-4.89300012588501,-0.3140000104904174,-9.663999557495115,-0.3100000023841857
1622112103301,7.349999904632568,21.40999984741211,-5.322999954223633,-0.2750000059604644,-9.741999626159668,-0.3240000009536743
1622112103311,6.929999828338623,22.79599952697754,-5.932000160217285,-0.1959999948740005,-9.786999702453612,-0.2919999957084655
1622112103320,6.090000152587891,23.81800079345703,-6.888999938964844,-0.0780000016093254,-9.793999671936035,-0.2529999911785125
1622112103330,5.039999961853027,24.426000595092773,-7.919000148773193,0.0,-9.755000114440918,-0.2460000067949295
1622112103340,4.409999847412109,24.417999267578125,-9.484000205993652,0.0780000016093254,-9.76900005340576,-0.1689999997615814
1622112103350,3.815000057220459,24.379499435424805,-10.272500038146973,0.1570000052452087,-9.69200038909912,-0.1550000011920929
1622112103360,3.2200000286102295,24.340999603271484,-11.060999870300291,0.2349999994039535,-9.61400032043457,-0.1420000046491622
1622112103370,2.869999885559082,24.267000198364254,-13.0649995803833,0.3529999852180481,-9.550999641418455,-0.0509999990463256
1622112103380,3.2200000286102295,23.64699935913086,-14.381999969482422,0.3919999897480011,-9.557000160217283,-0.0120000001043081
1622112103390,3.6400001049041744,23.57799911499023,-15.602999687194824,0.4709999859333038,-9.512000083923342,-0.0439999997615814
1622112103400,4.619999885559082,23.82900047302246,-16.625,0.5490000247955322,-9.526000022888184,0.032999999821186
1622112103410,5.53000020980835,23.88599967956543,-16.54400062561035,0.6280000209808348,-9.57800006866455,0.1040000021457672
1622112103420,6.650000095367432,23.788000106811523,-15.991999626159668,0.7059999704360961,-9.616999626159668,0.0970000028610229
1622112103430,7.8400001525878915,23.679000854492188,-14.163000106811523,0.7450000047683715,-9.637000083923342,0.2129999995231628
1622112103440,8.960000038146973,23.11199951171875,-12.557000160217283,0.7850000262260437,-9.689000129699709,0.2829999923706054
1622112103450,9.869999885559082,22.731000900268555,-11.203000068664553,0.6669999957084655,-9.734999656677246,0.3149999976158142
1622112103460,10.220000267028809,22.163000106811523,-9.597000122070312,0.5879999995231628,-9.786999702453612,0.3849999904632568
1622112103470,10.149999618530272,22.114999771118164,-8.11299991607666,0.5490000247955322,-9.83199977874756,0.4169999957084655
1622112103480,10.56999969482422,22.288999557495117,-7.086999893188477,0.5099999904632568,-9.878000259399414,0.4490000009536743
1622112103490,10.640000343322754,22.36199951171875,-6.291999816894531,0.4309999942779541,-9.916000366210936,0.44200000166893
1622112103500,10.220000267028809,22.367000579833984,-5.510000228881836,0.4309999942779541,-9.994000434875488,0.4289999902248382
1622112103510,9.3100004196167,22.21299934387207,-5.039000034332275,0.4309999942779541,-10.031999588012695,0.4219999909400939
1622112103520,8.119999885559082,21.552000045776367,-4.515999794006348,0.4709999859333038,-10.078000068664553,0.4539999961853027
1622112103530,7.210000038146973,20.493000030517575,-4.560999870300293,0.5490000247955322,-10.013999938964844,0.5440000295639038
1622112103540,6.579999923706055,19.281000137329105,-5.3429999351501465,0.5490000247955322,-9.968999862670898,0.5130000114440918
1622112103550,5.880000114440918,17.698999404907227,-6.047999858856201,0.5879999995231628,-9.961999893188477,0.4740000069141387
1622112103560,5.599999904632568,16.121999740600586,-7.179999828338623,0.5879999995231628,-9.885000228881836,0.4880000054836273
1622112103570,5.739999771118164,15.115999221801758,-7.321499824523927,0.5490000247955322,-9.807000160217283,0.5009999871253967
1622112103580,5.880000114440918,14.109999656677246,-7.4629998207092285,0.5490000247955322,-9.76900005340576,0.5080000162124633
1622112103590,6.019999980926514,12.406999588012695,-7.479000091552734,0.5490000247955322,-9.729999542236328,0.5149999856948853
1622112103600,6.579999923706055,10.914999961853027,-7.883999824523927,0.4709999859333038,-9.6850004196167,0.4830000102519989
1622112103610,6.929999828338623,9.531999588012695,-7.702000141143799,0.3919999897480011,-9.645999908447264,0.4900000095367431
1622112103620,6.929999828338623,8.368000030517578,-7.552000045776368,0.3919999897480011,-9.762000083923342,0.4690000116825103
1622112103630,6.440000057220459,7.804999828338623,-7.579999923706055,0.3140000104904174,-9.715999603271484,0.4379999935626983
1622112103640,5.739999771118164,7.440000057220459,-7.92899990081787,0.2349999994039535,-9.762000083923342,0.4690000116825103
1622112103650,4.900000095367432,7.959000110626221,-8.050000190734863,0.2349999994039535,-9.755000114440918,0.4309999942779541
1622112103660,3.9200000762939458,8.494000434875488,-8.666999816894531,0.2349999994039535,-9.793999671936035,0.4239999949932098
1622112103670,2.6600000858306885,8.684000015258789,-9.343999862670898,0.2750000059604644,-9.779999732971191,0.3470000028610229
1622112103680,1.6799999475479126,8.744999885559082,-9.689000129699709,0.3140000104904174,-9.819000244140623,0.3400000035762786
1622112103690,0.9800000190734864,8.902999877929688,-9.37600040435791,0.3529999852180481,-9.819000244140623,0.3400000035762786
1622112103700,0.3499999940395355,8.598999977111816,-8.861000061035156,0.3140000104904174,-9.80500030517578,0.2630000114440918
1622112103710,0.0,8.517999649047852,-8.805000305175781,0.3529999852180481,-9.80500030517578,0.2630000114440918
1622112103720,-0.3499999940395355,8.194000244140625,-8.57699966430664,0.3529999852180481,-9.836999893188477,0.2169999927282333
1622112103730,-0.4900000095367431,7.776000022888184,-8.225000381469727,0.3140000104904174,-9.79800033569336,0.2240000069141387
1622112103740,-0.2800000011920929,7.414999961853027,-7.790999889373779,0.3140000104904174,-9.76599979400635,0.2689999938011169
1622112103750,0.5600000023841857,6.863999843597412,-7.888000011444091,0.3140000104904174,-9.727999687194824,0.2759999930858612
1622112103760,1.1200000047683716,6.702000141143799,-7.77400016784668,0.2750000059604644,-9.696000099182127,0.3219999969005584
1622112103770,2.0299999713897705,7.309999942779541,-8.803999900817871,0.1959999948740005,-9.619000434875488,0.3350000083446502
1622112103780,2.625,7.800499916076661,-9.570499420166016,0.1959999948740005,-9.54800033569336,0.3880000114440918
1622112103790,3.2200000286102295,8.291000366210938,-10.336999893188477,0.1959999948740005,-9.63199996948242,0.4129999876022338
1622112103800,4.550000190734863,9.145999908447264,-11.963000297546388,0.1959999948740005,-9.710000038146973,0.3989999890327453
1622112103810,5.25,10.131999969482422,-12.71399974822998,0.2349999994039535,-9.748000144958496,0.3919999897480011
1622112103820,5.739999771118164,10.824999809265137,-13.017999649047852,0.3140000104904174,-9.857000350952148,0.3330000042915344
1622112103830,5.460000038146973,11.125,-13.107000350952148,0.3140000104904174,-9.857000350952148,0.3330000042915344
1622112103840,4.900000095367432,10.951000213623049,-12.925000190734863,0.3529999852180481,-9.928000450134276,0.2809999883174896
1622112103850,3.9200000762939458,10.902000427246094,-12.64900016784668,0.3919999897480011,-9.9350004196167,0.3199999928474426
1622112103860,2.869999885559082,11.185999870300291,-12.244000434875488,0.3529999852180481,-9.902999877929688,0.3650000095367431
1622112103870,1.8899999856948853,11.692999839782717,-12.29599952697754,0.3919999897480011,-9.979999542236328,0.3510000109672546
1622112103880,0.6299999952316284,12.630000114440918,-12.770999908447266,0.3529999852180481,-9.965999603271484,0.2739999890327453
1622112103890,-0.9800000190734864,13.74899959564209,-13.071000099182127,0.3529999852180481,-9.965999603271484,0.2739999890327453
1622112103900,-2.5199999809265137,14.458000183105469,-12.661999702453612,0.3919999897480011,-9.92099952697754,0.2419999986886978
1622112103910,-3.849999904632568,14.916999816894531,-12.439000129699709,0.4309999942779541,-9.92099952697754,0.2419999986886978
1622112103920,-4.269999980926514,15.107000350952148,-11.907999992370604,0.4709999859333038,-9.87600040435791,0.209999993443489
1622112103930,-4.340000152587891,15.225000381469728,-10.963000297546388,0.4309999942779541,-9.791000366210936,0.1850000023841857
1622112103940,-4.130000114440918,15.27400016784668,-10.029999732971191,0.4709999859333038,-9.760000228881836,0.231000006198883
1622112103950,-3.7100000381469727,15.104000091552734,-9.0649995803833,0.3529999852180481,-9.71399974822998,0.1990000009536743
1622112103960,-2.309999942779541,15.302000045776367,-8.177000045776367,0.3140000104904174,-9.753000259399414,0.19200000166893
1622112103970,-0.8399999737739563,15.597999572753906,-7.8400001525878915,0.2750000059604644,-9.791000366210936,0.1850000023841857
1622112103980,0.3499999940395355,15.732000350952148,-7.389999866485595,0.2349999994039535,-9.87600040435791,0.209999993443489
1622112103990,1.6799999475479126,16.368999481201172,-7.776000022888184,0.1959999948740005,-9.88199996948242,0.248999997973442
1622112104000,1.924999952316284,16.80099868774414,-7.806499958038329,0.2349999994039535,-9.87600040435791,0.209999993443489
1622112104010,2.1700000762939453,17.232999801635742,-7.836999893188477,0.2349999994039535,-9.92099952697754,0.2419999986886978
1622112104020,2.380000114440918,17.945999145507812,-7.853000164031982,0.2349999994039535,-9.92099952697754,0.2419999986886978
1622112104030,2.1700000762939453,18.590999603271484,-7.881000041961671,0.2349999994039535,-9.95300006866455,0.1969999969005584
1622112104040,1.5399999618530271,18.704999923706055,-7.718999862670899,0.2750000059604644,-9.946000099182127,0.1580000072717666
1622112104050,1.2599999904632568,18.73699951171875,-7.5,0.3140000104904174,-9.95300006866455,0.1969999969005584
1622112104060,0.4199999868869781,18.777999877929688,-6.923999786376953,0.3140000104904174,-10.015999794006348,0.1059999987483024
1622112104070,0.2800000011920929,18.916000366210938,-6.900000095367432,0.3140000104904174,-10.010000228881836,0.06700000166893
1622112104080,0.1400000005960464,18.93600082397461,-6.611999988555908,0.3140000104904174,-9.901000022888184,0.1260000020265579
1622112104090,-0.6299999952316284,18.964000701904297,-5.9679999351501465,0.2750000059604644,-9.911999702453612,-0.0350000001490116
1622112104100,-1.2599999904632568,19.062000274658203,-5.310999870300293,0.3529999852180481,-9.96399974822998,0.0350000001490116
1622112104110,-1.9600000381469729,18.31999969482422,-4.730999946594238,0.3140000104904174,-9.970999717712402,0.0740000009536743
1622112104120,-2.5899999141693115,17.64699935913086,-4.138999938964844,0.2750000059604644,-9.982000350952148,-0.0869999974966049
1622112104130,-2.799999952316284,17.472000122070312,-3.9560000896453857,0.1959999948740005,-9.987000465393066,-0.2870000004768371
1622112104140,-2.450000047683716,17.047000885009766,-3.9600000381469727,0.2349999994039535,-9.994000434875488,-0.248999997973442
1622112104150,-2.240000009536743,16.8799991607666,-4.629000186920166,0.1570000052452087,-9.880000114440918,0.0099999997764825
1622112104160,-1.4700000286102295,17.655000686645508,-4.989999771118164,0.1570000052452087,-9.70699977874756,0.1599999964237213
1622112104170,-0.5600000023841857,17.958999633789062,-5.505000114440918,0.1180000007152557,-9.48900032043457,0.2790000140666961
1622112104180,0.5600000023841857,18.368000030517575,-6.215000152587891,0.0780000016093254,-9.437000274658203,0.2080000042915344
1622112104190,1.9600000381469729,19.06999969482422,-6.1620001792907715,0.1180000007152557,-9.416999816894531,0.0920000001788139
1622112104200,3.1500000953674316,19.79199981689453,-5.822000026702881,0.0780000016093254,-9.44200038909912,0.0080000003799796
1622112104210,3.5350000858306885,20.01900100708008,-5.497499942779541,0.1180000007152557,-9.4350004196167,-0.0299999993294477
1622112104220,3.9200000762939458,20.246000289916992,-5.172999858856201,0.1570000052452087,-9.4350004196167,-0.0299999993294477
1622112104230,4.340000152587891,20.339000701904297,-4.090000152587891,0.1180000007152557,-9.460000038146973,-0.1150000020861625
1622112104240,4.690000057220459,20.575000762939453,-3.4089999198913574,0.1570000052452087,-9.460000038146973,-0.1150000020861625
1622112104250,5.039999961853027,20.732999801635746,-3.0969998836517334,0.1570000052452087,-9.413999557495115,-0.1459999978542327
1622112104260,5.670000076293945,20.67200088500977,-2.752000093460083,0.1570000052452087,-9.37600040435791,-0.1400000005960464
1622112104270,6.159999847412109,20.729000091552734,-2.6710000038146973,0.1180000007152557,-9.460000038146973,-0.1150000020861625
1622112104280,6.860000133514404,20.562999725341797,-2.131999969482422,0.1180000007152557,-9.498000144958496,-0.1209999993443489
1622112104290,7.9099998474121085,20.74099922180176,-1.531999945640564,0.0780000016093254,-9.467000007629396,-0.0759999975562095
1622112104300,8.680000305175781,19.85300064086914,-1.3329999446868896,0.1180000007152557,-9.491999626159668,-0.1599999964237213
1622112104310,9.65999984741211,19.333999633789062,-1.2109999656677246,0.1180000007152557,-9.487000465393066,0.0399999991059303
1622112104320,10.920000076293944,18.69700050354004,-0.8259999752044677,0.1180000007152557,-9.468999862670898,0.163000002503395
1622112104330,12.039999961853027,17.56999969482422,-0.8820000290870667,0.1570000052452087,-9.538999557495115,0.1099999994039535
1622112104340,12.600000381469728,16.365999221801758,-1.3079999685287476,0.1180000007152557,-9.609999656677246,0.0579999983310699
1622112104350,13.090000152587892,15.282999992370604,-1.2150000333786013,0.0780000016093254,-9.619000434875488,0.3350000083446502
1622112104360,13.159999847412108,14.071000099182127,-0.7889999747276306,0.0780000016093254,-9.484999656677246,0.4790000021457672
1622112104370,13.649999618530272,13.300000190734863,-0.8529999852180481,0.0390000008046627,-9.439000129699709,0.4469999969005584
1622112104380,14.06999969482422,12.656000137329102,-0.824999988079071,0.0,-9.541000366210936,0.3490000069141387
1622112104390,14.630000114440918,12.046999931335447,-1.003000020980835,0.0,-9.593999862670898,0.4189999997615814
1622112104400,15.1899995803833,11.54800033569336,-1.8020000457763672,0.0,-9.447999954223633,0.7239999771118164
1622112104410,15.1899995803833,11.503999710083008,-1.9520000219345093,-0.0390000008046627,-9.440999984741213,0.6850000023841857
1622112104420,15.539999961853027,11.324999809265137,-2.552000045776367,-0.0390000008046627,-9.512000083923342,0.6330000162124633
1622112104430,15.68000030517578,11.246000289916992,-2.7080001831054688,-0.0780000016093254,-9.527999877929688,0.9490000009536744
1622112104440,15.81999969482422,11.166999816894531,-2.864000082015991,-0.0780000016093254,-9.527999877929688,0.9490000009536744
1622112104450,15.68000030517578,10.97599983215332,-3.3959999084472656,-0.0780000016093254,-9.612000465393066,0.9739999771118164
1622112104460,15.1899995803833,10.708999633789064,-3.086999893188477,-0.0780000016093254,-9.619000434875488,1.0130000114440918
1622112104470,14.909999847412108,10.583000183105469,-3.180999994277954,-0.0780000016093254,-9.710000038146973,1.0759999752044678
1622112104480,14.489999771118164,10.513999938964844,-3.193000078201294,-0.1180000007152557,-9.812000274658203,0.977999985218048
1622112104490,14.279999732971191,10.616000175476074,-2.961999893188477,-0.0780000016093254,-9.819000244140623,1.0169999599456787
1622112104500,13.579999923706056,10.960000038146973,-2.9010000228881836,-0.0780000016093254,-9.824999809265137,1.055999994277954
1622112104510,13.510000228881836,11.020999908447266,-2.0369999408721924,-0.0390000008046627,-9.772999763488768,0.9850000143051147
1622112104520,13.859999656677246,11.236000061035156,-1.6440000534057615,-0.0780000016093254,-9.727999687194824,0.953000009059906
1622112104530,14.489999771118164,11.70699977874756,-1.4900000095367432,-0.0780000016093254,-9.612000465393066,0.9739999771118164
1622112104540,15.050000190734863,11.722999572753906,-0.7760000228881835,-0.0780000016093254,-9.720999717712402,0.915000021457672
1622112104550,15.609999656677246,11.326000213623049,-0.135000005364418,-0.0390000008046627,-9.888999938964846,0.9649999737739564
1622112104560,15.050000190734863,11.102999687194824,0.3230000138282775,0.0390000008046627,-10.01200008392334,0.9829999804496764
1622112104570,13.93000030517578,10.465999603271484,0.7080000042915344,0.0780000016093254,-10.25,0.981000006198883
1622112104580,11.6899995803833,9.838000297546388,1.4500000476837158,0.1180000007152557,-10.204999923706056,0.9490000009536744
1622112104590,9.800000190734863,9.331000328063965,1.503000020980835,0.1180000007152557,-10.204999923706056,0.9490000009536744
1622112104600,7.420000076293945,8.678000450134277,1.1749999523162842,0.1180000007152557,-10.121000289916992,0.9240000247955322
1622112104610,5.739999771118164,8.145999908447266,0.1570000052452087,0.1959999948740005,-9.979999542236328,1.0279999971389773
1622112104620,4.409999847412109,7.456999778747559,-1.1729999780654907,0.2349999994039535,-9.779999732971191,1.02400004863739
1622112104630,4.480000019073486,6.929999828338623,-2.615999937057495,0.3140000104904174,-9.663999557495115,1.0440000295639038
1622112104640,4.760000228881836,6.135000228881836,-3.752000093460083,0.3529999852180481,-9.579999923706056,1.0190000534057615
1622112104650,4.795000076293945,5.609499931335449,-4.199999809265137,0.4309999942779541,-9.53499984741211,0.9879999756813048
1622112104660,4.829999923706055,5.084000110626221,-4.6479997634887695,0.6280000209808348,-9.593999862670898,1.0970000028610227
1622112104670,4.900000095367432,4.013999938964844,-4.623000144958496,0.7059999704360961,-9.67099952697754,1.0829999446868896
1622112104680,4.96999979019165,2.2860000133514404,-4.500999927520752,0.8240000009536743,-9.638999938964846,1.128000020980835
1622112104690,5.599999904632568,0.0399999991059303,-4.257999897003174,0.9020000100135804,-9.562000274658203,1.1419999599456787
1622112104700,5.949999809265137,-2.486000061035156,-3.63700008392334,0.9409999847412108,-9.529999732971191,1.187000036239624
1622112104710,6.230000019073486,-4.861999988555908,-3.061000108718872,0.981000006198883,-9.505000114440918,1.2719999551773071
1622112104720,6.579999923706055,-7.709000110626221,-2.638999938964844,0.981000006198883,-9.472999572753906,1.3170000314712524
1622112104730,6.860000133514404,-10.41800022125244,-2.191999912261963,1.0199999809265137,-9.428000450134276,1.2849999666213987
1622112104740,6.860000133514404,-13.18299961090088,-1.8270000219345093,1.0199999809265137,-9.395999908447264,1.3309999704360962
1622112104750,6.789999961853027,-15.361000061035156,-1.5709999799728394,0.981000006198883,-9.440999984741213,1.3619999885559082
1622112104760,6.650000095367432,-17.672000885009766,-0.5569999814033508,0.9409999847412108,-9.479999542236328,1.3559999465942385
1622112104770,6.440000057220459,-19.864999771118164,0.1930000036954879,0.8629999756813049,-9.479999542236328,1.3559999465942385
1622112104780,5.809999942779541,-21.40999984741211,0.4900000095367431,0.7850000262260437,-9.454999923706056,1.440000057220459
1622112104790,6.300000190734863,-23.003999710083008,1.062000036239624,0.7450000047683715,-9.378000259399414,1.4529999494552612
1622112104800,6.650000095367432,-24.07799911499023,1.5119999647140503,0.6669999957084655,-9.262000083923342,1.4739999771118164
1622112104810,7.0,-25.01099967956543,1.5609999895095823,0.6669999957084655,-9.222999572753906,1.4809999465942385
1622112104820,8.119999885559082,-25.575000762939453,1.531999945640564,0.5879999995231628,-9.178000450134276,1.4490000009536743
1622112104830,9.520000457763674,-25.79800033569336,0.7820000052452087,0.5490000247955322,-9.152999877929688,1.5329999923706057
1622112104840,11.6899995803833,-26.082000732421875,0.3770000040531158,0.5099999904632568,-9.128000259399414,1.6169999837875366
1622112104850,13.369999885559082,-26.4950008392334,0.3039999902248382,0.5099999904632568,-9.218999862670898,1.680999994277954
1622112104860,14.840000152587892,-26.288000106811523,0.3400000035762786,0.4709999859333038,-9.315999984741213,1.7829999923706057
1622112104870,16.520000457763672,-26.183000564575195,0.1459999978542327,0.4309999942779541,-9.369000434875488,1.8530000448226929
1622112104879,17.220001220703125,-26.34950065612793,0.0810000002384185,0.4309999942779541,-9.529999732971191,1.8650000095367432
1622112104889,17.920000076293945,-26.516000747680664,0.0160000007599592,0.3529999852180481,-9.574999809265137,1.8960000276565552
1622112104900,18.479999542236328,-26.097999572753903,-0.3370000123977661,0.3140000104904174,-9.659000396728516,1.9210000038146973
1622112104910,18.899999618530273,-25.73699951171875,-0.7710000276565551,0.3140000104904174,-9.628000259399414,1.9670000076293943
1622112104919,19.600000381469727,-25.18199920654297,-1.0989999771118164,0.3529999852180481,-9.440999984741213,2.0399999618530273
1622112104929,20.15999984741211,-24.350000381469727,-1.3789999485015867,0.3529999852180481,-9.416000366210936,2.124000072479248
1622112104939,21.0,-23.600000381469727,-1.6019999980926514,0.3529999852180481,-9.42300033569336,2.1619999408721924
1622112104949,21.770000457763672,-22.46500015258789,-2.3970000743865967,0.3529999852180481,-9.50699996948242,2.187000036239624
1622112104959,22.75,-21.71500015258789,-2.621000051498413,0.3529999852180481,-9.559000015258787,2.2579998970031734
1622112104969,23.729999542236328,-20.88400077819824,-2.9000000953674316,0.3919999897480011,-9.682000160217283,2.2760000228881836
1622112104979,24.5,-20.065000534057617,-4.320000171661377,0.3529999852180481,-9.812000274658203,2.3329999446868896
1622112104989,24.56999969482422,-19.03499984741211,-4.920000076293945,0.3529999852180481,-9.928000450134276,2.312000036239624
1622112104999,22.959999084472656,-17.37700080871582,-6.263000011444092,0.3529999852180481,-10.064000129699709,2.4079999923706055
1622112105009,21.209999084472656,-16.232999801635742,-6.701000213623047,0.3529999852180481,-10.071000099182127,2.446000099182129
1622112105019,18.6200008392334,-14.55799961090088,-7.328999996185303,0.3529999852180481,-10.270999908447266,2.450999975204468
1622112105029,14.699999809265137,-12.923999786376951,-7.326000213623046,0.3529999852180481,-10.425000190734863,2.424000024795532
1622112105039,10.359999656677246,-11.201000213623049,-7.021999835968018,0.3919999897480011,-10.484000205993652,2.5329999923706055
1622112105049,5.25,-10.072999954223633,-5.756999969482422,0.4309999942779541,-10.515999794006348,2.486999988555908
1622112105059,-0.209999993443489,-8.916999816894531,-3.8469998836517334,0.4309999942779541,-10.567999839782717,2.558000087738037
1622112105069,-5.110000133514404,-7.0879998207092285,-2.5290000438690186,0.3919999897480011,-10.54300022125244,2.6419999599456787
1622112105079,-8.819999694824219,-5.215000152587891,-2.2699999809265137,0.4309999942779541,-10.434000015258787,2.700999975204468
1622112105089,-10.56999969482422,-3.650000095367432,-2.2780001163482666,0.4309999942779541,-10.118000030517578,2.7170000076293945
1622112105099,-10.359999656677246,-2.7820000648498535,-2.765000104904175,0.4709999859333038,-9.770999908447264,2.7780001163482666
1622112105109,-10.149999618530272,-1.9140000343322752,-3.252000093460083,0.4709999859333038,-9.531999588012695,2.7799999713897705
1622112105119,-9.729999542236328,-0.6169999837875366,-4.159999847412109,0.5099999904632568,-9.67300033569336,2.6760001182556152
1622112105129,-10.289999961853027,-0.1430000066757202,-4.432000160217285,0.4309999942779541,-9.58199977874756,2.611999988555908
1622112105139,-9.449999809265137,0.2910000085830688,-5.28000020980835,0.5099999904632568,-9.29800033569336,2.5829999446868896
1622112105149,-7.9099998474121085,1.1390000581741333,-4.8460001945495605,0.4309999942779541,-9.291000366210936,2.5439999103546143
1622112105159,-7.420000076293945,1.4190000295639038,-5.2230000495910645,0.4709999859333038,-9.322999954223633,2.499000072479248
1622112105169,-6.789999961853027,1.9049999713897705,-6.771999835968018,0.5099999904632568,-9.399999618530272,2.484999895095825
1622112105179,-6.510000228881836,2.4200000762939453,-7.676000118255616,0.5099999904632568,-9.392999649047852,2.446000099182129
1622112105189,-6.019999980926514,3.246999979019165,-8.73900032043457,0.5879999995231628,-9.439000129699709,2.4779999256134033
1622112105199,-6.159999847412109,3.8469998836517334,-10.12600040435791,0.6280000209808348,-9.51599979400635,2.4649999141693115
1622112105209,-6.300000190734863,3.8550000190734863,-10.97700023651123,0.6669999957084655,-9.529999732971191,2.5420000553131104
1622112105219,-6.71999979019165,4.426000118255615,-11.800999641418455,0.7450000047683715,-9.54800033569336,2.4189999103546143
1622112105229,-7.630000114440918,4.705999851226807,-12.178000450134276,0.7850000262260437,-9.618000030517578,2.3670001029968266
1622112105239,-8.329999923706055,5.26200008392334,-12.505999565124512,0.8240000009536743,-9.618000030517578,2.3670001029968266
1622112105249,-9.029999732971191,5.986999988555908,-12.592000007629396,0.8629999756813049,-9.565999984741213,2.2960000038146973
1622112105259,-9.380000114440918,6.5269999504089355,-12.425000190734863,0.9409999847412108,-9.623000144958496,2.1670000553131104
1622112105269,-10.079999923706056,6.584000110626221,-12.343999862670898,0.9409999847412108,-9.583999633789062,2.174000024795532
1622112105279,-10.43000030517578,6.650500297546387,-12.118999481201172,0.981000006198883,-9.647999763488768,2.0829999446868896
1622112105289,-10.779999732971191,6.7170000076293945,-11.894000053405762,0.981000006198883,-9.564000129699709,2.058000087738037
1622112105299,-10.989999771118164,7.196000099182129,-11.383000373840332,1.0199999809265137,-9.487000465393066,2.071000099182129
1622112105309,-11.0600004196167,7.407000064849853,-11.77299976348877,1.0590000152587893,-9.524999618530272,2.065000057220459
1622112105319,-10.710000038146973,7.670000076293945,-11.654999732971191,1.0199999809265137,-9.531999588012695,2.1029999256134033
1622112105329,-10.010000228881836,8.218000411987305,-12.340000152587892,1.0590000152587893,-9.616000175476074,2.128000020980835
1622112105339,-9.59000015258789,8.541999816894531,-12.567999839782717,1.0980000495910645,-9.71399974822998,2.2309999465942383
1622112105349,-10.079999923706056,9.057000160217283,-12.263999938964844,1.0980000495910645,-9.753000259399414,2.2239999771118164
1622112105359,-10.850000381469728,9.449999809265137,-12.479000091552734,1.0980000495910645,-9.758999824523924,2.26200008392334
1622112105369,-11.479999542236328,9.982000350952148,-12.668999671936035,1.1380000114440918,-9.76599979400635,2.3010001182556152
1622112105379,-12.18000030517578,10.574000358581545,-13.204999923706056,1.1770000457763672,-9.734000205993652,2.3459999561309814
1622112105389,-12.8100004196167,11.255000114440918,-13.4399995803833,1.1770000457763672,-9.663999557495115,2.3989999294281006
1622112105399,-13.300000190734863,12.029000282287598,-13.800999641418455,1.1770000457763672,-9.572999954223633,2.3350000381469727
1622112105409,-13.93000030517578,12.32900047302246,-13.890000343322754,1.1770000457763672,-9.534000396728516,2.3420000076293945
1622112105419,-14.0,12.815999984741213,-14.230999946594238,1.215999960899353,-9.437000274658203,2.240000009536743
1622112105429,-14.06999969482422,13.017999649047852,-14.97700023651123,1.2549999952316284,-9.437000274658203,2.240000009536743
1622112105439,-14.979999542236328,12.937000274658203,-14.920000076293944,1.2549999952316284,-9.42300033569336,2.1619999408721924
1622112105449,-15.295000076293944,13.128000259399414,-14.993000030517578,1.2549999952316284,-9.378000259399414,2.130000114440918
1622112105459,-15.609999656677246,13.319000244140623,-15.065999984741213,1.215999960899353,-9.36400032043457,2.052999973297119
1622112105469,-16.239999771118164,13.062999725341797,-14.82699966430664,1.215999960899353,-9.388999938964846,1.968999981880188
1622112105479,-16.8700008392334,13.131999969482422,-14.8149995803833,1.2549999952316284,-9.440999984741213,2.0399999618530273
1622112105489,-16.729999542236328,13.38700008392334,-15.053999900817873,1.2549999952316284,-9.38199996948242,1.930999994277954
1622112105499,-16.940000534057617,13.241000175476074,-15.4350004196167,1.215999960899353,-9.253000259399414,1.8739999532699585
1622112105509,-16.940000534057617,12.871999740600586,-15.357999801635742,1.215999960899353,-9.130000114440918,1.8550000190734863
1622112105519,-16.65999984741211,12.958000183105469,-15.840999603271484,1.215999960899353,-8.994000434875488,1.7599999904632568
1622112105529,-16.520000457763672,13.354999542236328,-16.481000900268555,1.215999960899353,-8.916000366210938,1.77400004863739
1622112105539,-15.81999969482422,13.532999992370604,-17.09000015258789,1.215999960899353,-8.90999984741211,1.7350000143051147
1622112105549,-14.699999809265137,14.031999588012695,-17.499000549316406,1.1380000114440918,-8.902999877929688,1.6959999799728394
1622112105559,-13.4399995803833,14.25100040435791,-17.531999588012695,1.1380000114440918,-8.902999877929688,1.6959999799728394
1622112105569,-12.25,14.458000183105469,-17.4950008392334,1.0980000495910645,-8.965999603271484,1.6059999465942385
1622112105579,-11.409999847412108,14.67300033569336,-17.101999282836914,1.0199999809265137,-9.036999702453612,1.5529999732971191
1622112105589,-11.130000114440918,15.5,-16.95599937438965,0.981000006198883,-9.069000244140623,1.5080000162124634
1622112105599,-11.479999542236328,16.60700035095215,-17.187000274658203,0.9020000100135804,-9.17099952697754,1.4099999666213987
1622112105609,-12.31999969482422,17.70599937438965,-17.774999618530273,0.8629999756813049,-9.357000350952148,1.337000012397766
1622112105619,-13.020000457763672,18.378999710083008,-17.76300048828125,0.8240000009536743,-9.574999809265137,1.218999981880188
1622112105629,-13.720000267028809,19.052000045776367,-17.750999450683594,0.8240000009536743,-9.800000190734863,1.1399999856948853
1622112105639,-14.840000152587892,20.263999938964844,-18.177000045776367,0.8629999756813049,-9.9350004196167,0.996999979019165
1622112105649,-15.609999656677246,20.929000854492188,-19.125999450683594,0.8629999756813049,-9.960000038146973,0.9129999876022338
1622112105659,-15.260000228881836,21.70800018310547,-19.913000106811523,0.9020000100135804,-9.862000465393066,0.8100000023841857
1622112105669,-14.06999969482422,21.934999465942383,-20.79700088500977,0.9409999847412108,-9.862000465393066,0.8100000023841857
1622112105679,-11.899999618530272,22.141000747680664,-21.968999862670895,0.981000006198883,-9.770999908447264,0.746999979019165
1622112105689,-9.3100004196167,22.152999877929688,-23.246000289916992,0.981000006198883,-9.770999908447264,0.746999979019165
1622112105699,-5.53000020980835,21.913999557495117,-24.709999084472656,1.0590000152587893,-9.732000350952148,0.7530000209808348
1622112105709,-2.0299999713897705,21.593000411987305,-24.909000396728516,1.0199999809265137,-9.777999877929688,0.7850000262260437
1622112105719,2.240000009536743,20.31999969482422,-25.347000122070312,1.0590000152587893,-9.777999877929688,0.7850000262260437
1622112105729,5.809999942779541,18.479000091552734,-25.386999130249023,1.0590000152587893,-9.862000465393066,0.8100000023841857
1622112105739,8.75,16.606000900268555,-24.437999725341797,1.0199999809265137,-10.02299976348877,0.8220000267028807
1622112105749,10.989999771118164,15.01200008392334,-23.86599922180176,1.0199999809265137,-10.11400032043457,0.8849999904632568
1622112105759,12.31999969482422,13.442999839782717,-23.43199920654297,0.9409999847412108,-10.274999618530272,0.8970000147819519
1622112105769,12.949999809265137,11.79300022125244,-22.94099998474121,0.9020000100135804,-10.29599952697754,1.0130000114440918
1622112105779,12.25,10.890500068664553,-22.459999084472656,0.9020000100135804,-10.303000450134276,1.0509999990463257
1622112105789,11.550000190734863,9.98799991607666,-21.979000091552734,0.7450000047683715,-10.309000015258787,1.0900000333786013
1622112105799,8.75,8.41100025177002,-20.694000244140625,0.6669999957084655,-10.270999908447266,1.0970000028610227
1622112105809,5.880000114440918,7.150000095367432,-19.992000579833984,0.5490000247955322,-10.354999542236328,1.121999979019165
1622112105819,3.2200000286102295,5.85699987411499,-18.301000595092773,0.4309999942779541,-10.38700008392334,1.0759999752044678
1622112105829,0.699999988079071,5.379000186920166,-16.395000457763672,0.3140000104904174,-10.411999702453612,0.9919999837875366
1622112105839,-1.4700000286102295,5.144000053405762,-14.659999847412108,0.1570000052452087,-10.411999702453612,0.9919999837875366
1622112105849,-3.1500000953674316,5.918000221252441,-13.812000274658203,0.0390000008046627,-10.328000068664553,0.9670000076293944
1622112105859,-4.550000190734863,6.9120001792907715,-12.996999740600586,0.0,-10.274999618530272,0.8970000147819519
1622112105869,-4.96999979019165,8.565999984741211,-12.704999923706056,-0.0390000008046627,-10.204999923706056,0.9490000009536744
1622112105879,-5.599999904632568,10.201000213623049,-12.70199966430664,-0.0780000016093254,-10.204999923706056,0.9490000009536744
1622112105889,-5.53000020980835,12.032999992370604,-13.017999649047852,-0.0780000016093254,-10.18000030517578,1.0329999923706057
1622112105899,-5.53000020980835,13.968000411987305,-13.104000091552734,-0.0780000016093254,-10.071000099182127,1.0920000076293943
1622112105909,-5.670000076293945,16.09600067138672,-13.083999633789064,0.0,-9.987000465393066,1.0670000314712524
1622112105919,-5.039999961853027,17.632999420166016,-12.527999877929688,0.0,-9.994000434875488,1.1059999465942385
1622112105929,-4.269999980926514,19.07699966430664,-11.847000122070312,0.0780000016093254,-9.93000030517578,1.1970000267028809
1622112105939,-4.095000267028809,19.64699935913086,-11.249000549316406,0.1570000052452087,-9.897999763488768,1.2419999837875366
1622112105949,-3.9200000762939458,20.21699905395508,-10.651000022888184,0.1959999948740005,-9.904999732971191,1.281000018119812
1622112105959,-3.359999895095825,20.756000518798828,-9.277000427246092,0.2750000059604644,-9.904999732971191,1.281000018119812
1622112105969,-3.359999895095825,20.48900032043457,-7.760000228881835,0.3140000104904174,-9.918999671936035,1.3580000400543213
1622112105979,-4.130000114440918,19.770999908447266,-6.110000133514404,0.3529999852180481,-9.918999671936035,1.3580000400543213
1622112105989,-5.670000076293945,18.72100067138672,-4.589000225067139,0.3529999852180481,-9.887000083923342,1.4029999971389773
1622112105999,-7.9099998474121085,17.5939998626709,-3.437000036239624,0.3529999852180481,-9.847999572753906,1.4099999666213987
1622112106009,-10.010000228881836,16.617000579833984,-2.3299999237060547,0.3140000104904174,-9.803000450134276,1.378000020980835
1622112106019,-12.390000343322754,15.37600040435791,-1.3400000333786013,0.2750000059604644,-9.725000381469728,1.3919999599456787
1622112106029,-14.420000076293944,14.414999961853027,-0.7279999852180481,0.2349999994039535,-9.68000030517578,1.3600000143051147
1622112106039,-16.520000457763672,13.527000427246094,-0.5289999842643737,0.1570000052452087,-9.602999687194824,1.3739999532699585
1622112106049,-18.40999984741211,12.522000312805176,-0.06700000166893,0.1959999948740005,-9.557000160217283,1.3420000076293943
1622112106059,-20.3700008392334,11.354000091552734,0.5090000033378601,0.1570000052452087,-9.512000083923342,1.309999942779541
1622112106069,-21.350000381469727,10.069000244140623,1.3489999771118164,0.1180000007152557,-9.550000190734863,1.3029999732971191
1622112106079,-21.700000762939453,8.973999977111816,2.7200000286102295,0.1180000007152557,-9.491000175476074,1.194000005722046
1622112106089,-21.420000076293945,7.859000205993653,3.802000045776367,0.0780000016093254,-9.446000099182127,1.1619999408721924
1622112106099,-21.24499893188477,7.263000011444091,4.158999919891357,0.0390000008046627,-9.491000175476074,1.194000005722046
1622112106109,-21.06999969482422,6.666999816894531,4.515999794006348,0.0,-9.510000228881836,1.0720000267028809
1622112106119,-20.649999618530273,5.454999923706055,4.941999912261963,0.0,-9.527999877929688,0.9490000009536744
1622112106129,-20.3700008392334,4.456999778747559,5.76200008392334,0.0,-9.5600004196167,0.902999997138977
1622112106139,-20.09000015258789,3.436000108718872,6.718999862670898,-0.0390000008046627,-9.57800006866455,0.781000018119812
1622112106149,-19.739999771118164,2.372999906539917,7.099999904632568,-0.0780000016093254,-9.64099979400635,0.6899999976158142
1622112106159,-19.670000076293945,0.8360000252723693,7.752999782562256,-0.0780000016093254,-9.75100040435791,0.6309999823570251
1622112106169,-19.739999771118164,-0.5619999766349792,8.430000305175781,-0.1570000052452087,-9.776000022888184,0.5469999909400939
1622112106179,-19.25,-1.5399999618530271,8.329000473022461,-0.1959999948740005,-9.83899974822998,0.4560000002384185
1622112106189,-19.31999969482422,-2.75600004196167,7.972000122070312,-0.2750000059604644,-9.871000289916992,0.4099999964237213
1622112106199,-19.25,-3.615999937057495,7.607999801635742,-0.3529999852180481,-9.826000213623049,0.3790000081062316
1622112106209,-19.459999084472656,-3.7699999809265137,6.869999885559082,-0.3919999897480011,-9.80500030517578,0.2630000114440918
1622112106219,-20.09000015258789,-3.7909998893737793,6.581999778747559,-0.4309999942779541,-9.70699977874756,0.1599999964237213
1622112106229,-20.649999618530273,-3.234999895095825,6.252999782562256,-0.4709999859333038,-9.609999656677246,0.0579999983310699
1622112106239,-21.280000686645508,-2.5169999599456787,5.810999870300293,-0.4709999859333038,-9.543999671936035,-0.0900000035762786
1622112106249,-21.700000762939453,-1.9170000553131104,5.632999897003174,-0.4709999859333038,-9.522999763488768,-0.2049999982118606
1622112106259,-22.190000534057617,-1.430999994277954,5.291999816894531,-0.4309999942779541,-9.55500030517578,-0.2509999871253967
1622112106269,-22.260000228881836,-1.000999927520752,5.474499702453613,-0.3529999852180481,-9.619000434875488,-0.3420000076293945
1622112106279,-22.329999923706055,-0.5709999799728394,5.6570000648498535,-0.2349999994039535,-9.612000465393066,-0.3799999952316284
1622112106289,-22.68000030517578,-0.1089999973773956,6.6620001792907715,-0.1959999948740005,-9.64400005340576,-0.4259999990463256
1622112106299,-22.399999618530273,-0.2790000140666961,7.626999855041504,-0.1180000007152557,-9.597999572753906,-0.4580000042915344
1622112106309,-21.90999984741211,-1.2599999904632568,7.952000141143799,-0.1180000007152557,-9.668999671936035,-0.5099999904632568
1622112106319,-21.770000457763672,-2.7809998989105225,8.109999656677246,-0.1570000052452087,-9.862000465393066,-0.5440000295639038
1622112106329,-21.700000762939453,-4.21999979019165,8.211999893188477,-0.1959999948740005,-9.95300006866455,-0.4799999892711639
1622112106339,-20.3700008392334,-5.89900016784668,8.057999610900879,-0.2349999994039535,-9.95300006866455,-0.4799999892711639
1622112106349,-19.11000061035156,-7.261000156402587,7.320000171661377,-0.3529999852180481,-9.862000465393066,-0.5440000295639038
1622112106359,-17.43000030517578,-7.578000068664551,6.696000099182129,-0.3919999897480011,-9.906999588012695,-0.512000024318695
1622112106369,-16.940000534057617,-7.763999938964843,6.947000026702881,-0.4709999859333038,-9.869000434875488,-0.5049999952316284
1622112106379,-16.170000076293945,-7.181000232696533,6.054999828338623,-0.4709999859333038,-9.862000465393066,-0.5440000295639038
1622112106389,-15.81999969482422,-6.25600004196167,5.64900016784668,-0.3919999897480011,-9.854999542236328,-0.5830000042915344
1622112106399,-15.329999923706056,-5.684000015258789,6.034999847412109,-0.3919999897480011,-9.78499984741211,-0.5299999713897705
1622112106409,-15.050000190734863,-4.577000141143799,5.802999973297119,-0.3529999852180481,-9.694000244140623,-0.5939999818801879
1622112106419,-15.1899995803833,-3.811000108718872,6.294000148773193,-0.2750000059604644,-9.57800006866455,-0.5740000009536743
1622112106429,-15.329999923706056,-3.2230000495910645,7.39300012588501,-0.2349999994039535,-9.461999893188477,-0.5529999732971191
1622112106439,-15.890000343322754,-2.8980000019073486,8.37399959564209,-0.1959999948740005,-9.371000289916992,-0.6169999837875366
1622112106449,-15.68000030517578,-2.953000068664551,8.684000015258789,-0.1570000052452087,-9.333000183105469,-0.6100000143051147
1622112106459,-15.470000267028809,-3.0079998970031734,8.994000434875488,-0.1959999948740005,-9.217000007629396,-0.5899999737739563
1622112106469,-14.909999847412108,-3.263000011444092,9.234000205993652,-0.2349999994039535,-9.17099952697754,-0.6209999918937683
1622112106479,-13.93000030517578,-3.5999999046325684,9.529999732971191,-0.2750000059604644,-9.217000007629396,-0.5899999737739563
1622112106489,-13.229999542236328,-3.6319999694824214,9.310999870300291,-0.3140000104904174,-9.255000114440918,-0.5960000157356262
1622112106499,-11.970000267028809,-4.050000190734863,8.454999923706055,-0.2750000059604644,-9.27400016784668,-0.7189999818801879
1622112106509,-10.149999618530272,-4.050000190734863,7.247000217437744,-0.3140000104904174,-9.36400032043457,-0.6549999713897705
1622112106518,-9.100000381469728,-3.822999954223633,6.36299991607666,-0.3140000104904174,-9.487000465393066,-0.637000024318695
1622112106528,-8.399999618530273,-3.815000057220459,5.511000156402588,-0.3140000104904174,-9.571000099182127,-0.6119999885559082
1622112106538,-7.9099998474121085,-3.7579998970031734,4.383999824523926,-0.3529999852180481,-9.57800006866455,-0.5740000009536743
1622112106548,-7.769999980926514,-3.4539999961853027,2.6610000133514404,-0.3140000104904174,-9.57800006866455,-0.5740000009536743
1622112106558,-7.0,-3.0450000762939453,0.7419999837875366,-0.3140000104904174,-9.585000038146973,-0.5350000262260437
1622112106568,-6.440000057220459,-2.8829998970031734,-0.5789999961853027,-0.2750000059604644,-9.54599952697754,-0.527999997138977
1622112106578,-5.320000171661377,-2.7049999237060547,-2.3959999084472656,-0.1959999948740005,-9.54599952697754,-0.527999997138977
1622112106588,-3.849999904632568,-3.4070000648498535,-3.6570000648498535,-0.1180000007152557,-9.5600004196167,-0.4510000050067901
1622112106598,-2.309999942779541,-3.9419999122619633,-5.456999778747559,-0.1180000007152557,-9.527999877929688,-0.4050000011920929
1622112106608,-1.2599999904632568,-5.175000190734863,-6.5279998779296875,-0.0390000008046627,-9.527999877929688,-0.4050000011920929
1622112106618,-0.4199999868869781,-6.124000072479248,-7.192999839782715,0.0,-9.541999816894531,-0.328000009059906
1622112106628,0.1400000005960464,-7.170000076293945,-7.306000232696533,0.0390000008046627,-9.579999923706056,-0.3350000083446502
1622112106638,0.5949999690055847,-7.766000270843506,-7.553500175476073,0.0390000008046627,-9.572999954223633,-0.3740000128746032
1622112106648,1.0499999523162842,-8.362000465393066,-7.801000118255616,0.0390000008046627,-9.53499984741211,-0.367000013589859
1622112106658,1.1200000047683716,-9.383999824523924,-8.052000045776367,0.0390000008046627,-9.572999954223633,-0.3740000128746032
1622112106668,1.399999976158142,-10.345000267028809,-7.439000129699707,0.0,-9.572999954223633,-0.3740000128746032
1622112106678,1.5399999618530271,-10.885000228881836,-7.605999946594238,0.0,-9.572999954223633,-0.3740000128746032
1622112106688,1.6100000143051147,-11.79300022125244,-7.695000171661377,-0.0780000016093254,-9.572999954223633,-0.3740000128746032
1622112106698,2.240000009536743,-11.756999969482422,-7.901999950408936,-0.1570000052452087,-9.572999954223633,-0.3740000128746032
1622112106708,2.869999885559082,-11.484999656677246,-8.63599967956543,-0.1959999948740005,-9.586999893188477,-0.2960000038146972
1622112106718,3.9200000762939458,-10.965999603271484,-8.756999969482422,-0.1959999948740005,-9.593999862670898,-0.2579999864101409
1622112106728,4.760000228881836,-10.175000190734863,-9.61299991607666,-0.1959999948740005,-9.604999542236328,-0.4189999997615814
1622112106738,5.739999771118164,-9.482000350952148,-9.916999816894531,-0.2349999994039535,-9.656999588012695,-0.3490000069141387
1622112106748,6.650000095367432,-8.317999839782715,-10.06700038909912,-0.2349999994039535,-9.717000007629396,-0.2399999946355819
1622112106758,7.349999904632568,-6.955999851226807,-10.538000106811523,-0.2349999994039535,-9.748000144958496,-0.2849999964237213
1622112106768,7.769999980926514,-5.966000080108643,-10.505999565124512,-0.1959999948740005,-9.786999702453612,-0.2919999957084655
1622112106778,8.329999923706055,-4.920000076293945,-10.392000198364258,-0.1570000052452087,-9.826000213623049,-0.2989999949932098
1622112106788,8.119999885559082,-4.75,-10.14900016784668,-0.1180000007152557,-9.793999671936035,-0.2529999911785125
1622112106798,7.8400001525878915,-4.449999809265137,-10.23799991607666,-0.0780000016093254,-9.800999641418455,-0.2150000035762786
1622112106808,7.420000076293945,-4.215000152587891,-10.765000343322754,-0.0780000016093254,-9.83899974822998,-0.221000000834465
1622112106818,7.070000171661377,-4.631999969482422,-11.621000289916992,-0.0780000016093254,-9.845999717712402,-0.1829999983310699
1622112106828,6.650000095367432,-4.02400016784668,-12.651000022888184,-0.0780000016093254,-9.845999717712402,-0.1829999983310699
1622112106838,6.614999771118164,-3.8010001182556152,-13.109499931335447,-0.0780000016093254,-9.885000228881836,-0.1889999955892562
1622112106848,6.579999923706055,-3.578000068664551,-13.567999839782717,-0.0780000016093254,-9.845999717712402,-0.1829999983310699
1622112106858,6.71999979019165,-2.625999927520752,-14.536999702453612,-0.1180000007152557,-9.845999717712402,-0.1829999983310699
1622112106868,6.860000133514404,-1.725000023841858,-14.80500030517578,-0.0390000008046627,-9.866000175476074,-0.06700000166893
1622112106878,6.71999979019165,-0.824999988079071,-15.071999549865724,-0.0780000016093254,-9.79599952697754,-0.0149999996647238
1622112106888,6.71999979019165,0.8410000205039978,-14.848999977111816,-0.0390000008046627,-9.887000083923342,0.0489999987185001
1622112106898,6.510000228881836,1.8630000352859497,-14.597999572753906,0.0,-9.96399974822998,0.0350000001490116
1622112106908,5.949999809265137,3.003000020980835,-14.611000061035156,0.0780000016093254,-9.996000289916992,-0.0099999997764825
1622112106918,5.179999828338623,3.700000047683716,-14.131999969482422,0.1180000007152557,-10.027999877929688,-0.0549999997019767
1622112106928,3.849999904632568,4.060999870300293,-13.357999801635742,0.1570000052452087,-9.98900032043457,-0.0489999987185001
1622112106938,2.940000057220459,4.640999794006348,-12.616000175476074,0.1959999948740005,-9.95699977874756,-0.003000000026077
1622112106948,2.0999999046325684,4.702000141143799,-11.751999855041504,0.2349999994039535,-9.95699977874756,-0.003000000026077
1622112106958,1.399999976158142,4.714000225067139,-10.61299991607666,0.1959999948740005,-9.918999671936035,0.0040000001899898
1622112106968,0.8399999737739563,4.885000228881836,-9.16100025177002,0.1570000052452087,-9.918999671936035,0.0040000001899898
1622112106978,0.2800000011920929,5.002999782562256,-8.215999603271484,0.1180000007152557,-9.887000083923342,0.0489999987185001
1622112106988,-0.2800000011920929,4.921999931335449,-6.951000213623047,0.0780000016093254,-9.932000160217283,0.0810000002384185
1622112106998,-1.190000057220459,5.0879998207092285,-6.2820000648498535,0.0390000008046627,-9.925999641418455,0.0419999994337558
1622112107008,-2.0299999713897705,5.340000152587891,-6.09499979019165,0.0,-9.98900032043457,-0.0489999987185001
1622112107018,-3.5,5.789999961853027,-6.229000091552734,0.0390000008046627,-10.04800033569336,0.0599999986588954
1622112107028,-4.480000019073486,6.175000190734863,-6.801000118255615,-0.0390000008046627,-9.951000213623049,-0.0419999994337558
1622112107038,-5.389999866485596,6.790999889373779,-7.473999977111816,-0.0390000008046627,-9.859999656677246,-0.1049999967217445
1622112107048,-6.159999847412109,7.751999855041504,-8.086999893188477,-0.0780000016093254,-9.814000129699709,-0.1369999945163726
1622112107058,-6.369999885559082,8.080499649047852,-8.135499954223633,-0.1570000052452087,-9.744000434875488,-0.0850000008940696
1622112107068,-6.579999923706055,8.409000396728516,-8.184000015258789,-0.1180000007152557,-9.697999954223633,-0.1169999986886978
1622112107078,-6.440000057220459,9.366000175476074,-8.371000289916992,-0.0780000016093254,-9.69200038909912,-0.1550000011920929
1622112107088,-5.739999771118164,10.392000198364258,-8.545000076293945,-0.0780000016093254,-9.61400032043457,-0.1420000046491622
1622112107098,-4.829999923706055,11.288000106811523,-8.38700008392334,-0.0780000016093254,-9.652999877929688,-0.1490000039339065
1622112107108,-3.849999904632568,12.034000396728516,-8.1850004196167,-0.0780000016093254,-9.69200038909912,-0.1550000011920929
1622112107118,-3.0799999237060547,13.092000007629396,-8.140000343322754,-0.0780000016093254,-9.722999572753906,-0.2010000050067901
1622112107128,-2.380000114440918,14.045000076293944,-7.901000022888184,-0.0390000008046627,-9.722999572753906,-0.2010000050067901
1622112107138,-1.9600000381469729,14.909000396728516,-7.961999893188477,-0.0390000008046627,-9.755000114440918,-0.2460000067949295
1622112107148,-2.0299999713897705,15.967000007629396,-7.918000221252441,-0.0390000008046627,-9.793999671936035,-0.2529999911785125
1622112107158,-2.309999942779541,16.31999969482422,-7.5,-0.0390000008046627,-9.762000083923342,-0.2080000042915344
1622112107168,-2.7300000190734863,16.91200065612793,-8.03499984741211,-0.0390000008046627,-9.722999572753906,-0.2010000050067901
1622112107178,-2.869999885559082,17.41900062561035,-8.088000297546387,0.0,-9.722999572753906,-0.2010000050067901
1622112107188,-2.869999885559082,17.593000411987305,-8.270999908447266,0.0,-9.586999893188477,-0.2960000038146972
1622112107198,-2.1700000762939453,17.965999603271484,-8.77299976348877,0.0,-9.55500030517578,-0.2509999871253967
1622112107208,-1.5399999618530271,18.03499984741211,-8.76099967956543,0.0780000016093254,-9.522999763488768,-0.2049999982118606
1622112107218,-0.209999993443489,17.945999145507812,-9.060999870300291,0.0780000016093254,-9.562000274658203,-0.2119999974966049
1622112107228,0.9800000190734864,17.7549991607666,-9.593000411987305,0.0780000016093254,-9.529999732971191,-0.1669999957084655
1622112107238,2.0999999046325684,17.79199981689453,-9.798999786376951,0.1180000007152557,-9.522999763488768,-0.2049999982118606
1622112107248,3.1500000953674316,18.11599922180176,-10.026000022888184,0.0780000016093254,-9.529999732971191,-0.1669999957084655
1622112107258,3.990000009536743,18.31100082397461,-9.92099952697754,0.0780000016093254,-9.536999702453612,-0.1280000060796737
1622112107268,4.829999923706055,18.322999954223633,-9.989999771118164,0.0390000008046627,-9.576000213623049,-0.135000005364418
1622112107278,5.53000020980835,18.979999542236328,-10.086999893188477,0.0390000008046627,-9.628000259399414,-0.0649999976158142
1622112107288,6.159999847412109,19.665000915527344,-9.53999996185303,0.0390000008046627,-9.635000228881836,-0.0260000005364418
1622112107298,6.510000228881836,20.10300064086914,-9.604999542236328,0.0390000008046627,-9.58899974822998,-0.0579999983310699
1622112107308,6.860000133514404,20.541000366210938,-9.670000076293944,0.0390000008046627,-9.628000259399414,-0.0649999976158142
1622112107318,7.210000038146973,21.15800094604492,-9.135000228881836,0.0390000008046627,-9.595999717712402,-0.0189999993890523
1622112107328,7.8400001525878915,22.06599998474121,-9.04599952697754,0.0390000008046627,-9.557000160217283,-0.0120000001043081
1622112107338,8.960000038146973,22.65399932861328,-9.154999732971191,0.0390000008046627,-9.595999717712402,-0.0189999993890523
1622112107348,10.010000228881836,23.875,-9.223999977111816,0.0390000008046627,-9.557000160217283,-0.0120000001043081
1622112107358,10.850000381469728,24.641000747680664,-8.734000205993652,0.0780000016093254,-9.51900005340576,-0.0049999998882412
1622112107368,11.619999885559082,25.406999588012695,-8.243000030517578,0.0780000016093254,-9.571000099182127,0.0649999976158142
1622112107378,12.880000114440918,25.78499984741211,-7.96400022506714,0.0780000016093254,-9.668999671936035,0.1669999957084655
1622112107388,13.4399995803833,25.61400032043457,-8.206999778747559,0.0780000016093254,-9.760000228881836,0.231000006198883
1622112107398,13.369999885559082,25.659000396728516,-8.057000160217285,0.0780000016093254,-9.92099952697754,0.2419999986886978
1622112107408,12.739999771118164,25.402999877929688,-7.817999839782715,0.0780000016093254,-10.005000114440918,0.2669999897480011
1622112107418,11.550000190734863,25.124000549316406,-7.440000057220459,0.1180000007152557,-10.095999717712402,0.3310000002384185
1622112107428,10.220000267028809,24.871999740600582,-7.626999855041504,0.0780000016093254,-10.128000259399414,0.2849999964237213
1622112107438,8.470000267028809,23.947999954223633,-7.22100019454956,0.0780000016093254,-10.128000259399414,0.2849999964237213
1622112107448,6.789999961853027,23.506000518798828,-6.730999946594238,0.0780000016093254,-10.128000259399414,0.2849999964237213
1622112107458,5.389999866485596,23.100000381469727,-6.447000026702881,0.0390000008046627,-10.08899974822998,0.2919999957084655
1622112107468,4.409999847412109,23.018999099731445,-6.389999866485596,0.0,-10.057000160217283,0.3379999995231628
1622112107478,3.569999933242798,22.98699951171875,-6.609000205993652,-0.0780000016093254,-9.972999572753906,0.3129999935626983
1622112107488,2.940000057220459,22.85700035095215,-6.276000022888184,-0.0780000016093254,-9.895999908447264,0.3260000050067901
1622112107498,2.799999952316284,22.979000091552734,-5.756999969482422,-0.1180000007152557,-9.80500030517578,0.2630000114440918
1622112107508,2.6600000858306885,23.079999923706055,-5.526000022888184,-0.1570000052452087,-9.772999763488768,0.3079999983310699
1622112107518,3.0799999237060547,23.298999786376953,-5.559000015258789,-0.1959999948740005,-9.76599979400635,0.2689999938011169
1622112107528,3.6400001049041744,23.753000259399418,-6.118000030517578,-0.1959999948740005,-9.720999717712402,0.2380000054836273
1622112107538,4.340000152587891,24.01300048828125,-6.7829999923706055,-0.2349999994039535,-9.682000160217283,0.2440000027418136
1622112107548,4.585000038146973,24.04750061035156,-6.7769999504089355,-0.2349999994039535,-9.720999717712402,0.2380000054836273
1622112107558,4.829999923706055,24.082000732421875,-6.770999908447266,-0.1959999948740005,-9.760000228881836,0.231000006198883
1622112107568,5.25,23.81800079345703,-6.888999938964844,-0.1959999948740005,-9.80500030517578,0.2630000114440918
1622112107578,5.039999961853027,23.570999145507812,-7.500999927520752,-0.1570000052452087,-9.829999923706056,0.1790000051259994
1622112107588,4.760000228881836,23.274999618530273,-7.836999893188477,-0.1570000052452087,-9.79800033569336,0.2240000069141387
1622112107598,4.550000190734863,22.722999572753903,-7.934999942779541,-0.1570000052452087,-9.836999893188477,0.2169999927282333
1622112107608,3.990000009536743,22.621999740600582,-8.166000366210938,-0.1180000007152557,-9.80500030517578,0.2630000114440918
1622112107618,3.2899999618530273,22.02199935913086,-7.986999988555909,-0.0780000016093254,-9.80500030517578,0.2630000114440918
1622112107628,3.0799999237060547,21.17799949645996,-7.638000011444091,-0.0780000016093254,-9.760000228881836,0.231000006198883
1622112107638,2.940000057220459,20.339000701904297,-7.7150001525878915,-0.0390000008046627,-9.727999687194824,0.2759999930858612
1622112107648,2.6600000858306885,19.219999313354492,-7.414999961853027,0.0,-9.734999656677246,0.3149999976158142
1622112107658,2.380000114440918,18.26300048828125,-7.229000091552734,0.0,-9.779999732971191,0.3470000028610229
1622112107668,2.240000009536743,17.111000061035156,-7.146999835968018,0.0390000008046627,-9.779999732971191,0.3470000028610229
1622112107678,2.0299999713897705,16.256000518798828,-6.729000091552734,0.0390000008046627,-9.779999732971191,0.3470000028610229
1622112107688,1.75,15.152999877929688,-6.923999786376953,0.0390000008046627,-9.734999656677246,0.3149999976158142
1622112107698,1.5399999618530271,14.093999862670898,-6.9679999351501465,0.0780000016093254,-9.70300006866455,0.3600000143051147
1622112107708,1.399999976158142,12.99899959564209,-6.806000232696533,0.1180000007152557,-9.710000038146973,0.3989999890327453
1622112107718,0.9800000190734864,11.97700023651123,-7.057000160217285,0.1180000007152557,-9.70300006866455,0.3600000143051147
1622112107728,1.190000057220459,10.930999755859377,-7.171000003814697,0.1180000007152557,-9.741000175476074,0.3540000021457672
1622112107738,1.0499999523162842,10.02299976348877,-7.260000228881835,0.0780000016093254,-9.656999588012695,0.3289999961853027
1622112107748,1.3300000429153442,9.187999725341797,-7.763000011444091,0.0390000008046627,-9.663999557495115,0.367000013589859
1622112107758,1.2599999904632568,8.303999900817871,-7.988999843597413,0.0,-9.663999557495115,0.367000013589859
1622112107768,1.190000057220459,8.027999877929688,-8.038000106811523,-0.0390000008046627,-9.663999557495115,0.367000013589859
1622112107778,1.190000057220459,7.8410000801086435,-7.7870001792907715,-0.0780000016093254,-9.734999656677246,0.3149999976158142
1622112107788,0.9100000262260436,8.003000259399414,-7.900000095367432,-0.1180000007152557,-9.586999893188477,0.3810000121593475
1622112107798,0.4199999868869781,8.234999656677246,-8.001999855041504,-0.1180000007152557,-9.62600040435791,0.3740000128746032
1622112107808,0.8399999737739563,8.79800033569336,-7.973000049591064,-0.1180000007152557,-9.656999588012695,0.3289999961853027
1622112107818,1.1200000047683716,8.891500473022461,-8.098999977111816,-0.1180000007152557,-9.651000022888184,0.2899999916553497
1622112107828,1.399999976158142,8.984999656677246,-8.225000381469727,-0.1180000007152557,-9.663999557495115,0.367000013589859
1622112107838,2.0299999713897705,9.454999923706056,-8.071000099182129,-0.0780000016093254,-9.70300006866455,0.3600000143051147
1622112107848,3.0799999237060547,9.682000160217283,-7.745999813079834,-0.1180000007152557,-9.663999557495115,0.367000013589859
1622112107858,3.6400001049041744,9.70300006866455,-7.458000183105469,-0.0780000016093254,-9.619000434875488,0.3350000083446502
1622112107868,4.130000114440918,9.977999687194824,-7.4099998474121085,-0.1570000052452087,-9.656999588012695,0.3289999961853027
1622112107878,4.550000190734863,10.428000450134276,-7.544000148773193,-0.1959999948740005,-9.64400005340576,0.2509999871253967
1622112107888,5.110000133514404,10.939000129699709,-8.022000312805176,-0.2349999994039535,-9.592000007629396,0.1809999942779541
1622112107898,5.320000171661377,11.19499969482422,-8.26200008392334,-0.2349999994039535,-9.5600004196167,0.2259999960660934
1622112107908,6.159999847412109,11.758000373840332,-8.232999801635742,-0.3140000104904174,-9.482000350952148,0.2399999946355819
1622112107918,7.559999942779541,13.064000129699709,-8.78499984741211,-0.3529999852180481,-9.366999626159668,0.2599999904632568
1622112107928,9.029999732971191,14.024999618530272,-9.397000312805178,-0.4309999942779541,-9.237000465393066,0.2039999961853027
1622112107938,11.0600004196167,15.89799976348877,-10.345999717712402,-0.4309999942779541,-9.19200038909912,0.1720000058412551
1622112107948,13.300000190734863,17.43899917602539,-11.425000190734863,-0.4709999859333038,-9.15999984741211,0.2169999927282333
1622112107958,16.8700008392334,19.579999923706055,-12.68299961090088,-0.5099999904632568,-9.08199977874756,0.231000006198883
1622112107968,20.579999923706055,21.802000045776367,-13.996999740600586,-0.4709999859333038,-9.057000160217283,0.3149999976158142
1622112107978,24.36000061035156,24.031999588012695,-14.95400047302246,-0.5099999904632568,-9.050999641418455,0.2759999930858612
1622112107988,27.649999618530273,26.597999572753903,-16.207000732421875,-0.4709999859333038,-9.142000198364256,0.3400000035762786
1622112107998,30.799999237060547,28.893999099731445,-16.726999282836914,-0.3919999897480011,-9.22599983215332,0.3650000095367431
1622112108008,33.459999084472656,30.94499969482422,-17.076000213623047,-0.3529999852180481,-9.3100004196167,0.3899999856948852
1622112108018,35.41999816894531,32.73699951171875,-17.968000411987305,-0.2750000059604644,-9.446000099182127,0.4850000143051147
1622112108028,35.70000076293945,34.40800094604492,-18.17099952697754,-0.1570000052452087,-9.666000366210936,0.606000006198883
1622112108038,34.790000915527344,35.67300033569336,-18.09000015258789,-0.0780000016093254,-9.925000190734863,0.7189999818801879
1622112108048,32.970001220703125,36.27799987792969,-17.486000061035156,0.0,-10.138999938964844,0.8009999990463256
1622112108058,29.88999938964844,36.6870002746582,-16.98699951171875,0.0390000008046627,-10.314000129699709,0.8899999856948853
1622112108068,26.600000381469727,37.27899932861328,-16.31399917602539,0.0390000008046627,-10.404999732971191,0.9539999961853028
1622112108078,22.959999084472656,37.82699966430664,-15.791000366210938,0.0390000008046627,-10.418999671936035,1.031000018119812
1622112108088,21.209999084472656,38.32550048828125,-15.596500396728516,0.0390000008046627,-10.394000053405762,1.1150000095367432
1622112108098,19.459999084472656,38.82400131225586,-15.402000427246094,0.0,-10.329999923706056,1.2059999704360962
1622112108108,16.729999542236328,39.849998474121094,-15.57699966430664,0.0390000008046627,-10.220999717712402,1.2649999856948853
1622112108117,14.350000381469728,40.60900115966797,-15.442999839782717,0.0,-10.083999633789064,1.1690000295639038
1622112108127,12.880000114440918,41.69100189208984,-15.53600025177002,0.0,-10.013999938964844,1.2220000028610227
1622112108137,11.550000190734863,43.10200119018555,-16.283000946044922,-0.0390000008046627,-9.852999687194824,1.2100000381469729
1622112108147,11.130000114440918,44.70000076293945,-17.280000686645508,-0.0390000008046627,-9.859000205993652,1.2489999532699585
1622112108157,10.710000038146973,46.14300155639648,-17.808000564575195,0.0390000008046627,-9.904999732971191,1.281000018119812
1622112108167,9.65999984741211,46.845001220703125,-17.7549991607666,0.1180000007152557,-9.98900032043457,1.305999994277954
1622112108177,8.819999694824219,46.8650016784668,-17.466999053955078,0.3140000104904174,-10.041000366210938,1.3760000467300415
1622112108187,7.0,46.83300018310547,-16.47800064086914,0.3529999852180481,-10.041000366210938,1.3760000467300415
1622112108197,5.320000171661377,46.80500030517578,-15.913999557495115,0.3919999897480011,-10.072999954223633,1.3309999704360962
1622112108207,3.2899999618530273,46.301998138427734,-15.07900047302246,0.4709999859333038,-10.079999923706056,1.36899995803833
1622112108217,1.4700000286102295,45.891998291015625,-14.369000434875488,0.5879999995231628,-10.086999893188477,1.4079999923706057
1622112108227,-0.8399999737739563,45.35300064086914,-13.32699966430664,0.6280000209808348,-10.015999794006348,1.4600000381469729
1622112108237,-2.309999942779541,44.055999755859375,-12.41800022125244,0.6669999957084655,-9.95300006866455,1.5509999990463257
1622112108247,-3.430000066757202,42.77000045776367,-11.57900047302246,0.7850000262260437,-9.862000465393066,1.4869999885559082
1622112108257,-4.269999980926514,40.993999481201165,-11.180999755859377,0.7450000047683715,-9.732000350952148,1.430999994277954
1622112108267,-4.690000057220459,39.04399871826172,-10.60099983215332,0.7450000047683715,-9.68000030517578,1.3600000143051147
1622112108277,-5.039999961853027,37.11000061035156,-10.515999794006348,0.7059999704360961,-9.564000129699709,1.38100004196167
1622112108287,-4.550000190734863,35.707000732421875,-10.621000289916992,0.7059999704360961,-9.447999954223633,1.4010000228881836
1622112108297,-3.849999904632568,34.465999603271484,-10.840000152587892,0.6669999957084655,-9.371000289916992,1.4149999618530271
1622112108307,-2.380000114440918,33.362998962402344,-11.034000396728516,0.6280000209808348,-9.293999671936035,1.4279999732971191
1622112108317,-0.7699999809265136,31.614999771118164,-11.199999809265137,0.6280000209808348,-9.33199977874756,1.4220000505447388
1622112108327,0.8399999737739563,30.04199981689453,-11.548999786376951,0.5879999995231628,-9.324999809265137,1.3830000162124634
1622112108337,2.380000114440918,28.631000518798828,-10.802000045776367,0.5879999995231628,-9.36400032043457,1.3760000467300415
1622112108347,3.430000066757202,27.00900077819824,-10.875,0.5879999995231628,-9.487000465393066,1.3940000534057615
1622112108357,3.46500015258789,26.44099998474121,-11.08199977874756,0.6280000209808348,-9.647999763488768,1.406000018119812
1622112108367,3.5,25.87299919128418,-11.288999557495115,0.5490000247955322,-9.770999908447264,1.4240000247955322
1622112108377,2.6600000858306885,24.445999145507812,-11.255999565124512,0.5490000247955322,-9.862000465393066,1.4869999885559082
1622112108387,1.399999976158142,22.950000762939453,-11.236000061035156,0.5879999995231628,-9.92099952697754,1.5970000028610227
1622112108397,-0.1400000005960464,22.19099998474121,-11.369000434875488,0.5879999995231628,-9.965999603271484,1.628000020980835
1622112108407,-2.0999999046325684,20.92200088500977,-11.02400016784668,0.5879999995231628,-9.979999542236328,1.7059999704360962
1622112108417,-3.9200000762939458,20.167999267578125,-10.375,0.5490000247955322,-9.934000015258787,1.6740000247955322
1622112108427,-5.179999828338623,18.988000869750977,-9.730999946594238,0.5490000247955322,-9.965999603271484,1.628000020980835
1622112108437,-6.159999847412109,17.982999801635742,-9.267999649047852,0.5490000247955322,-9.888999938964846,1.6419999599456787
1622112108447,-7.420000076293945,16.791000366210938,-8.553999900817871,0.5099999904632568,-9.843999862670898,1.6100000143051147
1622112108457,-7.980000019073486,15.60200023651123,-8.265999794006348,0.5099999904632568,-9.753000259399414,1.5470000505447388
1622112108467,-7.980000019073486,14.463000297546388,-8.253999710083008,0.5099999904632568,-9.73900032043457,1.468999981880188
1622112108477,-8.470000267028809,13.343999862670898,-7.953999996185303,0.5099999904632568,-9.694000244140623,1.437000036239624
1622112108487,-8.609999656677246,12.491999626159668,-7.961999893188477,0.4709999859333038,-9.647999763488768,1.406000018119812
1622112108497,-8.399999618530273,11.92099952697754,-8.347000122070312,0.4709999859333038,-9.635000228881836,1.3279999494552612
1622112108507,-7.630000114440918,10.97599983215332,-8.229000091552734,0.3919999897480011,-9.58899974822998,1.2970000505447388
1622112108517,-7.210000038146973,10.70400047302246,-8.704000473022461,0.3529999852180481,-9.58199977874756,1.2580000162124634
1622112108527,-6.369999885559082,10.642999649047852,-8.359000205993652,0.3140000104904174,-9.491000175476074,1.194000005722046
1622112108537,-5.389999866485596,9.892999649047852,-8.13599967956543,0.3140000104904174,-9.470999717712402,1.0779999494552612
1622112108547,-4.690000057220459,9.649999618530272,-7.9650001525878915,0.3529999852180481,-9.522999763488768,1.14900004863739
1622112108557,-4.199999809265137,9.119000434875488,-7.775000095367432,0.3140000104904174,-9.645999908447264,1.1670000553131104
1622112108567,-4.199999809265137,8.737000465393066,-7.629000186920166,0.1959999948740005,-9.729999542236328,1.1920000314712524
1622112108577,-4.829999923706055,9.041000366210936,-8.144000053405762,0.1570000052452087,-9.814000129699709,1.2170000076293943
1622112108587,-5.670000076293945,9.864999771118164,-8.779999732971191,0.0780000016093254,-9.859000205993652,1.2489999532699585
1622112108597,-6.019999980926514,10.728500366210938,-8.840999603271484,0.0390000008046627,-9.904999732971191,1.281000018119812
1622112108607,-6.369999885559082,11.592000007629396,-8.902000427246094,0.0390000008046627,-9.904999732971191,1.281000018119812
1622112108617,-7.139999866485596,12.739999771118164,-8.557999610900879,0.0390000008046627,-9.949999809265137,1.312999963760376
1622112108627,-8.470000267028809,14.048999786376951,-8.32699966430664,0.0390000008046627,-9.937000274658203,1.2350000143051147
1622112108637,-9.239999771118164,15.322999954223633,-7.888999938964843,0.0390000008046627,-9.944000244140623,1.27400004863739
1622112108647,-10.079999923706056,16.583999633789062,-7.381999969482423,0.0780000016093254,-9.937000274658203,1.2350000143051147
1622112108657,-11.130000114440918,18.06800079345703,-7.334000110626221,0.1180000007152557,-9.949999809265137,1.312999963760376
1622112108667,-11.6899995803833,18.38800048828125,-7.135000228881836,0.1959999948740005,-9.897999763488768,1.2419999837875366
1622112108677,-12.25,19.06999969482422,-7.370999813079834,0.2750000059604644,-9.845999717712402,1.1720000505447388
1622112108687,-12.880000114440918,19.19499969482422,-7.276999950408936,0.3140000104904174,-9.786999702453612,1.062999963760376
1622112108697,-13.229999542236328,18.63999938964844,-6.948999881744385,0.3529999852180481,-9.741000175476074,1.031000018119812
1622112108707,-12.949999809265137,18.156999588012695,-7.033999919891357,0.3529999852180481,-9.696000099182127,0.9990000128746032
1622112108717,-12.739999771118164,17.572999954223633,-7.349999904632568,0.3529999852180481,-9.649999618530272,0.9670000076293944
1622112108727,-12.670000076293944,16.652999877929688,-7.369999885559082,0.3919999897480011,-9.604999542236328,0.9350000023841856
1622112108737,-12.109999656677246,15.829999923706056,-7.941999912261963,0.3919999897480011,-9.590999603271484,0.8579999804496765
1622112108747,-11.619999885559082,15.083000183105469,-8.145000457763672,0.4309999942779541,-9.585000038146973,0.8190000057220459
1622112108757,-11.199999809265137,14.151000022888184,-8.095999717712402,0.4309999942779541,-9.623000144958496,0.8130000233650208
1622112108767,-10.5,12.894000053405762,-7.820000171661377,0.4709999859333038,-9.571000099182127,0.7419999837875366
1622112108777,-9.800000190734863,11.446000099182127,-8.074999809265137,0.4709999859333038,-9.526000022888184,0.7099999785423278
1622112108787,-9.380000114440918,10.050999641418455,-7.822999954223632,0.5099999904632568,-9.526000022888184,0.7099999785423278
1622112108797,-8.329999923706055,8.680999755859375,-7.710000038146973,0.5490000247955322,-9.550999641418455,0.6259999871253967
1622112108807,-7.630000114440918,7.484000205993653,-7.77899980545044,0.5099999904632568,-9.595999717712402,0.6579999923706054
1622112108817,-7.140000343322754,6.833499908447266,-7.715999603271484,0.4709999859333038,-9.58899974822998,0.6190000176429749
1622112108827,-6.650000095367432,6.183000087738037,-7.652999877929688,0.5099999904632568,-9.595999717712402,0.6579999923706054
1622112108837,-6.230000019073486,4.706999778747559,-7.343999862670899,0.5490000247955322,-9.635000228881836,0.6510000228881835
1622112108847,-5.739999771118164,3.503000020980835,-6.560999870300293,0.5490000247955322,-9.67300033569336,0.6439999938011169
1622112108857,-5.460000038146973,1.8279999494552612,-5.933000087738037,0.5490000247955322,-9.718999862670898,0.6759999990463256
1622112108867,-5.389999866485596,0.5469999909400939,-5.519000053405762,0.5099999904632568,-9.718999862670898,0.6759999990463256
1622112108877,-5.739999771118164,-0.9449999928474426,-4.716000080108643,0.4309999942779541,-9.763999938964846,0.7080000042915344
1622112108887,-5.880000114440918,-2.0160000324249268,-4.690999984741211,0.3919999897480011,-9.725000381469728,0.7149999737739563
1622112108897,-6.159999847412109,-3.0989999771118164,-4.5980000495910645,0.3529999852180481,-9.732000350952148,0.7530000209808348
1622112108907,-5.880000114440918,-3.374000072479248,-4.646999835968018,0.3529999852180481,-9.718999862670898,0.6759999990463256
1622112108917,-6.369999885559082,-4.019000053405762,-4.618000030517578,0.2750000059604644,-9.75699996948242,0.6690000295639038
1622112108927,-6.860000133514404,-4.230000019073486,-4.229000091552734,0.2750000059604644,-9.763999938964846,0.7080000042915344
1622112108937,-6.71999979019165,-3.836999893188477,-4.443999767303467,0.2349999994039535,-9.763999938964846,0.7080000042915344
1622112108947,-6.929999828338623,-3.950000047683716,-4.605999946594238,0.2349999994039535,-9.777999877929688,0.7850000262260437
1622112108957,-6.71999979019165,-3.9579999446868896,-4.9629998207092285,0.1959999948740005,-9.763999938964846,0.7080000042915344
1622112108967,-6.789999961853027,-3.8159999847412114,-5.363999843597412,0.1570000052452087,-9.725000381469728,0.7149999737739563
1622112108977,-6.579999923706055,-3.2890000343322754,-5.129000186920166,0.1570000052452087,-9.725000381469728,0.7149999737739563
1622112108987,-6.369999885559082,-3.3420000076293945,-5.636000156402588,0.1570000052452087,-9.75699996948242,0.6690000295639038
1622112108997,-6.090000152587891,-3.2850000858306885,-5.554999828338623,0.1570000052452087,-9.718999862670898,0.6759999990463256
1622112109007,-5.880000114440918,-3.13100004196167,-6.025000095367432,0.1959999948740005,-9.711999893188477,0.6380000114440918
1622112109017,-5.880000114440918,-3.126999855041504,-6.451000213623047,0.2349999994039535,-9.666000366210936,0.606000006198883
1622112109027,-5.880000114440918,-3.122999906539917,-6.876999855041504,0.2750000059604644,-9.666000366210936,0.606000006198883
1622112109037,-5.53000020980835,-3.2170000076293945,-6.750999927520752,0.3140000104904174,-9.65999984741211,0.5669999718666076
1622112109047,-5.320000171661377,-3.5859999656677246,-6.673999786376953,0.3529999852180481,-9.65999984741211,0.5669999718666076
1622112109057,-4.96999979019165,-3.974999904632568,-6.885000228881836,0.3529999852180481,-9.576000213623049,0.5419999957084655
1622112109067,-4.480000019073486,-4.6519999504089355,-7.074999809265137,0.3529999852180481,-9.536999702453612,0.5490000247955322
1622112109077,-3.9200000762939458,-5.491000175476074,-7.1519999504089355,0.3529999852180481,-9.529999732971191,0.5099999904632568
1622112109087,-3.2200000286102295,-6.315000057220459,-7.723999977111816,0.3919999897480011,-9.543999671936035,0.5879999995231628
1622112109097,-1.9600000381469729,-7.165999889373779,-7.73199987411499,0.3919999897480011,-9.550999641418455,0.6259999871253967
1622112109107,-0.699999988079071,-7.604000091552734,-7.666999816894531,0.2349999994039535,-9.60099983215332,0.4580000042915344
1622112109117,-0.0700000002980232,-8.479999542236328,-7.5370001792907715,0.2349999994039535,-9.652999877929688,0.5289999842643737
1622112109127,0.8399999737739563,-8.333999633789062,-7.156000137329102,0.1959999948740005,-9.65999984741211,0.5669999718666076
1622112109137,1.3300000429153442,-8.26099967956543,-6.361000061035156,0.1959999948740005,-9.666000366210936,0.606000006198883
1622112109147,2.0999999046325684,-7.734000205993653,-6.125999927520752,0.1959999948740005,-9.666000366210936,0.606000006198883
1622112109157,2.7300000190734863,-7.473999977111816,-5.583000183105469,0.2349999994039535,-9.711999893188477,0.6380000114440918
1622112109167,2.869999885559082,-7.258999824523927,-5.189000129699707,0.2750000059604644,-9.75699996948242,0.6690000295639038
1622112109177,2.5899999141693115,-6.9019999504089355,-5.197999954223633,0.2750000059604644,-9.835000038146973,0.656000018119812
1622112109187,2.1700000762939453,-7.193999767303467,-4.750999927520752,0.2349999994039535,-9.840999603271484,0.6940000057220459
1622112109197,1.9600000381469729,-7.413000106811523,-4.718999862670898,0.1959999948740005,-9.835000038146973,0.656000018119812
1622112109207,1.7850000858306885,-7.378499984741211,-4.7129998207092285,0.1959999948740005,-9.840999603271484,0.6940000057220459
1622112109217,1.6100000143051147,-7.343999862670899,-4.706999778747559,0.1959999948740005,-9.803000450134276,0.7009999752044677
1622112109227,1.2599999904632568,-7.296000003814697,-4.982999801635742,0.1570000052452087,-9.75100040435791,0.6309999823570251
1622112109237,0.8399999737739563,-7.376999855041504,-4.926000118255615,0.1570000052452087,-9.79599952697754,0.6629999876022338
1622112109247,0.4900000095367431,-7.343999862670899,-4.706999778747559,0.1570000052452087,-9.82800006866455,0.6169999837875366
1622112109257,0.209999993443489,-7.10099983215332,-4.876999855041504,0.1959999948740005,-9.821000099182127,0.5789999961853027
1622112109267,0.0700000002980232,-7.320000171661377,-4.84499979019165,0.1570000052452087,-9.821000099182127,0.5789999961853027
1622112109277,-0.0700000002980232,-7.01200008392334,-4.577000141143799,0.1570000052452087,-9.781999588012695,0.5849999785423278
1622112109287,0.0700000002980232,-6.894000053405762,-4.841000080108643,0.1180000007152557,-9.744000434875488,0.5920000076293945
1622112109297,-0.0700000002980232,-6.73199987411499,-4.953999996185303,0.1570000052452087,-9.744000434875488,0.5920000076293945
1622112109307,0.0700000002980232,-6.651000022888184,-5.011000156402588,0.1959999948740005,-9.75100040435791,0.6309999823570251
1622112109317,0.6299999952316284,-6.739999771118164,-5.310999870300293,0.1959999948740005,-9.704999923706056,0.5989999771118164
1622112109327,0.6299999952316284,-7.0970001220703125,-5.302999973297119,0.1959999948740005,-9.744000434875488,0.5920000076293945
1622112109337,0.699999988079071,-7.416999816894531,-5.501999855041504,0.2349999994039535,-9.781999588012695,0.5849999785423278
1622112109347,0.6299999952316284,-7.830999851226807,-5.574999809265137,0.2349999994039535,-9.781999588012695,0.5849999785423278
1622112109357,0.4199999868869781,-8.008999824523926,-4.966000080108643,0.1959999948740005,-9.788999557495115,0.6240000128746032
1622112109367,-0.0700000002980232,-7.953000068664551,-4.885000228881836,0.2349999994039535,-9.835000038146973,0.656000018119812
1622112109377,-0.4900000095367431,-8.154999732971191,-5.3470001220703125,0.1959999948740005,-9.79599952697754,0.6629999876022338
1622112109387,-0.5950000286102294,-8.218000411987305,-5.394000053405762,0.1570000052452087,-9.82800006866455,0.6169999837875366
1622112109397,-0.699999988079071,-8.281000137329102,-5.440999984741211,0.1570000052452087,-9.835000038146973,0.656000018119812
1622112109407,-0.9800000190734864,-8.41100025177002,-5.107999801635742,0.1570000052452087,-9.840999603271484,0.6940000057220459
1622112109417,-1.75,-8.53600025177002,-5.201000213623047,0.1959999948740005,-9.803000450134276,0.7009999752044677
1622112109427,-2.1700000762939453,-8.503999710083008,-4.98199987411499,0.1959999948740005,-9.835000038146973,0.656000018119812
1622112109437,-2.7300000190734863,-8.585000038146973,-4.926000118255615,0.2349999994039535,-9.79599952697754,0.6629999876022338
1622112109447,-3.6400001049041744,-9.031000137329102,-5.2179999351501465,0.2349999994039535,-9.803000450134276,0.7009999752044677
1622112109457,-3.569999933242798,-9.538000106811523,-5.164999961853027,0.2349999994039535,-9.803000450134276,0.7009999752044677
1622112109467,-3.7799999713897705,-9.930999755859377,-4.949999809265137,0.1180000007152557,-9.803000450134276,0.7009999752044677
1622112109477,-4.130000114440918,-10.215000152587892,-5.355000019073486,0.1180000007152557,-9.803000450134276,0.7009999752044677
1622112109487,-4.199999809265137,-10.020999908447266,-5.25,0.1180000007152557,-9.79599952697754,0.6629999876022338
1622112109497,-4.199999809265137,-9.711999893188477,-4.98199987411499,0.1180000007152557,-9.79599952697754,0.6629999876022338
1622112109507,-4.340000152587891,-9.480999946594238,-5.084000110626221,0.0780000016093254,-9.75699996948242,0.6690000295639038
1622112109517,-4.480000019073486,-9.218000411987305,-4.966000080108643,0.0780000016093254,-9.744000434875488,0.5920000076293945
1622112109527,-4.130000114440918,-8.743000030517578,-5.23799991607666,0.0780000016093254,-9.744000434875488,0.5920000076293945
1622112109537,-3.9200000762939458,-8.28499984741211,-5.014999866485596,0.0390000008046627,-9.737000465393066,0.5540000200271606
1622112109547,-3.849999904632568,-7.859000205993653,-5.011000156402588,0.0390000008046627,-9.697999954223633,0.5600000023841857
1622112109557,-3.7799999713897705,-7.822999954223632,-5.2179999351501465,0.0390000008046627,-9.729999542236328,0.5149999856948853
1622112109567,-3.7799999713897705,-7.0970001220703125,-5.302999973297119,0.0390000008046627,-9.737000465393066,0.5540000200271606
1622112109577,-3.7100000381469727,-6.821000099182129,-5.254499912261963,0.0390000008046627,-9.729999542236328,0.5149999856948853
1622112109587,-3.6400001049041744,-6.545000076293945,-5.205999851226807,0.0,-9.65999984741211,0.5669999718666076
1622112109597,-3.2200000286102295,-5.60099983215332,-5.322999954223633,0.0,-9.697999954223633,0.5600000023841857
1622112109607,-3.1500000953674316,-4.806000232696533,-5.396999835968018,0.0,-9.690999984741213,0.5220000147819519
1622112109617,-2.799999952316284,-3.8940000534057617,-5.732999801635742,0.0,-9.6850004196167,0.4830000102519989
1622112109627,-2.450000047683716,-3.2730000019073486,-5.624000072479248,0.0,-9.6850004196167,0.4830000102519989
1622112109637,-1.6799999475479126,-2.7780001163482666,-5.607999801635742,0.0,-9.690999984741213,0.5220000147819519
1622112109647,-1.3300000429153442,-2.365000009536743,-5.534999847412109,0.0,-9.678000450134276,0.4440000057220459
1622112109657,-1.190000057220459,-1.2460000514984133,-5.835000038146973,-0.0390000008046627,-9.722999572753906,0.4760000109672546
1622112109667,-1.0499999523162842,-0.7960000038146972,-5.968999862670898,0.0390000008046627,-9.729999542236328,0.5149999856948853
1622112109677,-0.9800000190734864,-0.492000013589859,-6.484000205993652,0.0,-9.697999954223633,0.5600000023841857
1622112109687,-0.7699999809265136,0.1089999973773956,-6.6620001792907715,0.0,-9.697999954223633,0.5600000023841857
1622112109697,-0.699999988079071,0.5339999794960022,-6.6579999923706055,0.0390000008046627,-9.697999954223633,0.5600000023841857
1622112109707,-0.8399999737739563,0.6399999856948853,-6.853000164031982,0.0390000008046627,-9.737000465393066,0.5540000200271606
1622112109716,-0.9100000262260436,0.6480000019073486,-6.495999813079834,0.0780000016093254,-9.737000465393066,0.5540000200271606
1622112109726,-0.699999988079071,0.5019999742507933,-6.876999855041504,0.0780000016093254,-9.744000434875488,0.5920000076293945
1622112109736,-0.699999988079071,0.7210000157356262,-6.909999847412109,0.1180000007152557,-9.75100040435791,0.6309999823570251
1622112109746,-0.6299999952316284,0.5830000042915344,-6.934000015258789,0.0780000016093254,-9.744000434875488,0.5920000076293945
1622112109756,-0.4549999833106994,0.5220000147819519,-7.19350004196167,0.0780000016093254,-9.744000434875488,0.5920000076293945
1622112109766,-0.2800000011920929,0.460999995470047,-7.453000068664551,0.0390000008046627,-9.737000465393066,0.5540000200271606
1622112109776,-0.3499999940395355,0.5339999794960022,-7.867000102996825,0.0780000016093254,-9.737000465393066,0.5540000200271606
1622112109786,-0.4199999868869781,0.3880000114440918,-8.248000144958496,0.0780000016093254,-9.776000022888184,0.5469999909400939
1622112109796,-0.6299999952316284,0.3759999871253967,-8.178999900817871,0.1180000007152557,-9.76900005340576,0.5080000162124633
1622112109806,-1.2599999904632568,0.2179999947547912,-8.491000175476074,0.1180000007152557,-9.729999542236328,0.5149999856948853
1622112109816,-1.2599999904632568,0.3109999895095825,-8.616999626159668,0.1180000007152557,-9.729999542236328,0.5149999856948853
1622112109826,-1.399999976158142,0.2259999960660934,-8.133999824523926,0.1180000007152557,-9.729999542236328,0.5149999856948853
1622112109836,-1.3300000429153442,0.0430000014603137,-8.309000015258789,0.1180000007152557,-9.729999542236328,0.5149999856948853
1622112109846,-1.3300000429153442,0.2750000059604644,-8.40999984741211,0.1570000052452087,-9.762000083923342,0.4690000116825103
1622112109856,-0.5600000023841857,0.3519999980926513,-8.041000366210938,0.1570000052452087,-9.729999542236328,0.5149999856948853
1622112109866,-0.3499999940395355,0.4079999923706054,-7.960000038146973,0.1570000052452087,-9.690999984741213,0.5220000147819519
1622112109876,0.0,0.1289999932050705,-7.583000183105469,0.1959999948740005,-9.697999954223633,0.5600000023841857
1622112109886,0.2800000011920929,-0.025000000372529,-7.111999988555908,0.1180000007152557,-9.690999984741213,0.5220000147819519
1622112109896,0.699999988079071,0.25,-7.064000129699707,0.1180000007152557,-9.690999984741213,0.5220000147819519
1622112109906,0.9800000190734864,0.4449999928474426,-6.958000183105469,0.0780000016093254,-9.652999877929688,0.5289999842643737
1622112109916,0.2800000011920929,1.159000039100647,-6.974999904632568,0.0780000016093254,-9.737000465393066,0.5540000200271606
1622112109926,0.7699999809265136,0.944000005722046,-7.368000030517577,0.0780000016093254,-9.737000465393066,0.5540000200271606
1622112109936,0.7699999809265136,0.9190000295639038,-7.230000019073486,0.0780000016093254,-9.737000465393066,0.5540000200271606
1622112109946,0.8049999475479126,1.0855000019073486,-7.164999961853027,0.0780000016093254,-9.704999923706056,0.5989999771118164
1622112109956,0.8399999737739563,1.2519999742507937,-7.099999904632568,0.0390000008046627,-9.711999893188477,0.6380000114440918
1622112109966,0.7699999809265136,1.4259999990463257,-7.282999992370605,0.0780000016093254,-9.704999923706056,0.5989999771118164
1622112109976,0.9800000190734864,1.5199999809265137,-7.4089999198913565,0.0390000008046627,-9.75100040435791,0.6309999823570251
1622112109986,0.9800000190734864,2.2699999809265137,-7.631999969482423,0.0390000008046627,-9.75699996948242,0.6690000295639038
1622112109996,1.4700000286102295,2.5369999408721924,-7.940000057220459,0.0390000008046627,-9.711999893188477,0.6380000114440918
1622112110006,1.399999976158142,2.809000015258789,-7.4660000801086435,0.0780000016093254,-9.711999893188477,0.6380000114440918
1622112110016,1.0499999523162842,2.934999942779541,-7.372000217437744,0.1180000007152557,-9.82800006866455,0.6169999837875366
1622112110026,0.9800000190734864,2.9590001106262207,-7.510000228881835,0.1180000007152557,-9.781999588012695,0.5849999785423278
1622112110036,0.9800000190734864,3.1329998970031734,-7.692999839782715,0.1180000007152557,-9.781999588012695,0.5849999785423278
1622112110046,0.6299999952316284,3.2019999027252197,-7.681000232696533,0.1570000052452087,-9.718999862670898,0.6759999990463256
1622112110056,0.0,3.4660000801086426,-7.563000202178955,0.1570000052452087,-9.75100040435791,0.6309999823570251
1622112110066,-0.209999993443489,3.197999954223633,-7.255000114440918,0.1180000007152557,-9.737000465393066,0.5540000200271606
1622112110076,-0.1400000005960464,3.0810000896453857,-6.991000175476074,0.1180000007152557,-9.744000434875488,0.5920000076293945
1622112110086,-0.4900000095367431,2.9549999237060547,-7.084000110626221,0.0780000016093254,-9.75699996948242,0.6690000295639038
1622112110096,-0.5600000023841857,3.128999948501587,-7.267000198364258,0.0780000016093254,-9.75699996948242,0.6690000295639038
1622112110106,-0.6299999952316284,3.3480000495910645,-7.298999786376954,0.0780000016093254,-9.75100040435791,0.6309999823570251
1622112110116,-0.9800000190734864,3.372999906539917,-7.436999797821045,0.0780000016093254,-9.79599952697754,0.6629999876022338
1622112110126,-0.9100000262260436,3.555000066757202,-7.263000011444091,0.0780000016093254,-9.835000038146973,0.656000018119812
1622112110136,-0.875,3.630000114440918,-7.285500049591064,0.0780000016093254,-9.788999557495115,0.6240000128746032
1622112110146,-0.8399999737739563,3.7049999237060542,-7.308000087738037,0.1180000007152557,-9.788999557495115,0.6240000128746032
1622112110156,-1.0499999523162842,3.900000095367432,-7.202000141143799,0.0780000016093254,-9.821000099182127,0.5789999961853027
1622112110166,-1.0499999523162842,4.188000202178955,-7.223000049591064,0.0780000016093254,-9.781999588012695,0.5849999785423278
1622112110176,-1.0499999523162842,4.622000217437744,-6.861999988555908,0.1180000007152557,-9.821000099182127,0.5789999961853027
1622112110186,-1.2599999904632568,4.771999835968018,-6.906000137329102,0.1180000007152557,-9.762000083923342,0.4690000116825103
1622112110196,-1.1200000047683716,4.747000217437744,-6.76800012588501,0.1180000007152557,-9.776000022888184,0.5469999909400939
1622112110206,-0.9100000262260436,5.202000141143799,-7.328000068664551,0.1570000052452087,-9.75100040435791,0.6309999823570251
1622112110216,-1.1200000047683716,4.946000099182129,-7.089000225067139,0.1570000052452087,-9.75100040435791,0.6309999823570251
1622112110226,-1.0499999523162842,4.96999979019165,-7.2270002365112305,0.1570000052452087,-9.744000434875488,0.5920000076293945
1622112110236,-1.1200000047683716,5.169000148773193,-7.546999931335449,0.1570000052452087,-9.744000434875488,0.5920000076293945
1622112110246,-1.1200000047683716,5.099999904632568,-7.559000015258789,0.1570000052452087,-9.697999954223633,0.5600000023841857
1622112110256,-1.3300000429153442,5.099999904632568,-7.559000015258789,0.1570000052452087,-9.729999542236328,0.5149999856948853
1622112110266,-1.2599999904632568,5.4079999923706055,-7.291999816894531,0.1570000052452087,-9.697999954223633,0.5600000023841857
1622112110276,-1.1200000047683716,5.307000160217285,-7.5229997634887695,0.1180000007152557,-9.737000465393066,0.5540000200271606
1622112110286,-0.9100000262260436,5.2179999351501465,-7.822999954223632,0.1570000052452087,-9.697999954223633,0.5600000023841857
1622112110296,-0.8399999737739563,5.310999870300293,-7.948999881744384,0.1570000052452087,-9.697999954223633,0.5600000023841857
1622112110306,-0.6299999952316284,5.4120001792907715,-7.717000007629395,0.1180000007152557,-9.690999984741213,0.5220000147819519
1622112110316,-0.7699999809265136,5.4770002365112305,-7.27899980545044,0.1180000007152557,-9.729999542236328,0.5149999856948853
1622112110326,-0.699999988079071,5.729000091552734,-7.0929999351501465,0.1570000052452087,-9.737000465393066,0.5540000200271606
1622112110336,-0.875,5.447000026702881,-7.10699987411499,0.1570000052452087,-9.711999893188477,0.6380000114440918
1622112110346,-1.0499999523162842,5.164999961853027,-7.120999813079834,0.1959999948740005,-9.737000465393066,0.5540000200271606
1622112110356,-0.9100000262260436,5.169000148773193,-7.546999931335449,0.2349999994039535,-9.79599952697754,0.6629999876022338
1622112110366,-0.7699999809265136,4.918000221252441,-7.734000205993653,0.1959999948740005,-9.781999588012695,0.5849999785423278
1622112110376,-0.7699999809265136,4.861000061035156,-7.815000057220459,0.1959999948740005,-9.776000022888184,0.5469999909400939
1622112110386,-0.3499999940395355,4.755000114440918,-7.619999885559082,0.1959999948740005,-9.729999542236328,0.5149999856948853
1622112110396,-0.7699999809265136,4.828999996185303,-6.824999809265137,0.1959999948740005,-9.737000465393066,0.5540000200271606
1622112110406,-0.8399999737739563,4.146999835968018,-6.590000152587891,0.1570000052452087,-9.744000434875488,0.5920000076293945
1622112110416,-0.7699999809265136,4.103000164031982,-6.739999771118164,0.1570000052452087,-9.697999954223633,0.5600000023841857
1622112110426,-0.8399999737739563,4.058000087738037,-6.889999866485596,0.1180000007152557,-9.744000434875488,0.5920000076293945
1622112110436,-0.7699999809265136,4.046000003814697,-6.821000099182129,0.0780000016093254,-9.704999923706056,0.5989999771118164
1622112110446,-0.5600000023841857,4.301000118255615,-7.059999942779541,0.1570000052452087,-9.704999923706056,0.5989999771118164
1622112110456,-0.6299999952316284,4.081999778747559,-7.0279998779296875,0.1570000052452087,-9.704999923706056,0.5989999771118164
1622112110466,-0.6299999952316284,4.264999866485596,-6.854000091552734,0.1570000052452087,-9.737000465393066,0.5540000200271606
1622112110476,-0.7699999809265136,4.184000015258789,-6.796999931335449,0.1180000007152557,-9.737000465393066,0.5540000200271606
1622112110486,-1.0499999523162842,4.357999801635742,-6.979000091552734,0.1180000007152557,-9.776000022888184,0.5469999909400939
1622112110496,-1.2599999904632568,4.715000152587891,-6.986999988555908,0.0780000016093254,-9.737000465393066,0.5540000200271606
1622112110506,-1.0499999523162842,4.811999797821045,-7.539000034332275,0.0780000016093254,-9.704999923706056,0.5989999771118164
1622112110516,-0.9100000262260436,4.938000202178955,-7.44600009918213,0.0780000016093254,-9.744000434875488,0.5920000076293945
1622112110526,-1.190000057220459,5.202000141143799,-7.328000068664551,0.1180000007152557,-9.788999557495115,0.6240000128746032
1622112110536,-1.4700000286102295,5.064000129699707,-7.3520002365112305,0.1570000052452087,-9.781999588012695,0.5849999785423278
1622112110546,-1.3300000429153442,5.060000419616699,-7.530500411987304,0.1180000007152557,-9.781999588012695,0.5849999785423278
1622112110556,-1.190000057220459,5.056000232696533,-7.709000110626221,0.1570000052452087,-9.744000434875488,0.5920000076293945
1622112110566,-0.9100000262260436,5.598999977111816,-7.968999862670899,0.1180000007152557,-9.744000434875488,0.5920000076293945
1622112110576,-0.9800000190734864,5.861999988555908,-7.85099983215332,0.1570000052452087,-9.697999954223633,0.5600000023841857
1622112110586,-1.0499999523162842,5.749000072479248,-8.012999534606934,0.1570000052452087,-9.744000434875488,0.5920000076293945
1622112110596,-1.1200000047683716,5.708000183105469,-7.381000041961671,0.1570000052452087,-9.737000465393066,0.5540000200271606
1622112110606,-0.4900000095367431,5.6479997634887695,-7.035999774932861,0.1570000052452087,-9.704999923706056,0.5989999771118164
1622112110616,-0.209999993443489,5.521999835968018,-7.129000186920166,0.1959999948740005,-9.704999923706056,0.5989999771118164
1622112110626,-0.5600000023841857,5.533999919891357,-7.197999954223633,0.2349999994039535,-9.704999923706056,0.5989999771118164
1622112110636,-0.2800000011920929,5.468999862670898,-7.636000156402587,0.1959999948740005,-9.704999923706056,0.5989999771118164
1622112110646,0.209999993443489,5.4120001792907715,-7.717000007629395,0.1570000052452087,-9.704999923706056,0.5989999771118164
1622112110656,0.2800000011920929,5.3429999351501465,-7.730000019073486,0.1959999948740005,-9.697999954223633,0.5600000023841857
1622112110666,0.2800000011920929,5.9070000648498535,-7.701000213623046,0.1570000052452087,-9.690999984741213,0.5220000147819519
1622112110676,0.1400000005960464,5.814000129699707,-7.576000213623046,0.1570000052452087,-9.729999542236328,0.5149999856948853
1622112110686,0.0700000002980232,5.927000045776367,-7.413000106811523,0.1570000052452087,-9.744000434875488,0.5920000076293945
1622112110696,0.2800000011920929,6.190999984741211,-7.296000003814697,0.1570000052452087,-9.744000434875488,0.5920000076293945
1622112110706,0.209999993443489,6.677999973297119,-7.636000156402587,0.1570000052452087,-9.75100040435791,0.6309999823570251
1622112110716,0.0,6.928999900817871,-7.449999809265136,0.1570000052452087,-9.781999588012695,0.5849999785423278
1622112110726,-0.2800000011920929,7.168000221252441,-7.195000171661377,0.1180000007152557,-9.744000434875488,0.5920000076293945
1622112110736,-0.4199999868869781,7.423999786376954,-7.434000015258789,0.1570000052452087,-9.75100040435791,0.6309999823570251
1622112110746,-0.0700000002980232,7.329999923706055,-7.308000087738037,0.1570000052452087,-9.704999923706056,0.5989999771118164
1622112110756,-0.4199999868869781,7.355000019073486,-7.44600009918213,0.1570000052452087,-9.711999893188477,0.6380000114440918
1622112110766,-0.4549999833106994,7.2860002517700195,-7.458000183105469,0.1180000007152557,-9.711999893188477,0.6380000114440918
1622112110776,-0.4900000095367431,7.217000007629395,-7.469999790191651,0.1570000052452087,-9.718999862670898,0.6759999990463256
1622112110786,0.209999993443489,7.103000164031982,-7.631999969482423,0.1570000052452087,-9.711999893188477,0.6380000114440918
1622112110796,0.7699999809265136,6.770999908447266,-7.762000083923339,0.1180000007152557,-9.75100040435791,0.6309999823570251
1622112110806,0.4900000095367431,6.690000057220459,-7.704999923706055,0.1570000052452087,-9.744000434875488,0.5920000076293945
1622112110816,0.5600000023841857,7.038000106811523,-8.069999694824219,0.0780000016093254,-9.744000434875488,0.5920000076293945
1622112110826,0.8399999737739563,6.936999797821045,-8.302000045776367,0.0780000016093254,-9.744000434875488,0.5920000076293945
1622112110836,0.9100000262260436,7.204999923706055,-8.609999656677246,0.1180000007152557,-9.744000434875488,0.5920000076293945
1622112110846,1.0499999523162842,7.552999973297118,-8.975000381469727,0.0780000016093254,-9.781999588012695,0.5849999785423278
1622112110856,0.9100000262260436,7.618000030517577,-8.536999702453613,0.1180000007152557,-9.776000022888184,0.5469999909400939
1622112110866,0.6299999952316284,7.974999904632568,-8.545000076293945,0.0780000016093254,-9.744000434875488,0.5920000076293945
1622112110876,0.4900000095367431,8.274999618530273,-8.633999824523926,0.0780000016093254,-9.737000465393066,0.5540000200271606
1622112110886,0.5600000023841857,8.529999732971191,-8.87399959564209,0.1570000052452087,-9.744000434875488,0.5920000076293945
1622112110896,1.190000057220459,8.835000038146973,-9.388999938964846,0.1180000007152557,-9.711999893188477,0.6380000114440918
1622112110906,1.399999976158142,9.354000091552734,-9.510000228881836,0.2750000059604644,-9.75699996948242,0.6690000295639038
1622112110916,1.5399999618530271,9.637000083923342,-9.104999542236328,0.1959999948740005,-9.763999938964846,0.7080000042915344
1622112110926,1.5399999618530271,9.645999908447264,-8.748000144958496,0.1959999948740005,-9.79599952697754,0.6629999876022338
1622112110936,1.399999976158142,9.263999938964846,-8.60200023651123,0.1959999948740005,-9.67300033569336,0.6439999938011169
1622112110946,1.75,9.29300022125244,-9.166000366210936,0.1959999948740005,-9.666000366210936,0.606000006198883
1622112110956,2.1700000762939453,9.005000114440918,-9.145000457763674,0.1959999948740005,-9.711999893188477,0.6380000114440918
1622112110966,1.9600000381469729,9.053000450134276,-9.42099952697754,0.1959999948740005,-9.718999862670898,0.6759999990463256
1622112110976,1.8899999856948853,9.12600040435791,-9.835000038146973,0.1570000052452087,-9.718999862670898,0.6759999990463256
1622112110986,1.75,9.08199977874756,-9.984999656677246,0.1570000052452087,-9.711999893188477,0.6380000114440918
1622112110996,1.6799999475479126,8.968000411987305,-10.147000312805176,0.1570000052452087,-9.75100040435791,0.6309999823570251
1622112111006,1.6449999809265137,9.284500122070312,-10.126500129699709,0.1180000007152557,-9.718999862670898,0.6759999990463256
1622112111016,1.6100000143051147,9.60099983215332,-10.105999946594238,0.1180000007152557,-9.75699996948242,0.6690000295639038
1622112111026,1.6799999475479126,9.977999687194824,-9.82699966430664,0.1180000007152557,-9.75699996948242,0.6690000295639038
1622112111036,1.5399999618530271,10.32699966430664,-10.19200038909912,0.0780000016093254,-9.75699996948242,0.6690000295639038
1622112111046,1.8200000524520872,10.833999633789064,-10.244000434875488,0.0780000016093254,-9.75100040435791,0.6309999823570251
1622112111056,2.1700000762939453,11.170000076293944,-10.539999961853027,0.1180000007152557,-9.718999862670898,0.6759999990463256
1622112111066,2.1700000762939453,11.73799991607666,-10.937999725341797,0.0780000016093254,-9.718999862670898,0.6759999990463256
1622112111076,2.450000047683716,12.381999969482422,-10.965999603271484,0.1180000007152557,-9.725000381469728,0.7149999737739563
1622112111086,2.7300000190734863,12.649999618530272,-11.274999618530272,0.1180000007152557,-9.725000381469728,0.7149999737739563
1622112111096,2.869999885559082,13.1850004196167,-11.890999794006348,0.1570000052452087,-9.711999893188477,0.6380000114440918
1622112111106,2.450000047683716,13.428000450134276,-12.060999870300291,0.1570000052452087,-9.75699996948242,0.6690000295639038
1622112111116,2.5199999809265137,14.097999572753906,-12.227999687194824,0.1570000052452087,-9.75699996948242,0.6690000295639038
1622112111126,2.450000047683716,14.49899959564209,-12.086000442504885,0.1959999948740005,-9.75699996948242,0.6690000295639038
1622112111136,2.309999942779541,14.625,-11.993000030517578,0.1959999948740005,-9.763999938964846,0.7080000042915344
1622112111146,2.0999999046325684,14.656999588012695,-11.77400016784668,0.2349999994039535,-9.8100004196167,0.740000009536743
1622112111156,1.8899999856948853,15.225000381469728,-12.17099952697754,0.2750000059604644,-9.763999938964846,0.7080000042915344
1622112111166,2.0999999046325684,15.61400032043457,-11.960000038146973,0.2750000059604644,-9.75699996948242,0.6690000295639038
1622112111176,2.309999942779541,16.027999877929688,-11.88700008392334,0.2750000059604644,-9.718999862670898,0.6759999990463256
1622112111186,2.309999942779541,16.34000015258789,-12.04599952697754,0.2750000059604644,-9.763999938964846,0.7080000042915344
1622112111196,2.1700000762939453,16.604000091552734,-11.928000450134276,0.3140000104904174,-9.763999938964846,0.7080000042915344
1622112111206,2.309999942779541,16.639999389648438,-12.135000228881836,0.2750000059604644,-9.718999862670898,0.6759999990463256
1622112111216,2.0999999046325684,16.72100067138672,-12.19200038909912,0.2750000059604644,-9.725000381469728,0.7149999737739563
