timestamp,gyro_x,gyro_y,gyro_z,acc_x,acc_y,acc_z
1621849821178,0.0,0.0,0.0,0.0,0.0,0.0
1621849821187,-3.3949999809265137,29.068500518798828,-10.86750030517578,-2.197000026702881,-9.994000434875488,0.4289999902248382
1621849821197,-6.789999961853027,58.137001037597656,-21.73500061035156,-2.3540000915527344,-10.116000175476074,0.4469999969005584
1621849821207,-9.869999885559082,68.75700378417969,-22.704999923706055,-2.549999952316284,-10.161999702453612,0.4790000021457672
1621849821217,-12.739999771118164,80.53299713134764,-24.183000564575195,-2.8239998817443848,-10.175000190734863,0.5559999942779541
1621849821227,-16.030000686645508,92.822998046875,-25.35700035095215,-3.0199999809265137,-10.163999557495115,0.7170000076293945
1621849821237,-19.530000686645508,107.27899932861328,-26.71699905395508,-3.2170000076293945,-10.107000350952148,0.847000002861023
1621849821247,-23.100000381469727,123.5719985961914,-28.81999969482422,-3.2170000076293945,-10.036999702453612,0.8989999890327453
1621849821257,-26.670000076293945,141.0399932861328,-31.142000198364254,-3.059999942779541,-9.812000274658203,0.977999985218048
1621849821267,-29.75,157.81500244140625,-34.36800003051758,-2.7850000858306885,-9.593999862670898,1.0970000028610227
1621849821277,-31.219999313354492,173.23599243164062,-36.76599884033203,-2.431999921798706,-9.387000083923342,1.0529999732971191
1621849821287,-31.780000686645508,186.31300354003903,-38.369998931884766,-1.9220000505447388,-9.201000213623049,1.1260000467300415
1621849821297,-31.219999313354492,195.9600067138672,-39.86800003051758,-1.4119999408721924,-9.116000175476074,1.10099995136261
1621849821307,-30.030000686645508,201.8679962158203,-42.73500061035156,-0.9020000100135804,-9.102999687194824,1.02400004863739
1621849821317,-26.38999938964844,204.3769989013672,-45.27799987792969,-0.3919999897480011,-9.064000129699709,1.031000018119812
1621849821327,-21.420000076293945,204.8520050048828,-46.757999420166016,0.0780000016093254,-8.888999938964844,0.9419999718666076
1621849821337,-15.470000267028809,202.4750061035156,-48.5989990234375,0.5879999995231628,-8.946000099182129,0.8119999766349792
1621849821347,-9.65999984741211,197.77099609375,-48.930999755859375,1.0590000152587893,-9.13199996948242,0.740000009536743
1621849821357,-5.179999828338623,191.32000732421875,-47.012001037597656,1.3730000257492063,-9.30500030517578,0.5899999737739563
1621849821367,-0.6299999952316284,183.81500244140625,-45.5629997253418,1.6080000400543213,-9.593999862670898,0.4189999997615814
1621849821377,3.359999895095825,175.3560028076172,-45.5620002746582,1.8040000200271609,-9.991000175476074,0.1899999976158142
1621849821387,6.300000190734863,166.406005859375,-46.00299835205078,2.0399999618530273,-10.300000190734863,0.1360000073909759
1621849821397,7.525000095367432,162.01849365234375,-45.71049880981445,2.1570000648498535,-10.494000434875488,0.101000003516674
1621849821407,8.75,157.63099670410156,-45.417999267578125,2.197000026702881,-10.524999618530272,0.0560000017285346
1621849821417,10.710000038146973,148.52000427246094,-44.5359992980957,2.2750000953674316,-10.51200008392334,-0.0209999997168779
1621849821427,10.779999732971191,138.6750030517578,-42.71799850463867,2.2750000953674316,-10.477999687194824,-0.2140000015497207
1621849821437,8.960000038146973,128.27000427246094,-38.9379997253418,2.2750000953674316,-10.425999641418455,-0.2849999964237213
1621849821447,6.159999847412109,117.46399688720705,-34.09000015258789,2.1570000648498535,-10.303000450134276,-0.3030000030994415
1621849821457,2.799999952316284,107.17299652099608,-31.356000900268555,2.0399999618530273,-10.064000129699709,-0.3009999990463256
1621849821467,-0.209999993443489,98.16699981689452,-30.66900062561035,1.8830000162124632,-9.857000350952148,-0.3440000116825103
1621849821477,-2.5899999141693115,90.1500015258789,-29.951000213623047,1.7649999856948853,-9.541999816894531,-0.328000009059906
1621849821487,-4.130000114440918,83.8290023803711,-28.36400032043457,1.6480000019073486,-9.218999862670898,-0.3510000109672546
1621849821497,-4.690000057220459,78.67900085449219,-26.570999145507812,1.4509999752044678,-8.987000465393066,-0.3100000023841857
1621849821507,-3.9200000762939458,74.71800231933594,-25.06599998474121,1.3339999914169312,-8.833000183105469,-0.2829999923706054
1621849821517,-3.359999895095825,70.88999938964844,-23.111000061035156,1.2940000295639038,-8.645999908447266,-0.209999993443489
1621849821527,-2.240000009536743,67.8740005493164,-20.516000747680664,1.2549999952316284,-8.569000244140625,-0.1959999948740005
1621849821537,0.1400000005960464,64.86100006103516,-18.34600067138672,1.215999960899353,-8.52400016784668,-0.2280000001192092
1621849821547,2.0299999713897705,62.01100158691406,-16.288999557495117,1.1770000457763672,-8.536999702453613,-0.1509999930858612
1621849821557,3.569999933242798,59.49700164794922,-13.321000099182127,1.1770000457763672,-8.550999641418457,-0.0740000009536743
1621849821567,5.179999828338623,57.33599853515625,-9.9350004196167,1.1380000114440918,-8.635000228881836,-0.0489999987185001
1621849821577,6.369999885559082,54.810001373291016,-6.896999835968018,1.0590000152587893,-8.795999526977539,-0.0370000004768371
1621849821587,7.280000209808349,52.92100143432618,-4.244999885559082,1.0199999809265137,-8.951000213623047,-0.0649999976158142
1621849821597,7.560000419616699,51.65999984741211,-2.938999891281128,0.981000006198883,-9.112000465393066,-0.0529999993741512
1621849821607,7.8400001525878915,50.39899826049805,-1.6330000162124634,0.9020000100135804,-9.196000099182127,-0.0280000008642673
1621849821617,8.539999961853027,48.29499816894531,0.6259999871253967,0.8240000009536743,-9.312000274658203,-0.0489999987185001
1621849821627,9.3100004196167,45.89099884033203,1.7660000324249268,0.7850000262260437,-9.402999877929688,0.0149999996647238
1621849821637,9.869999885559082,43.37699890136719,2.316999912261963,0.7059999704360961,-9.487000465393066,0.0399999991059303
1621849821647,10.920000076293944,41.320999145507805,1.883999943733215,0.6669999957084655,-9.538999557495115,0.1099999994039535
1621849821657,11.970000267028809,39.564998626708984,1.3609999418258667,0.5490000247955322,-9.623000144958496,0.135000005364418
1621849821667,12.600000381469728,37.7400016784668,0.8259999752044677,0.4709999859333038,-9.70699977874756,0.1599999964237213
1621849821677,13.369999885559082,36.66899871826172,-0.3580000102519989,0.4309999942779541,-9.869000434875488,0.1720000058412551
1621849821687,13.720000267028809,36.0,-2.6080000400543213,0.3919999897480011,-10.036999702453612,0.2220000028610229
1621849821697,12.8100004196167,35.34299850463867,-4.927999973297119,0.3529999852180481,-10.197999954223633,0.2329999953508377
1621849821707,11.760000228881836,35.525001525878906,-7.170000076293945,0.3140000104904174,-10.328000068664553,0.2899999916553497
1621849821717,9.800000190734863,35.89400100708008,-8.456000328063965,0.3140000104904174,-10.373000144958496,0.3219999969005584
1621849821727,7.210000038146973,36.554000854492195,-8.979000091552734,0.3140000104904174,-10.411999702453612,0.3149999976158142
1621849821737,4.130000114440918,36.78200149536133,-8.654000282287598,0.3140000104904174,-10.366000175476074,0.2829999923706054
1621849821747,1.0499999523162842,36.875,-7.572000026702882,0.3140000104904174,-10.244000434875488,0.2649999856948852
1621849821757,-2.0999999046325684,37.369998931884766,-6.3470001220703125,0.2750000059604644,-10.095999717712402,0.3310000002384185
1621849821767,-4.619999885559082,37.89300155639648,-5.685999870300293,0.2750000059604644,-10.01200008392334,0.3059999942779541
1621849821777,-6.860000133514404,38.70399856567382,-6.254000186920166,0.3140000104904174,-9.812000274658203,0.3009999990463256
1621849821787,-7.8400001525878915,39.15999984741211,-7.631000518798829,0.3140000104904174,-9.682000160217283,0.2440000027418136
1621849821797,-8.819999694824219,39.61600112915039,-9.008000373840332,0.4309999942779541,-9.630000114440918,0.1739999949932098
1621849821807,-9.869999885559082,41.529998779296875,-11.79800033569336,0.5490000247955322,-9.654999732971191,0.0900000035762786
1621849821817,-9.65999984741211,42.36100006103515,-12.078000068664553,0.7059999704360961,-9.72599983215332,0.0379999987781047
1621849821827,-9.65999984741211,42.125999450683594,-9.133999824523924,0.7059999704360961,-9.718999862670898,-0.0010000000474974
1621849821837,-9.65999984741211,40.983001708984375,-5.070000171661377,0.7059999704360961,-9.652999877929688,-0.1490000039339065
1621849821847,-8.960000038146973,38.84299850463867,-1.3960000276565552,0.7450000047683715,-9.638999938964846,-0.2259999960660934
1621849821857,-8.470000267028809,36.16699981689453,1.6859999895095823,0.6669999957084655,-9.755000114440918,-0.2460000067949295
1621849821867,-8.75,33.775001525878906,3.964999914169311,0.6280000209808348,-9.772999763488768,-0.3689999878406524
1621849821877,-8.890000343322754,31.5,4.771999835968018,0.5879999995231628,-9.772999763488768,-0.3689999878406524
1621849821887,-8.680000305175781,30.128999710083008,3.677999973297119,0.5879999995231628,-9.791999816894531,-0.492000013589859
1621849821897,-9.380000114440918,28.843000411987305,2.1010000705718994,0.6280000209808348,-9.78499984741211,-0.5299999713897705
1621849821907,-9.800000190734863,27.266000747680664,-0.238999992609024,0.5490000247955322,-9.732000350952148,-0.6010000109672546
1621849821917,-9.59000015258789,26.003999710083008,-1.9539999961853027,0.5099999904632568,-9.687000274658203,-0.6330000162124633
1621849821927,-8.960000038146973,25.72800064086914,-3.2109999656677246,0.4709999859333038,-9.72599983215332,-0.6389999985694885
1621849821937,-8.470000267028809,24.92200088500977,-3.069000005722046,0.3919999897480011,-9.758000373840332,-0.6850000023841857
1621849821947,-7.420000076293945,24.20400047302246,-2.627000093460083,0.2750000059604644,-9.711999893188477,-0.7170000076293945
1621849821957,-6.369999885559082,23.88400077819824,-2.825999975204468,0.1959999948740005,-9.704999923706056,-0.7549999952316284
1621849821967,-5.179999828338623,23.73699951171875,-3.2070000171661377,0.1180000007152557,-9.628000259399414,-0.7419999837875366
1621849821977,-4.899999618530273,23.566999435424805,-3.450000047683716,0.0,-9.635000228881836,-0.703000009059906
1621849821987,-4.619999885559082,23.39699935913086,-3.6930000782012935,-0.0780000016093254,-9.67300033569336,-0.7099999785423278
1621849821997,-3.849999904632568,23.594999313354492,-4.013999938964844,-0.1570000052452087,-9.718999862670898,-0.6779999732971191
1621849822007,-3.6400001049041744,23.61599922180176,-4.934000015258789,-0.1959999948740005,-9.758000373840332,-0.6850000023841857
1621849822017,-2.869999885559082,23.437000274658203,-5.533999919891357,-0.1959999948740005,-9.803000450134276,-0.652999997138977
1621849822027,-2.309999942779541,23.36000061035156,-5.9029998779296875,-0.1959999948740005,-9.777999877929688,-0.5690000057220459
1621849822037,-1.6799999475479126,22.406999588012695,-6.142000198364258,-0.2349999994039535,-9.822999954223633,-0.537000000476837
1621849822047,-0.7699999809265136,21.90800094604492,-6.940999984741211,-0.2349999994039535,-9.869000434875488,-0.5049999952316284
1621849822057,0.3499999940395355,21.29599952697754,-7.901999950408936,-0.2750000059604644,-9.88199996948242,-0.4280000030994415
1621849822067,1.190000057220459,20.659000396728516,-8.725000381469727,-0.3140000104904174,-9.85099983215332,-0.3829999864101409
1621849822077,2.0299999713897705,20.683000564575195,-8.86299991607666,-0.3529999852180481,-9.895999908447264,-0.3510000109672546
1621849822087,2.799999952316284,21.34000015258789,-8.960000038146973,-0.3919999897480011,-9.857000350952148,-0.3440000116825103
1621849822097,3.2200000286102295,21.510000228881836,-9.925999641418455,-0.4309999942779541,-9.857000350952148,-0.3440000116825103
1621849822107,3.1500000953674316,21.81800079345703,-10.866000175476074,-0.4309999942779541,-9.895999908447264,-0.3510000109672546
1621849822117,2.6600000858306885,22.499000549316406,-12.3100004196167,-0.3919999897480011,-9.857000350952148,-0.3440000116825103
1621849822127,2.240000009536743,23.086999893188477,-13.628000259399414,-0.3529999852180481,-9.826000213623049,-0.2989999949932098
1621849822137,1.6100000143051147,23.64299964904785,-15.164999961853027,-0.2750000059604644,-9.748000144958496,-0.2849999964237213
1621849822147,1.1200000047683716,23.520999908447266,-15.684000015258787,-0.1570000052452087,-9.779999732971191,-0.3300000131130218
1621849822157,0.3499999940395355,23.55699920654297,-15.890999794006348,-0.0780000016093254,-9.819000244140623,-0.3370000123977661
1621849822167,-1.1200000047683716,23.111000061035156,-16.183000564575195,0.0,-9.85099983215332,-0.3829999864101409
1621849822177,-1.7850000858306885,23.343999862670895,-16.49700164794922,0.0,-9.92099952697754,-0.4350000023841857
1621849822187,-2.450000047683716,23.57699966430664,-16.81100082397461,-0.0390000008046627,-9.87600040435791,-0.4670000076293945
1621849822197,-4.269999980926514,24.41699981689453,-16.733999252319336,0.0,-9.862000465393066,-0.5440000295639038
1621849822207,-6.579999923706055,26.229000091552734,-16.1299991607666,0.0390000008046627,-9.887000083923342,-0.6280000209808348
1621849822217,-8.890000343322754,28.2450008392334,-15.064000129699709,0.0780000016093254,-9.880000114440918,-0.6669999957084655
1621849822227,-10.43000030517578,30.118999481201172,-13.597000122070312,0.1180000007152557,-9.79599952697754,-0.6919999718666076
1621849822237,-10.56999969482422,31.266000747680664,-12.043999671936035,0.1570000052452087,-9.67300033569336,-0.7099999785423278
1621849822247,-9.869999885559082,31.590999603271484,-9.854000091552734,0.2750000059604644,-9.522999763488768,-0.8830000162124633
1621849822257,-8.680000305175781,31.676000595092773,-7.920000076293945,0.3140000104904174,-9.413999557495115,-0.8240000009536743
1621849822267,-6.579999923706055,31.49799919128418,-6.103000164031982,0.3140000104904174,-9.336999893188477,-0.8100000023841857
1621849822277,-4.480000019073486,30.94700050354004,-4.992000102996826,0.3529999852180481,-9.267000198364256,-0.7580000162124633
1621849822287,-2.6600000858306885,29.86000061035156,-4.4730000495910645,0.3919999897480011,-9.267000198364256,-0.7580000162124633
1621849822297,-0.8399999737739563,28.858999252319336,-4.435999870300293,0.4309999942779541,-9.383000373840332,-0.777999997138977
1621849822307,0.9100000262260436,27.268999099731445,-4.289999961853027,0.3919999897480011,-9.467000007629396,-0.7530000209808348
1621849822317,1.8899999856948853,26.22699928283691,-3.6210000514984126,0.4709999859333038,-9.621000289916992,-0.7799999713897705
1621849822327,2.6600000858306885,24.808000564575195,-3.2309999465942383,0.5490000247955322,-9.75100040435791,-0.7239999771118164
1621849822337,2.869999885559082,22.975000381469727,-1.7059999704360962,0.5490000247955322,-9.904999732971191,-0.7509999871253967
1621849822347,3.0799999237060547,21.263999938964844,-0.8709999918937683,0.6280000209808348,-10.097999572753906,-0.7850000262260437
1621849822357,2.5199999809265137,19.187999725341797,-0.3840000033378601,0.7450000047683715,-10.406999588012695,-0.8389999866485595
1621849822367,2.0299999713897705,18.478500366210938,-0.1889999955892562,0.8629999756813049,-10.916000366210938,-0.8889999985694885
1621849822377,1.5399999618530271,17.768999099731445,0.006000000052154,0.9409999847412108,-11.116000175476074,-0.8849999904632568
1621849822387,0.3499999940395355,16.84000015258789,-0.3709999918937683,0.9409999847412108,-10.68000030517578,-0.6480000019073486
1621849822397,0.209999993443489,16.312999725341797,-1.815000057220459,1.1770000457763672,-10.326000213623049,-0.6259999871253967
1621849822407,0.699999988079071,16.07699966430664,-4.913000106811523,1.2940000295639038,-10.107000350952148,-0.5080000162124633
1621849822417,-0.9800000190734864,16.23200035095215,-4.175000190734863,1.4119999408721924,-10.01200008392334,-0.3709999918937683
1621849822427,-3.2200000286102295,16.219999313354492,-0.481000006198883,1.4119999408721924,-9.94200038909912,-0.3190000057220459
1621849822437,-4.269999980926514,16.36199951171875,0.3260000050067901,1.5299999713897705,-9.762000083923342,-0.2080000042915344
1621849822447,-3.0799999237060547,16.47100067138672,-1.503000020980835,1.6080000400543213,-9.536999702453612,-0.1280000060796737
1621849822457,-0.6299999952316284,16.804000854492188,-2.5810000896453857,1.6480000019073486,-9.42099952697754,-0.1080000028014183
1621849822467,2.0299999713897705,18.190000534057617,-3.190000057220459,1.687000036239624,-9.45300006866455,-0.152999997138977
1621849822477,4.130000114440918,19.95400047302246,-3.5179998874664307,1.8040000200271609,-9.562000274658203,-0.2119999974966049
1621849822487,6.159999847412109,21.43400001525879,-4.252999782562256,1.9609999656677248,-9.645999908447264,-0.1870000064373016
1621849822497,8.399999618530273,23.871000289916992,-5.172999858856201,2.000999927520752,-9.652999877929688,-0.1490000039339065
1621849822507,10.710000038146973,25.934999465942383,-5.591000080108643,2.0399999618530273,-9.61400032043457,-0.1420000046491622
1621849822517,12.949999809265137,27.075000762939453,-4.394999980926514,2.118000030517578,-9.607000350952148,-0.1800000071525573
1621849822527,15.1899995803833,28.385000228881836,-1.7480000257492063,2.0789999961853027,-9.58199977874756,-0.096000000834465
1621849822537,17.850000381469727,28.968999862670895,0.9850000143051147,2.0399999618530273,-9.4350004196167,-0.0299999993294477
1621849822547,20.93000030517578,28.957000732421875,3.4709999561309814,1.9609999656677248,-9.229999542236328,0.1650000065565109
1621849822557,24.5,28.909000396728516,6.164000034332275,1.9220000505447388,-9.057000160217283,0.3149999976158142
1621849822567,25.864999771118164,28.947500228881836,7.556500434875488,1.8040000200271609,-8.961999893188477,0.4510000050067901
1621849822577,27.229999542236328,28.986000061035156,8.949000358581543,1.72599995136261,-8.866999626159668,0.5870000123977661
1621849822587,29.190000534057617,28.999000549316406,10.08899974822998,1.6480000019073486,-8.88700008392334,0.703000009059906
1621849822597,29.88999938964844,28.46299934387207,9.496999740600586,1.5299999713897705,-8.946000099182129,0.8119999766349792
1621849822607,29.049999237060547,28.7549991607666,7.842000007629395,1.491000056266785,-9.15999984741211,0.8939999938011169
1621849822617,26.8799991607666,28.84000015258789,6.151000022888184,1.3730000257492063,-9.461999893188477,0.8009999990463256
1621849822627,23.65999984741211,28.218999862670895,4.834000110626221,1.3339999914169312,-9.847999572753906,0.7329999804496765
1621849822637,20.299999237060547,27.910999298095703,3.3580000400543213,1.215999960899353,-10.203000068664553,0.7099999785423278
1621849822647,16.8700008392334,26.861000061035156,2.461999893188477,1.215999960899353,-10.388999938964844,0.6380000114440918
1621849822657,14.350000381469728,25.701000213623047,0.977999985218048,1.1380000114440918,-10.413999557495115,0.5540000200271606
1621849822667,11.6899995803833,24.808000564575195,0.3939999938011169,1.0980000495910645,-10.413999557495115,0.5540000200271606
1621849822677,8.260000228881836,23.35700035095215,0.5640000104904174,1.0199999809265137,-10.322999954223633,0.4900000095367431
1621849822687,4.409999847412109,22.68000030517578,0.3740000128746032,0.8629999756813049,-10.161999702453612,0.4790000021457672
1621849822697,1.6100000143051147,23.117000579833984,-2.1080000400543213,0.7850000262260437,-9.961999893188477,0.4740000069141387
1621849822707,0.1400000005960464,24.454999923706055,-4.85699987411499,0.7059999704360961,-9.722999572753906,0.4760000109672546
1621849822717,0.2800000011920929,26.291000366210938,-8.015999794006348,0.7450000047683715,-9.484999656677246,0.4790000021457672
1621849822727,1.6100000143051147,28.165000915527344,-10.173999786376951,0.7850000262260437,-9.291999816894531,0.5130000114440918
1621849822737,3.990000009536743,30.195999145507812,-12.019000053405762,0.8629999756813049,-9.220999717712402,0.5649999976158142
1621849822747,7.0,31.826000213623047,-12.79800033569336,0.981000006198883,-9.14400005340576,0.578000009059906
1621849822757,10.359999656677246,32.709999084472656,-12.571000099182127,1.0590000152587893,-9.112000465393066,0.6240000128746032
1621849822767,13.020000457763672,32.9900016784668,-11.739999771118164,1.1380000114440918,-9.112000465393066,0.6240000128746032
1621849822777,14.0,32.69000244140625,-11.046499252319336,1.2549999952316284,-9.20300006866455,0.6880000233650208
1621849822787,14.979999542236328,32.38999938964844,-10.352999687194824,1.3339999914169312,-9.36400032043457,0.6990000009536743
1621849822797,16.030000686645508,31.400999069213867,-9.177000045776367,1.2940000295639038,-9.479999542236328,0.6779999732971191
1621849822807,15.68000030517578,30.444000244140625,-7.782000064849853,1.2940000295639038,-9.595999717712402,0.6579999923706054
1621849822817,14.909999847412108,28.906999588012695,-7.129000186920166,1.2940000295639038,-9.711999893188477,0.6380000114440918
1621849822827,13.229999542236328,27.454999923706055,-6.958000183105469,1.2549999952316284,-9.781999588012695,0.5849999785423278
1621849822837,10.850000381469728,26.413000106811523,-6.289000034332275,1.215999960899353,-9.852999687194824,0.5329999923706054
1621849822847,8.1899995803833,25.655000686645508,-6.422999858856201,1.1380000114440918,-9.852999687194824,0.5329999923706054
1621849822857,5.110000133514404,24.770999908447266,-6.650000095367432,1.1380000114440918,-9.845999717712402,0.4939999878406524
1621849822867,2.380000114440918,23.725000381469727,-6.763000011444092,1.0590000152587893,-9.845999717712402,0.4939999878406524
1621849822877,-0.2800000011920929,23.076000213623047,-6.309000015258789,0.981000006198883,-9.83899974822998,0.4560000002384185
1621849822887,-2.7300000190734863,22.73500061035156,-6.795000076293945,0.981000006198883,-9.786999702453612,0.3849999904632568
1621849822897,-4.619999885559082,21.97699928283691,-6.928999900817871,0.981000006198883,-9.741000175476074,0.3540000021457672
1621849822907,-6.440000057220459,21.368999481201172,-7.10699987411499,0.981000006198883,-9.656999588012695,0.3289999961853027
1621849822917,-7.420000076293945,21.04400062561035,-6.880000114440918,0.981000006198883,-9.541000366210936,0.3490000069141387
1621849822927,-7.8400001525878915,20.347000122070312,-7.359000205993653,1.0199999809265137,-9.425999641418455,0.3689999878406524
1621849822937,-7.9099998474121085,19.881000518798828,-7.938000202178955,1.0199999809265137,-9.32800006866455,0.2669999897480011
1621849822946,-7.559999942779541,19.43000030517578,-7.804999828338623,1.0199999809265137,-9.204999923706056,0.248999997973442
1621849822956,-6.440000057220459,18.895000457763672,-7.188000202178955,1.0980000495910645,-9.15999984741211,0.2169999927282333
1621849822966,-5.739999771118164,17.55299949645996,-6.429999828338623,1.0980000495910645,-9.11400032043457,0.1850000023841857
1621849822976,-4.760000228881836,15.598999977111816,-5.423999786376953,1.1380000114440918,-9.145999908447264,0.1400000005960464
1621849822986,-3.7100000381469727,13.932000160217283,-4.438000202178955,1.1770000457763672,-9.145999908447264,0.1400000005960464
1621849822996,-3.325000047683716,12.807000160217283,-4.1035003662109375,1.1770000457763672,-9.152999877929688,0.1790000051259994
1621849823006,-2.940000057220459,11.682000160217283,-3.7690000534057617,1.1380000114440918,-9.145999908447264,0.1400000005960464
1621849823016,-2.7300000190734863,9.755999565124512,-3.325999975204468,1.1380000114440918,-9.217000007629396,0.0879999995231628
1621849823026,-3.2200000286102295,8.32800006866455,-3.2939999103546143,1.1380000114440918,-9.33199977874756,0.06700000166893
1621849823036,-4.340000152587891,7.124000072479248,-2.510999917984009,1.0980000495910645,-9.447999954223633,0.0469999983906745
1621849823046,-5.809999942779541,5.5920000076293945,-2.2839999198913574,1.0980000495910645,-9.460000038146973,-0.1150000020861625
1621849823056,-7.420000076293945,3.746999979019165,-1.8980000019073489,1.0199999809265137,-9.472999572753906,-0.0370000004768371
1621849823066,-8.399999618530273,2.364000082015991,-1.715999960899353,1.0199999809265137,-9.505000114440918,-0.0829999968409538
1621849823076,-9.3100004196167,1.2489999532699585,-1.840999960899353,0.981000006198883,-9.550999641418455,-0.0509999990463256
1621849823086,-10.079999923706056,0.2800000011920929,-1.5859999656677246,0.9409999847412108,-9.58899974822998,-0.0579999983310699
1621849823096,-10.850000381469728,0.0810000002384185,-1.2649999856948853,0.9020000100135804,-9.628000259399414,-0.0649999976158142
1621849823106,-11.409999847412108,-0.2520000040531158,-1.3949999809265137,0.8629999756813049,-9.666999816894531,-0.0710000023245811
1621849823116,-12.109999656677246,-0.3289999961853027,-1.7640000581741333,0.8629999756813049,-9.704999923706056,-0.0780000016093254
1621849823126,-13.020000457763672,-0.1379999965429306,-1.2330000400543213,0.8629999756813049,-9.852999687194824,-0.1439999938011169
1621849823136,-13.859999656677246,0.3849999904632568,-0.5720000267028807,0.9020000100135804,-9.93000030517578,-0.1580000072717666
1621849823146,-14.770000457763672,1.0829999446868896,-0.0930000022053718,0.8629999756813049,-10.00100040435791,-0.209999993443489
1621849823156,-14.5600004196167,1.7760000228881836,0.8109999895095825,0.9020000100135804,-10.256999969482422,-0.3350000083446502
1621849823166,-14.420000076293944,2.359999895095825,2.3350000381469727,0.9409999847412108,-10.753000259399414,-0.4620000123977661
1621849823176,-14.06999969482422,2.308000087738037,5.453999996185303,0.981000006198883,-11.437000274658203,-0.4230000078678131
1621849823186,-12.31999969482422,2.388999938964844,7.814000129699707,0.9409999847412108,-11.625,-0.2569999992847442
1621849823196,-8.119999885559082,2.2720000743865967,8.07699966430664,0.8629999756813049,-11.38700008392334,-0.2549999952316284
1621849823206,-3.849999904632568,1.6959999799728394,5.701000213623047,0.8629999756813049,-11.394000053405762,-0.2169999927282333
1621849823216,-2.7300000190734863,1.2580000162124634,5.765999794006348,0.9409999847412108,-11.54300022125244,-0.0439999997615814
1621849823226,-3.0799999237060547,1.3415000438690186,7.309000015258789,0.8240000009536743,-11.54599952697754,0.1949999928474426
1621849823236,-3.430000066757202,1.4249999523162842,8.85200023651123,0.7059999704360961,-11.333999633789064,0.3519999980926513
1621849823246,-2.380000114440918,0.1110000014305114,10.255000114440918,0.5490000247955322,-11.142999649047852,0.6240000128746032
1621849823256,1.2599999904632568,-1.1059999465942385,7.48199987411499,0.4709999859333038,-10.906999588012695,0.865000009536743
1621849823266,5.110000133514404,-1.4869999885559082,5.210999965667725,0.3529999852180481,-10.618000030517578,1.0349999666213987
1621849823276,7.980000019073486,-0.9359999895095824,4.099999904632568,0.1959999948740005,-10.336999893188477,1.24399995803833
1621849823286,10.079999923706056,-0.0399999991059303,3.049000024795532,0.1180000007152557,-10.041000366210936,1.3760000467300415
1621849823296,11.409999847412108,0.968999981880188,0.953000009059906,0.0390000008046627,-9.815999984741213,1.4559999704360962
1621849823306,11.199999809265137,2.055999994277954,0.4339999854564666,0.0,-9.654999732971191,1.444000005722046
1621849823316,10.640000343322754,2.3239998817443848,1.3339999914169312,-0.0780000016093254,-9.43000030517578,1.52400004863739
1621849823326,9.449999809265137,2.0810000896453857,2.711999893188477,-0.1180000007152557,-9.25,1.6349999904632568
1621849823336,9.3100004196167,1.4359999895095823,3.9489998817443848,-0.1959999948740005,-9.109999656677246,1.7400000095367432
1621849823346,8.399999618530273,0.9660000205039978,5.004000186920166,-0.2750000059604644,-9.01900005340576,1.6759999990463257
1621849823356,6.650000095367432,0.9700000286102294,4.578000068664551,-0.4309999942779541,-9.064000129699709,1.7079999446868896
1621849823366,4.480000019073486,1.4800000190734863,2.8910000324249268,-0.6280000209808348,-9.187000274658203,1.72599995136261
1621849823376,1.9600000381469729,2.5950000286102295,0.6000000238418579,-0.6280000209808348,-9.166000366210936,1.6100000143051147
1621849823386,-0.5600000023841857,4.168000221252441,-1.468000054359436,-0.5879999995231628,-9.197999954223633,1.565000057220459
1621849823396,-3.1500000953674316,6.040999889373779,-3.625999927520752,-0.5099999904632568,-9.307000160217283,1.50600004196167
1621849823406,-5.320000171661377,6.989999771118164,-5.377999782562256,-0.4309999942779541,-9.416000366210936,1.4470000267028809
1621849823416,-6.300000190734863,7.322000026702882,-6.456999778747559,-0.3529999852180481,-9.595999717712402,1.3350000381469729
1621849823426,-6.510000228881836,7.236999988555909,-7.182000160217285,-0.2349999994039535,-9.704999923706056,1.2760000228881836
1621849823436,-6.230000019073486,7.074999809265137,-8.277000427246094,-0.1570000052452087,-9.744000434875488,1.2690000534057615
1621849823446,-4.480000019073486,6.925000190734863,-9.440999984741213,-0.0780000016093254,-9.697999954223633,1.2380000352859497
1621849823456,-2.380000114440918,6.827000141143799,-12.515000343322754,-0.0780000016093254,-9.536999702453612,1.22599995136261
1621849823466,-1.0500000715255735,6.741499900817871,-13.845000267028809,-0.0390000008046627,-9.505000114440918,1.2719999551773071
1621849823476,0.2800000011920929,6.656000137329102,-15.175000190734863,0.0390000008046627,-9.4350004196167,1.3240000009536743
1621849823486,2.799999952316284,6.8470001220703125,-17.059999465942383,0.0390000008046627,-9.4350004196167,1.3240000009536743
1621849823496,4.96999979019165,6.769000053405762,-18.63800048828125,0.0780000016093254,-9.472999572753906,1.3170000314712524
1621849823506,6.71999979019165,6.2179999351501465,-19.94300079345703,0.1180000007152557,-9.512000083923342,1.309999942779541
1621849823516,8.1899995803833,5.673999786376953,-20.892000198364254,0.1570000052452087,-9.465999603271484,1.2779999971389773
1621849823526,8.819999694824219,5.196000099182129,-21.402999877929688,0.1570000052452087,-9.498000144958496,1.2330000400543213
1621849823536,8.399999618530273,4.855000019073486,-20.680999755859375,0.0780000016093254,-9.491000175476074,1.194000005722046
1621849823546,7.070000171661377,4.835000038146973,-19.76099967956543,0.0390000008046627,-9.484999656677246,1.156000018119812
1621849823556,5.25,5.419000148773193,-19.444000244140625,0.0,-9.432000160217283,1.0850000381469729
1621849823566,3.1500000953674316,6.2179999351501465,-18.73500061035156,-0.0390000008046627,-9.380000114440918,1.0149999856948853
1621849823576,1.8899999856948853,6.984000205993652,-18.243999481201172,-0.0780000016093254,-9.25699996948242,0.996999979019165
1621849823586,1.3300000429153442,7.304999828338623,-18.04599952697754,-0.0780000016093254,-9.135000228881836,0.977999985218048
1621849823596,0.9800000190734864,7.770999908447266,-17.465999603271484,-0.0780000016093254,-9.050999641418455,0.953000009059906
1621849823606,1.3300000429153442,7.92899990081787,-17.15399932861328,-0.1180000007152557,-8.987000465393066,1.0440000295639038
1621849823616,2.6600000858306885,8.112000465393066,-18.187999725341797,-0.1180000007152557,-8.9350004196167,0.9739999771118164
1621849823626,3.569999933242798,8.772000312805176,-19.91900062561035,-0.1570000052452087,-8.881999969482422,0.902999997138977
1621849823636,4.269999980926514,9.0600004196167,-21.14800071716309,-0.1959999948740005,-8.843999862670898,0.9100000262260436
1621849823646,4.96999979019165,9.583000183105469,-22.90399932861328,-0.1180000007152557,-8.791999816894531,0.8399999737739563
1621849823656,5.949999809265137,9.137000083923342,-23.195999145507812,-0.0780000016093254,-8.847999572753906,0.7099999785423278
1621849823666,6.579999923706055,8.545000076293945,-22.65999984741211,-0.0390000008046627,-8.847999572753906,0.7099999785423278
1621849823676,7.420000076293945,7.401000022888184,-22.222000122070312,-0.0780000016093254,-8.873000144958496,0.6259999871253967
1621849823686,7.945000171661377,6.896500110626221,-22.38249969482422,-0.0780000016093254,-8.944000244140625,0.5740000009536743
1621849823696,8.470000267028809,6.392000198364258,-22.542999267578125,-0.0390000008046627,-9.097999572753906,0.5469999909400939
1621849823706,9.239999771118164,5.665999889373779,-22.457000732421875,-0.0780000016093254,-9.168999671936035,0.4939999878406524
1621849823716,9.800000190734863,5.138999938964844,-21.483999252319336,-0.0780000016093254,-9.291999816894531,0.5130000114440918
1621849823726,10.359999656677246,4.895999908447266,-20.104999542236328,-0.0390000008046627,-9.42099952697754,0.5690000057220459
1621849823736,10.56999969482422,4.117000102996826,-19.319000244140625,0.0390000008046627,-9.536999702453612,0.5490000247955322
1621849823746,10.220000267028809,3.505000114440918,-17.863000869750977,0.1180000007152557,-9.621000289916992,0.5740000009536743
1621849823756,9.800000190734863,2.5480000972747803,-16.468000411987305,0.1959999948740005,-9.711999893188477,0.6380000114440918
1621849823766,9.380000114440918,1.2269999980926514,-15.42099952697754,0.2349999994039535,-9.776000022888184,0.5469999909400939
1621849823776,9.170000076293944,-0.7850000262260437,-15.704999923706056,0.3529999852180481,-9.859999656677246,0.5720000267028807
1621849823786,8.819999694824219,-2.6419999599456787,-16.458999633789062,0.4709999859333038,-9.897999763488768,0.5649999976158142
1621849823796,8.050000190734863,-5.051000118255615,-17.309999465942383,0.6280000209808348,-9.975000381469728,0.5509999990463256
1621849823806,7.139999866485596,-7.427000045776368,-17.941999435424805,0.7059999704360961,-9.975000381469728,0.5509999990463256
1621849823816,6.71999979019165,-10.331000328063965,-17.60099983215332,0.8240000009536743,-9.866000175476074,0.6100000143051147
1621849823826,6.300000190734863,-13.128000259399414,-17.454999923706055,0.9020000100135804,-9.887000083923342,0.7260000109672546
1621849823836,5.809999942779541,-16.165000915527344,-16.356000900268555,0.9409999847412108,-9.829999923706056,0.856000006198883
1621849823846,5.25,-19.197999954223633,-14.473999977111816,0.9020000100135804,-9.753000259399414,0.8690000176429749
1621849823856,5.389999866485596,-21.72800064086914,-12.218999862670898,0.9020000100135804,-9.79800033569336,0.9010000228881836
1621849823866,5.389999866485596,-23.743000030517575,-10.868000030517578,0.9020000100135804,-9.95300006866455,0.8740000128746032
1621849823876,5.320000171661377,-25.256000518798828,-9.145000457763674,0.9409999847412108,-10.378000259399414,0.7990000247955322
1621849823886,4.96999979019165,-26.83300018310547,-6.651000022888184,0.9409999847412108,-10.892999649047852,0.7879999876022338
1621849823896,5.53000020980835,-28.27199935913086,-4.131999969482422,0.981000006198883,-11.215999603271484,0.8109999895095825
1621849823906,6.300000190734863,-29.63400077819824,-3.661999940872192,0.981000006198883,-11.248000144958496,0.7649999856948853
1621849823916,6.440000057220459,-29.96900177001953,-4.183000087738037,0.9409999847412108,-11.265999794006348,0.6420000195503234
1621849823926,6.579999923706055,-30.304000854492188,-4.703999996185303,1.0199999809265137,-11.343000411987305,0.6290000081062316
1621849823936,4.900000095367432,-30.61199951171875,-3.763000011444092,1.0980000495910645,-11.427000045776367,0.6539999842643737
1621849823946,3.0799999237060547,-30.209999084472656,-1.2039999961853027,1.1380000114440918,-11.189000129699709,0.656000018119812
1621849823956,3.7100000381469727,-29.483999252319336,-1.2890000343322754,1.215999960899353,-10.815999984741213,0.8009999990463256
1621849823966,5.880000114440918,-28.95299911499023,-3.8970000743865967,1.3339999914169312,-10.475000381469728,0.9010000228881836
1621849823976,8.050000190734863,-28.121999740600582,-5.385000228881836,1.491000056266785,-10.25,0.981000006198883
1621849823986,10.220000267028809,-27.156999588012695,-5.215000152587891,1.6080000400543213,-10.038999557495115,1.1380000114440918
1621849823996,13.859999656677246,-26.625999450683594,-5.406000137329102,1.72599995136261,-9.93000030517578,1.1970000267028809
1621849824006,17.290000915527344,-26.444000244140625,-7.6479997634887695,1.9609999656677248,-10.038999557495115,1.1380000114440918
1621849824016,19.8799991607666,-26.371000289916992,-9.270000457763674,2.118000030517578,-10.144000053405762,1.2779999971389773
1621849824026,20.719999313354492,-26.483999252319336,-9.432000160217283,2.197000026702881,-10.21399974822998,1.22599995136261
1621849824036,19.31999969482422,-26.844999313354492,-8.998000144958496,2.2750000953674316,-10.232000350952148,1.1039999723434448
1621849824046,15.609999656677246,-27.656000137329105,-8.430999755859375,2.3540000915527344,-10.256999969482422,1.0190000534057615
1621849824056,10.710000038146973,-27.875,-7.190000057220459,2.3929998874664307,-10.11400032043457,0.8849999904632568
1621849824066,6.230000019073486,-28.179000854492188,-5.466000080108643,2.3540000915527344,-9.906999588012695,0.8420000076293945
1621849824076,3.0799999237060547,-27.89900016784668,-3.427000045776367,2.549999952316284,-9.753000259399414,0.8690000176429749
1621849824086,1.8899999856948853,-25.81399917602539,0.0680000036954879,2.5889999866485596,-9.54800033569336,1.065000057220459
1621849824096,1.6100000143051147,-24.20400047302246,5.044000148773193,2.549999952316284,-9.14099979400635,1.0169999599456787
1621849824106,4.550000190734863,-25.145000457763672,3.5269999504089355,2.510999917984009,-8.86400032043457,1.0260000228881836
1621849824116,8.680000305175781,-27.05500030517578,1.0579999685287476,2.746000051498413,-8.741999626159668,1.0080000162124634
1621849824126,11.130000114440918,-29.58099937438965,4.0960001945495605,2.7850000858306885,-8.70300006866455,1.0149999856948853
1621849824136,13.649999618530272,-31.600000381469727,7.079999923706055,2.746000051498413,-8.722999572753906,1.13100004196167
1621849824146,14.489999771118164,-32.173500061035156,8.116499900817871,2.628000020980835,-8.744000434875488,1.2460000514984133
1621849824156,15.329999923706056,-32.74700164794922,9.152999877929688,2.549999952316284,-8.781999588012695,1.2400000095367432
1621849824166,16.170000076293945,-32.755001068115234,8.795999526977539,2.510999917984009,-9.01599979400635,1.437000036239624
1621849824176,16.239999771118164,-32.79600143432617,8.220000267028809,2.3540000915527344,-9.13199996948242,1.4170000553131104
1621849824186,15.75,-33.84600067138672,7.323999881744384,2.236000061035156,-9.255000114440918,1.434999942779541
1621849824196,15.470000267028809,-35.29399871826172,3.444000005722046,2.118000030517578,-9.255000114440918,1.434999942779541
1621849824206,14.630000114440918,-36.03300094604492,-1.2359999418258667,2.000999927520752,-9.248000144958496,1.3969999551773071
1621849824216,12.739999771118164,-36.10200119018555,-4.873000144958496,1.687000036239624,-9.241000175476074,1.3580000400543213
1621849824226,10.079999923706056,-35.542999267578125,-8.043999671936035,1.491000056266785,-9.234999656677246,1.319000005722046
1621849824236,7.420000076293945,-33.67399978637695,-10.984000205993652,1.5299999713897705,-9.053000450134276,1.1920000314712524
1621849824246,6.019999980926514,-31.347000122070312,-12.493000030517578,1.569000005722046,-9.085000038146973,1.1469999551773071
1621849824256,4.409999847412109,-29.56599998474121,-6.065999984741211,1.2940000295639038,-9.006999969482422,1.1599999666213987
1621849824266,0.0,-27.062000274658203,4.326000213623047,1.215999960899353,-8.979999542236328,1.00600004196167
1621849824276,-1.5399999618530271,-24.381999969482425,2.0269999504089355,1.2549999952316284,-9.043999671936035,0.915000021457672
1621849824286,-2.7300000190734863,-22.493999481201172,-5.459000110626221,1.4509999752044678,-8.996000289916992,0.6439999938011169
1621849824296,-3.009999990463257,-22.551000595092773,-6.748000144958496,1.4509999752044678,-8.892000198364258,0.5030000209808348
1621849824306,-2.450000047683716,-23.81999969482422,-5.195000171661377,1.3730000257492063,-8.83899974822998,0.4329999983310699
1621849824316,-0.6299999952316284,-25.56399917602539,-6.994999885559082,1.491000056266785,-8.769000053405762,0.4850000143051147
1621849824326,0.699999988079071,-27.31599998474121,-13.986000061035156,1.6080000400543213,-8.717000007629395,0.4149999916553497
1621849824336,2.309999942779541,-28.027000427246097,-19.229000091552734,1.843999981880188,-9.145999908447264,0.8169999718666076
1621849824346,2.0999999046325684,-24.336000442504883,-17.58300018310547,2.0789999961853027,-9.418999671936035,1.0080000162124634
1621849824356,-0.9100000262260436,-18.44300079345703,-9.081000328063965,2.0399999618530273,-9.13199996948242,0.740000009536743
1621849824366,-1.4700000286102295,-17.587501525878906,-7.685999870300293,2.000999927520752,-8.944000244140625,0.5740000009536743
1621849824376,-2.0299999713897705,-16.73200035095215,-6.290999889373779,2.236000061035156,-9.027999877929688,0.5989999771118164
1621849824386,-0.6299999952316284,-16.768999099731445,-9.708999633789062,2.3929998874664307,-9.104999542236328,0.5849999785423278
1621849824396,-0.4900000095367431,-17.226999282836914,-9.932000160217283,2.4709999561309814,-9.085000038146973,0.4690000116825103
1621849824406,-1.4700000286102295,-17.270999908447266,-5.249000072479248,2.4709999561309814,-9.07800006866455,0.4309999942779541
1621849824416,-2.240000009536743,-18.325000762939453,-2.0940001010894775,2.510999917984009,-9.116999626159668,0.4239999949932098
1621849824426,-2.799999952316284,-19.378999710083008,-1.3559999465942385,2.6670000553131104,-9.187000274658203,0.3720000088214874
1621849824436,-3.2200000286102295,-20.409000396728516,-0.7549999952316284,2.7850000858306885,-9.194000244140623,0.4099999964237213
1621849824446,-3.7799999713897705,-22.13999938964844,1.0010000467300415,2.8239998817443848,-9.147999763488768,0.3779999911785125
1621849824456,-4.199999809265137,-24.784000396728516,3.0929999351501465,2.8239998817443848,-9.161999702453612,0.4560000002384185
1621849824466,-4.130000114440918,-27.354000091552734,3.563999891281128,2.746000051498413,-9.123000144958496,0.4629999995231628
1621849824476,-3.7100000381469727,-29.812000274658203,4.197000026702881,2.6670000553131104,-9.092000007629396,0.5080000162124633
1621849824486,-2.869999885559082,-31.413000106811523,4.4120001792907715,2.5889999866485596,-9.013999938964846,0.5220000147819519
1621849824496,-2.0999999046325684,-32.46799850463867,5.150000095367432,2.549999952316284,-9.053000450134276,0.5149999856948853
1621849824506,-1.8899999856948853,-32.702999114990234,5.677000045776367,2.510999917984009,-9.097999572753906,0.5469999909400939
1621849824516,-1.190000057220459,-32.79999923706055,7.436999797821045,2.4709999561309814,-9.112000465393066,0.6240000128746032
1621849824526,-0.9800000190734864,-32.74700164794922,9.152999877929688,2.510999917984009,-9.241000175476074,0.6809999942779541
1621849824536,-1.0499999523162842,-33.229000091552734,10.276000022888184,2.628000020980835,-9.40999984741211,0.731000006198883
1621849824546,-2.0999999046325684,-34.61199951171875,11.666999816894531,2.8239998817443848,-9.5600004196167,0.902999997138977
1621849824556,-3.430000066757202,-37.80699920654297,13.661999702453612,2.9809999465942383,-9.696000099182127,0.9990000128746032
1621849824566,-4.619999885559082,-41.69499969482422,14.753999710083008,2.9809999465942383,-10.019000053405762,1.0219999551773071
1621849824576,-6.090000152587891,-44.09349822998047,15.254999160766602,2.9030001163482666,-10.597999572753906,0.9190000295639038
1621849824586,-7.559999942779541,-46.492000579833984,15.755999565124512,2.9030001163482666,-11.666000366210936,0.6520000100135803
1621849824596,-10.710000038146973,-50.803001403808594,17.625999450683594,2.8239998817443848,-12.04300022125244,0.9829999804496764
1621849824606,-12.25,-54.804000854492195,20.972000122070312,2.7070000171661377,-12.17300033569336,1.0399999618530271
1621849824616,-10.850000381469728,-58.48199844360352,21.673999786376953,2.9030001163482666,-12.095000267028809,1.0540000200271606
1621849824626,-9.449999809265137,-63.194000244140625,19.777000427246097,3.3340001106262207,-11.774999618530272,1.2699999809265137
1621849824636,-8.890000343322754,-70.14900207519531,20.11400032043457,3.8440001010894775,-11.255000114440918,1.4809999465942385
1621849824645,-10.710000038146973,-79.85600280761719,23.165000915527344,4.354000091552734,-10.748000144958496,1.7690000534057615
1621849824655,-14.06999969482422,-93.4029998779297,29.447999954223633,4.706999778747559,-10.093000411987305,2.124000072479248
1621849824665,-14.630000114440918,-109.8730010986328,39.40999984741211,4.824999809265137,-9.465999603271484,2.6329998970031734
1621849824675,-10.779999732971191,-127.77400207519533,48.62099838256836,4.706999778747559,-8.878000259399414,3.134999990463257
1621849824685,-1.6100000143051147,-145.5749969482422,53.22999954223633,4.4720001220703125,-8.404999732971191,3.615999937057495
1621849824695,10.5,-162.1479949951172,52.084999084472656,4.354000091552734,-8.20300006866455,4.050000190734863
1621849824705,23.729999542236328,-177.13499450683594,48.801998138427734,4.39300012588501,-8.38700008392334,4.415999889373779
1621849824715,34.15999984741211,-191.7259979248047,47.29600143432618,4.354000091552734,-8.777000427246094,4.824999809265137
1621849824725,40.040000915527344,-205.79600524902344,46.875999450683594,4.236000061035156,-9.23900032043457,5.182000160217285
1621849824735,42.4900016784668,-218.51800537109375,42.429000854492195,3.8440001010894775,-9.57699966430664,5.520999908447266
1621849824745,40.7400016784668,-228.0800018310547,33.777000427246094,3.490999937057495,-9.82900047302246,5.5960001945495605
1621849824755,34.5099983215332,-233.6490020751953,26.256000518798828,3.3340001106262207,-10.236000061035156,5.644000053405762
1621849824765,24.780000686645508,-238.34500122070312,26.281000137329105,3.2950000762939453,-10.512999534606934,5.635000228881836
1621849824775,19.040000915527344,-240.34950256347656,29.588001251220703,3.2170000076293945,-10.552000045776367,5.627999782562256
1621849824785,13.300000190734863,-242.35400390625,32.89500045776367,2.9809999465942383,-10.29300022125244,5.513999938964844
1621849824795,1.6100000143051147,-245.28900146484375,41.47600173950195,2.549999952316284,-9.795000076293944,5.4029998779296875
1621849824805,-7.8400001525878915,-246.36199951171875,47.96799850463867,2.0399999618530273,-9.244999885559082,5.2210001945495605
1621849824815,-14.770000457763672,-244.65499877929688,49.974998474121094,1.491000056266785,-8.656999588012695,5.046000003814697
1621849824825,-19.600000381469727,-240.3489990234375,49.7400016784668,1.0199999809265137,-8.145999908447266,4.85699987411499
1621849824835,-22.399999618530273,-233.17100524902344,48.944000244140625,0.6669999957084655,-7.697999954223632,4.578000068664551
1621849824845,-23.309999465942383,-224.5709991455078,46.124000549316406,0.4309999942779541,-7.32100009918213,4.245999813079834
1621849824855,-22.399999618530273,-214.54800415039065,41.28099822998047,0.3140000104904174,-7.164000034332275,4.033999919891357
1621849824865,-20.579999923706055,-205.14100646972656,35.90299987792969,0.3140000104904174,-7.144000053405762,3.9189999103546143
1621849824875,-18.969999313354492,-195.47900390625,31.493999481201172,0.2750000059604644,-7.110000133514404,3.724999904632568
1621849824885,-18.34000015258789,-185.4669952392578,27.92799949645996,0.1180000007152557,-7.10099983215332,3.447999954223633
1621849824895,-17.219999313354492,-175.10699462890625,23.996999740600582,0.0390000008046627,-7.144000053405762,3.240999937057495
1621849824905,-16.450000762939453,-164.4759979248047,20.541000366210938,0.0,-7.48199987411499,2.9030001163482666
1621849824915,-15.1899995803833,-154.63800048828125,19.575000762939453,0.0,-8.312000274658203,2.63700008392334
1621849824925,-11.970000267028809,-146.69000244140625,21.260000228881836,-0.0390000008046627,-9.137000083923342,2.571000099182129
1621849824935,-7.280000209808349,-140.1540069580078,21.275999069213867,-0.3140000104904174,-9.498000144958496,2.586999893188477
1621849824945,-0.7699999809265136,-134.177001953125,17.211999893188477,-0.3919999897480011,-9.678000450134276,2.4760000705718994
1621849824955,4.550000190734863,-128.64700317382812,11.64799976348877,-0.2750000059604644,-9.968000411987305,2.5439999103546143
1621849824965,5.565000057220459,-126.01150512695312,11.01099967956543,-0.2750000059604644,-10.182000160217283,2.625999927520752
1621849824975,6.579999923706055,-123.3759994506836,10.37399959564209,-0.3140000104904174,-10.16800022125244,2.549000024795532
1621849824985,6.579999923706055,-119.36499786376952,13.425999641418455,-0.4309999942779541,-10.23900032043457,2.496000051498413
1621849824995,7.769999980926514,-115.88600158691406,14.253000259399414,-0.3919999897480011,-10.362000465393066,2.515000104904175
1621849825005,8.470000267028809,-111.43000030517578,11.555999755859377,-0.4709999859333038,-10.362000465393066,2.515000104904175
1621849825015,8.470000267028809,-105.86699676513672,8.628000259399414,-0.5099999904632568,-10.225000381469728,2.4189999103546143
1621849825025,7.699999809265136,-99.94300079345705,5.264999866485596,-0.4309999942779541,-10.140999794006348,2.3940000534057617
1621849825035,5.53000020980835,-94.0719985961914,1.3960000276565552,-0.2750000059604644,-10.126999855041504,2.316999912261963
1621849825045,2.450000047683716,-89.25,0.2560000121593475,-0.1570000052452087,-10.100000381469728,2.1619999408721924
1621849825055,-1.399999976158142,-85.51899719238281,2.4769999980926514,-0.0780000016093254,-10.182000160217283,1.9490000009536743
1621849825065,-4.900000095367432,-82.68399810791016,6.958000183105469,-0.1180000007152557,-10.309000015258787,1.7669999599456787
1621849825075,-8.819999694824219,-80.82599639892578,12.545000076293944,-0.2349999994039535,-10.314000129699709,1.5670000314712524
1621849825085,-11.899999618530272,-78.5260009765625,17.642000198364258,-0.3919999897480011,-10.350000381469728,1.3220000267028809
1621849825095,-15.050000190734863,-75.10399627685547,20.804000854492188,-0.3919999897480011,-10.425000190734863,1.069000005722046
1621849825105,-17.709999084472656,-70.99199676513672,22.8799991607666,-0.3529999852180481,-10.43000030517578,0.8690000176429749
1621849825115,-20.09000015258789,-66.96900177001953,24.656000137329105,-0.2750000059604644,-10.472999572753906,0.6629999876022338
1621849825125,-22.049999237060547,-62.87699890136719,25.23500061035156,-0.1570000052452087,-10.491000175476074,0.5400000214576721
1621849825135,-23.8700008392334,-58.99700164794922,23.78700065612793,-0.0780000016093254,-10.38700008392334,0.3989999890327453
1621849825145,-25.270000457763672,-56.18299865722656,21.937000274658203,0.0,-10.314000129699709,0.2129999995231628
1621849825155,-25.795000076293945,-54.240501403808594,21.0,0.0780000016093254,-10.222999572753906,0.1490000039339065
1621849825165,-26.31999969482422,-52.29800033569336,20.062999725341797,0.1570000052452087,-10.145999908447266,0.163000002503395
1621849825175,-25.829999923706055,-48.79899978637695,17.55299949645996,0.1959999948740005,-10.069000244140623,0.1759999990463256
1621849825185,-24.149999618530273,-44.71599960327149,14.149999618530272,0.3529999852180481,-9.95300006866455,0.1969999969005584
1621849825195,-21.489999771118164,-40.32600021362305,9.807000160217283,0.5879999995231628,-9.87600040435791,0.209999993443489
1621849825205,-17.989999771118164,-35.59000015258789,4.315000057220459,0.8240000009536743,-9.85099983215332,0.2949999868869781
1621849825215,-14.699999809265137,-31.413999557495117,-0.4210000038146972,1.0590000152587893,-9.779999732971191,0.3470000028610229
1621849825225,-12.18000030517578,-28.54800033569336,-2.9719998836517334,1.3339999914169312,-9.67099952697754,0.4059999883174896
1621849825235,-10.5,-26.354000091552734,-4.931000232696533,1.6080000400543213,-9.593999862670898,0.4189999997615814
1621849825245,-9.029999732971191,-24.881999969482425,-6.021999835968018,1.9220000505447388,-9.470999717712402,0.4009999930858612
1621849825255,-8.260000228881836,-24.261999130249023,-5.913000106811523,2.0789999961853027,-9.401000022888184,0.4539999961853027
1621849825265,-7.699999809265136,-24.420000076293945,-5.017000198364258,2.1570000648498535,-9.28499984741211,0.4740000069141387
1621849825275,-7.070000171661377,-24.305999755859375,-3.6459999084472656,2.1570000648498535,-9.246000289916992,0.481000006198883
1621849825285,-6.300000190734863,-24.099000930786133,-2.4010000228881836,2.0399999618530273,-9.168999671936035,0.4939999878406524
1621849825295,-5.53000020980835,-24.14800071716309,-0.9169999957084656,1.8830000162124632,-9.130000114440918,0.5009999871253967
1621849825305,-4.340000152587891,-23.733999252319336,0.363999992609024,1.72599995136261,-9.168999671936035,0.4939999878406524
1621849825315,-3.569999933242798,-23.040000915527344,1.2680000066757202,1.5299999713897705,-9.20699977874756,0.4880000054836273
1621849825325,-3.5,-22.69099998474121,2.111999988555908,1.3730000257492063,-9.23900032043457,0.44200000166893
1621849825335,-4.059999942779541,-21.694000244140625,2.500999927520752,1.2940000295639038,-9.263999938964846,0.3580000102519989
1621849825345,-4.619999885559082,-21.225500106811523,2.868000030517578,1.1770000457763672,-9.411999702453612,0.2919999957084655
1621849825355,-5.179999828338623,-20.756999969482425,3.234999895095825,1.1380000114440918,-9.520999908447264,0.2329999953508377
1621849825365,-6.650000095367432,-19.89699935913086,3.5999999046325684,1.0590000152587893,-9.513999938964846,0.1940000057220459
1621849825375,-8.75,-19.690000534057617,4.843999862670898,0.9409999847412108,-9.538999557495115,0.1099999994039535
1621849825385,-10.56999969482422,-19.11000061035156,5.585999965667725,0.7850000262260437,-9.505000114440918,-0.0829999968409538
1621849825395,-11.970000267028809,-18.347999572753903,5.294000148773193,0.7450000047683715,-9.576000213623049,-0.135000005364418
1621849825405,-13.229999542236328,-17.253000259399414,5.131999969482422,0.7450000047683715,-9.543999671936035,-0.0900000035762786
1621849825415,-14.279999732971191,-15.939000129699709,4.936999797821045,0.7059999704360961,-9.484999656677246,-0.1990000009536743
1621849825425,-14.840000152587892,-14.41100025177002,3.927000045776367,0.7059999704360961,-9.439000129699709,-0.2300000041723251
1621849825435,-14.979999542236328,-13.458000183105469,2.9579999446868896,0.7450000047683715,-9.425999641418455,-0.3079999983310699
1621849825445,-15.470000267028809,-13.29599952697754,2.8440001010894775,0.7450000047683715,-9.444000244140623,-0.4300000071525573
1621849825455,-15.470000267028809,-13.692999839782717,2.2769999504089355,0.7450000047683715,-9.47599983215332,-0.4760000109672546
1621849825465,-15.75,-13.87600040435791,0.8939999938011169,0.7450000047683715,-9.538999557495115,-0.5669999718666076
1621849825475,-15.75,-14.70699977874756,-0.0340000018477439,0.7850000262260437,-9.487000465393066,-0.637000024318695
1621849825485,-15.81999969482422,-15.44200038909912,-1.5140000581741333,0.7850000262260437,-9.51900005340576,-0.6830000281333923
1621849825495,-16.170000076293945,-16.049999237060547,-2.9010000228881836,0.7850000262260437,-9.512000083923342,-0.7210000157356262
1621849825505,-16.309999465942383,-16.902000427246094,-4.118000030517578,0.8240000009536743,-9.467000007629396,-0.7530000209808348
1621849825515,-16.239999771118164,-17.108999252319336,-5.361999988555908,0.8629999756813049,-9.428000450134276,-0.7459999918937683
1621849825525,-16.170000076293945,-17.17799949645996,-5.978499889373779,0.8629999756813049,-9.467000007629396,-0.7530000209808348
1621849825535,-16.100000381469727,-17.246999740600586,-6.59499979019165,0.7450000047683715,-9.512000083923342,-0.7210000157356262
1621849825545,-15.75,-16.67099952697754,-7.843999862670899,0.6669999957084655,-9.55799961090088,-0.6890000104904174
1621849825555,-15.399999618530272,-16.21299934387207,-8.829999923706055,0.5879999995231628,-9.532999992370604,-0.6050000190734863
1621849825565,-14.489999771118164,-15.19200038909912,-10.994999885559082,0.5099999904632568,-9.50100040435791,-0.5600000023841857
1621849825575,-13.159999847412108,-13.1850004196167,-13.91100025177002,0.4309999942779541,-9.53499984741211,-0.367000013589859
1621849825585,-12.109999656677246,-11.0649995803833,-17.87299919128418,0.3140000104904174,-9.62600040435791,-0.3030000030994415
1621849825595,-10.989999771118164,-7.743999958038329,-22.191999435424805,0.1959999948740005,-9.954999923706056,-0.2419999986886978
1621849825605,-10.43000030517578,-4.1519999504089355,-27.2450008392334,0.1180000007152557,-10.689000129699709,-0.3709999918937683
1621849825615,-10.079999923706056,0.4250000119209289,-31.84000015258789,0.0390000008046627,-11.477999687194824,-0.19200000166893
1621849825625,-10.359999656677246,5.563000202178955,-34.77199935913086,-0.0780000016093254,-11.371000289916992,0.1059999987483024
1621849825635,-8.680000305175781,10.696000099182127,-38.48699951171875,-0.1570000052452087,-11.343999862670898,-0.0480000004172325
1621849825645,-10.56999969482422,15.909999847412108,-43.46799850463867,-0.1959999948740005,-11.718000411987305,0.0450000017881393
1621849825655,-16.450000762939453,21.177000045776367,-43.108001708984375,-0.2349999994039535,-11.958999633789064,0.2809999883174896
1621849825665,-23.729999542236328,25.80900001525879,-38.73699951171875,-0.3529999852180481,-11.696000099182127,0.367000013589859
1621849825675,-29.81999969482422,28.785999298095703,-34.65800094604492,-0.3529999852180481,-11.404999732971191,0.2989999949932098
1621849825685,-33.66999816894531,30.882999420166016,-30.02300071716309,-0.3529999852180481,-11.225000381469728,0.4110000133514404
1621849825695,-35.90999984741211,32.638999938964844,-23.458999633789062,-0.4309999942779541,-10.916000366210938,0.4650000035762786
1621849825705,-36.33000183105469,34.27399826049805,-17.413000106811523,-0.4709999859333038,-10.477999687194824,0.4629999995231628
1621849825715,-35.349998474121094,34.61600112915039,-13.300999641418455,-0.4309999942779541,-10.064000129699709,0.3759999871253967
1621849825725,-34.09000015258789,34.08100128173828,-10.267999649047852,-0.3529999852180481,-9.710000038146973,0.3989999890327453
1621849825735,-32.40999984741211,32.71099853515625,-7.736999988555909,-0.3529999852180481,-9.496000289916992,0.31700000166893
1621849825745,-31.25500106811523,31.312000274658203,-7.059999942779541,-0.3140000104904174,-9.335000038146973,0.3059999942779541
1621849825755,-30.100000381469727,29.913000106811523,-6.382999897003174,-0.3140000104904174,-9.321000099182127,0.2290000021457672
1621849825765,-26.809999465942383,26.972999572753903,-7.043000221252441,-0.3529999852180481,-9.461999893188477,0.123999997973442
1621849825775,-23.450000762939453,23.74099922180176,-9.673999786376951,-0.3529999852180481,-9.50100040435791,0.1169999986886978
1621849825785,-19.530000686645508,21.125,-14.187000274658203,-0.3919999897480011,-9.416999816894531,0.0920000001788139
1621849825795,-15.1899995803833,19.57900047302246,-18.725000381469727,-0.4709999859333038,-9.395999908447264,-0.0240000002086162
1621849825805,-11.0600004196167,18.881000518798828,-22.82799911499023,-0.4709999859333038,-9.35099983215332,-0.0560000017285346
1621849825815,-7.070000171661377,19.41200065612793,-26.643999099731445,-0.3919999897480011,-9.36400032043457,0.0219999998807907
1621849825825,-3.7799999713897705,20.489999771118164,-29.937000274658203,-0.3140000104904174,-9.447999954223633,0.0469999983906745
1621849825835,-0.6299999952316284,21.99799919128418,-32.44300079345703,-0.1959999948740005,-9.395999908447264,-0.0240000002086162
1621849825845,3.0799999237060547,23.73699951171875,-33.84199905395508,-0.1180000007152557,-9.326000213623049,0.0289999991655349
1621849825855,6.71999979019165,25.285999298095703,-34.56399917602539,0.0,-9.293999671936035,0.0740000009536743
1621849825865,9.59000015258789,26.54700088500977,-34.05799865722656,0.0780000016093254,-9.178000450134276,0.0939999967813491
1621849825875,12.18000030517578,28.083999633789062,-33.50199890136719,0.1570000052452087,-9.093999862670898,0.0689999982714653
1621849825885,14.06999969482422,29.81599998474121,-34.04999923706055,0.2349999994039535,-9.093999862670898,0.0689999982714653
1621849825895,15.75,31.25900077819824,-33.36899948120117,0.2750000059604644,-9.145999908447264,0.1400000005960464
1621849825905,16.65999984741211,33.42499923706055,-32.34700012207031,0.3140000104904174,-9.11400032043457,0.1850000023841857
1621849825915,17.43000030517578,35.8129997253418,-31.784000396728516,0.3140000104904174,-9.069000244140623,0.1539999991655349
1621849825925,18.059999465942383,37.61000061035156,-31.893999099731445,0.3919999897480011,-9.036999702453612,0.1990000009536743
1621849825935,19.11000061035156,39.512001037597656,-30.989999771118164,0.4309999942779541,-9.012000083923342,0.2829999923706054
1621849825945,20.299999237060547,41.08100128173828,-29.006999969482425,0.4309999942779541,-8.920999526977539,0.2189999967813491
1621849825955,21.559999465942383,42.71099853515625,-27.368999481201172,0.4309999942779541,-8.913999557495117,0.1809999942779541
1621849825965,22.540000915527344,44.06600189208984,-25.780000686645508,0.4309999942779541,-8.913999557495117,0.1809999942779541
1621849825975,22.81999969482422,44.33399963378906,-24.87950134277344,0.4709999859333038,-8.946000099182129,0.135000005364418
1621849825985,23.100000381469727,44.60200119018555,-23.979000091552734,0.4309999942779541,-8.991999626159668,0.1669999957084655
1621849825995,22.68000030517578,45.53400039672851,-22.81999969482422,0.4309999942779541,-9.062000274658203,0.1150000020861625
1621849826005,21.350000381469727,46.37799835205078,-21.959999084472656,0.4309999942779541,-9.11400032043457,0.1850000023841857
1621849826015,19.809999465942383,47.40399932861328,-20.926000595092773,0.4309999942779541,-9.121000289916992,0.2240000069141387
1621849826025,17.989999771118164,47.93600082397461,-18.700000762939453,0.4309999942779541,-9.11400032043457,0.1850000023841857
1621849826035,16.450000762939453,48.19499969482422,-15.739999771118164,0.4309999942779541,-9.036999702453612,0.1990000009536743
1621849826045,15.470000267028809,48.06999969482422,-13.416999816894531,0.3140000104904174,-8.95300006866455,0.1739999949932098
1621849826055,14.840000152587892,47.875999450683594,-12.314000129699709,0.2349999994039535,-8.829999923706055,0.1560000032186508
1621849826065,14.489999771118164,47.3849983215332,-11.546999931335447,0.1959999948740005,-8.727999687194824,0.2529999911785125
1621849826075,14.489999771118164,47.56800079345703,-10.163999557495115,0.1959999948740005,-8.829999923706055,0.1560000032186508
1621849826085,14.06999969482422,47.32500076293945,-8.78600025177002,0.0780000016093254,-8.78499984741211,0.123999997973442
1621849826095,14.279999732971191,47.130001068115234,-8.890999794006348,0.0390000008046627,-8.701000213623047,0.0989999994635581
1621849826105,13.300000190734863,46.959999084472656,-9.133999824523924,0.0390000008046627,-8.73900032043457,0.0920000001788139
1621849826115,11.199999809265137,47.02000045776367,-9.479000091552734,0.0,-8.894000053405762,0.0649999976158142
1621849826125,8.050000190734863,47.542999267578125,-10.027000427246094,0.0780000016093254,-9.227999687194824,-0.0740000009536743
1621849826135,4.409999847412109,48.03400039672851,-12.00100040435791,0.1180000007152557,-9.460000038146973,-0.1150000020861625
1621849826145,0.1400000005960464,49.00699996948242,-15.100000381469728,0.2750000059604644,-9.696000099182127,-0.3549999892711639
1621849826155,-4.760000228881836,49.03499984741211,-16.871999740600586,0.4309999942779541,-9.767000198364256,-0.4079999923706054
1621849826165,-10.850000381469728,47.8380012512207,-16.940000534057617,0.5490000247955322,-9.836999893188477,-0.4600000083446502
1621849826175,-16.309999465942383,46.03400039672851,-15.979000091552734,0.5879999995231628,-9.906999588012695,-0.512000024318695
1621849826185,-20.09000015258789,44.237998962402344,-15.869000434875488,0.6669999957084655,-9.946000099182127,-0.5189999938011169
1621849826195,-22.75,42.45800018310547,-16.253999710083008,0.7450000047683715,-9.939000129699709,-0.5580000281333923
1621849826205,-24.63999938964844,40.46699905395508,-16.25,0.8240000009536743,-10.029999732971191,-0.4939999878406524
1621849826215,-25.51499938964844,39.54450225830078,-16.05699920654297,0.7850000262260437,-10.203000068664553,-0.6439999938011169
1621849826225,-26.38999938964844,38.62200164794922,-15.86400032043457,0.7850000262260437,-10.381999969482422,-0.7549999952316284
1621849826235,-28.84000015258789,36.80099868774414,-15.616999626159668,0.7850000262260437,-10.916000366210938,-0.8889999985694885
1621849826245,-32.20000076293945,35.13399887084961,-15.840000152587892,0.7450000047683715,-11.649999618530272,-1.0190000534057615
1621849826255,-35.84000015258789,34.41299819946289,-14.972000122070312,0.7450000047683715,-12.63700008392334,-1.0729999542236328
1621849826265,-38.290000915527344,35.499000549316406,-15.491000175476074,0.7059999704360961,-13.70699977874756,-1.1019999980926514
1621849826275,-38.36000061035156,38.1510009765625,-18.434999465942383,0.6669999957084655,-14.031999588012695,-0.8410000205039978
1621849826285,-34.29999923706055,44.45600128173828,-23.152000427246097,0.5879999995231628,-13.302000045776367,-0.2339999973773956
1621849826295,-27.440000534057617,51.814998626708984,-29.815000534057617,0.6669999957084655,-11.843000411987305,0.3019999861717224
1621849826305,-22.68000030517578,57.243999481201165,-33.194000244140625,0.8240000009536743,-10.519000053405762,0.6949999928474426
1621849826315,-21.13999938964844,60.97100067138672,-29.33799934387207,0.8629999756813049,-9.741000175476074,1.031000018119812
1621849826325,-18.690000534057617,65.08399963378906,-22.429000854492188,0.7850000262260437,-9.447999954223633,1.4010000228881836
1621849826335,-12.600000381469728,70.79299926757812,-20.14299964904785,0.6669999957084655,-9.373000144958496,1.6529999971389773
1621849826345,-2.0999999046325684,77.31700134277344,-24.892000198364254,0.7450000047683715,-9.324999809265137,2.059999942779541
1621849826355,9.65999984741211,82.7220001220703,-28.132999420166016,1.0199999809265137,-9.340999603271484,2.375999927520752
1621849826365,18.969999313354492,87.5479965209961,-24.864999771118164,1.215999960899353,-9.505000114440918,2.625999927520752
1621849826375,25.899999618530273,91.27100372314452,-18.16699981689453,1.2940000295639038,-9.97700023651123,2.821000099182129
1621849826385,29.540000915527344,93.62000274658205,-13.345999717712402,1.2940000295639038,-10.720000267028809,2.9690001010894775
1621849826394,28.420000076293945,96.41799926757812,-11.074999809265137,1.2940000295639038,-11.541000366210936,3.1029999256134033
1621849826404,23.239999771118164,99.83699798583984,-8.696000099182129,1.2940000295639038,-12.116000175476074,3.200999975204468
1621849826414,14.909999847412108,103.89600372314452,-4.710000038146973,1.215999960899353,-12.484000205993652,3.25600004196167
1621849826424,5.389999866485596,109.01399993896484,0.527999997138977,1.0980000495910645,-12.560999870300291,3.2420001029968266
1621849826434,-5.599999904632568,114.05899810791016,4.9720001220703125,0.9409999847412108,-12.392999649047852,3.191999912261963
1621849826444,-16.030000686645508,117.9489974975586,8.71399974822998,0.7850000262260437,-12.11299991607666,2.9630000591278076
1621849826454,-20.545000076293945,119.70899963378906,10.623499870300291,0.6669999957084655,-11.833999633789064,2.7330000400543213
1621849826464,-25.059999465942383,121.46900177001952,12.532999992370604,0.5099999904632568,-11.425000190734863,2.447000026702881
1621849826474,-32.970001220703125,123.87799835205078,15.800999641418455,0.3919999897480011,-10.970999717712402,2.128000020980835
1621849826484,-39.900001525878906,125.56500244140624,17.520000457763672,0.1959999948740005,-10.432000160217283,1.7849999666213987
1621849826494,-45.709999084472656,127.14299774169922,17.44300079345703,0.0390000008046627,-9.958999633789062,1.5900000333786013
1621849826504,-49.97999954223633,128.38299560546875,15.244999885559082,-0.1180000007152557,-9.487000465393066,1.3940000534057615
1621849826514,-53.54999923706055,130.08999633789062,11.210000038146973,-0.2349999994039535,-9.085000038146973,1.1469999551773071
1621849826524,-55.02000045776367,131.90199279785156,6.980999946594238,-0.3140000104904174,-8.689000129699707,0.9369999766349792
1621849826534,-55.22999954223633,134.2570037841797,2.490999937057495,-0.2750000059604644,-8.33899974822998,0.7599999904632568
1621849826544,-54.25,136.89199829101562,-1.1670000553131104,-0.1959999948740005,-8.03499984741211,0.615000009536743
1621849826554,-51.65999984741211,139.24000549316406,-3.5959999561309814,-0.1180000007152557,-7.8400001525878915,0.4099999964237213
1621849826564,-47.529998779296875,141.54299926757812,-3.7579998970031734,0.0,-7.717000007629395,0.3919999897480011
1621849826574,-43.119998931884766,143.67599487304688,-2.9560000896453857,0.0390000008046627,-7.749000072479248,0.3459999859333038
1621849826584,-38.63999938964844,146.66900634765625,-0.5799999833106994,0.0390000008046627,-7.85099983215332,0.248999997973442
1621849826594,-35.279998779296875,149.59300231933594,2.9920001029968266,0.1180000007152557,-7.894000053405762,0.0419999994337558
1621849826604,-32.47999954223633,152.9029998779297,7.201000213623047,0.1570000052452087,-8.093999862670898,0.0469999983906745
1621849826614,-30.030000686645508,156.01699829101562,11.303999900817873,0.2349999994039535,-8.178000450134277,0.0719999969005584
1621849826624,-28.06999969482422,158.69000244140625,13.480999946594238,0.2750000059604644,-8.26200008392334,0.0970000028610229
1621849826634,-26.530000686645508,160.18699645996094,15.876999855041504,0.3529999852180481,-8.33899974822998,0.0829999968409538
1621849826644,-25.829999923706055,161.0749969482422,16.886999130249023,0.4709999859333038,-8.513999938964844,0.1720000058412551
1621849826654,-25.690000534057617,160.89199829101562,16.71299934387207,0.5490000247955322,-8.597999572753906,0.1969999969005584
1621849826664,-24.780000686645508,160.08099365234375,16.07200050354004,0.5879999995231628,-8.675999641418457,0.1829999983310699
1621849826674,-23.729999542236328,158.95799255371094,15.590000152587892,0.6669999957084655,-8.71399974822998,0.1759999990463256
1621849826684,-23.274999618530273,158.07998657226562,15.328500747680664,0.7450000047683715,-8.836999893188477,0.1940000057220459
1621849826694,-22.81999969482422,157.20199584960935,15.06700038909912,0.7850000262260437,-8.913999557495117,0.1809999942779541
1621849826704,-21.209999084472656,155.01199340820312,14.18299961090088,0.8240000009536743,-8.869000434875488,0.1490000039339065
1621849826714,-19.739999771118164,152.343994140625,12.788000106811523,0.8629999756813049,-8.907999992370605,0.1420000046491622
1621849826724,-18.34000015258789,149.322998046875,12.1850004196167,0.9020000100135804,-9.022999763488768,0.1220000013709068
1621849826734,-17.079999923706055,146.63400268554688,11.711000442504885,0.9409999847412108,-9.178000450134276,0.0939999967813491
1621849826744,-15.81999969482422,144.18899536132812,9.857999801635742,0.9409999847412108,-9.262000083923342,0.1190000027418136
1621849826754,-14.909999847412108,141.23199462890625,7.275000095367432,0.981000006198883,-9.293999671936035,0.0740000009536743
1621849826764,-14.840000152587892,138.3249969482422,6.834000110626221,0.981000006198883,-9.234999656677246,-0.0350000001490116
1621849826774,-15.399999618530272,135.51499938964844,7.048999786376953,0.9020000100135804,-9.388999938964846,-0.061999998986721
1621849826784,-16.030000686645508,133.1750030517578,6.210000038146973,0.7450000047683715,-9.61400032043457,-0.1420000046491622
1621849826794,-16.59000015258789,131.79600524902344,2.3420000076293945,0.6669999957084655,-9.90999984741211,-0.2739999890327453
1621849826804,-17.5,130.927001953125,-2.005000114440918,0.6280000209808348,-10.204999923706056,-0.4050000011920929
1621849826814,-18.549999237060547,129.90899658203125,-5.098999977111816,0.7059999704360961,-10.487000465393066,-0.6140000224113464
1621849826824,-19.670000076293945,128.31500244140625,-5.735000133514404,0.7059999704360961,-10.628000259399414,-0.7189999818801879
1621849826834,-20.579999923706055,126.31600189208984,-6.0879998207092285,0.7059999704360961,-10.607000350952148,-0.8349999785423278
1621849826844,-21.280000686645508,124.00499725341795,-5.073999881744385,0.6669999957084655,-10.477999687194824,-0.8920000195503234
1621849826854,-21.559999465942383,121.3000030517578,-3.8450000286102295,0.6280000209808348,-10.335000038146973,-1.0260000228881836
1621849826864,-21.0,118.68099975585936,-3.0980000495910645,0.6669999957084655,-10.526000022888184,-1.2979999780654907
1621849826874,-19.8799991607666,116.36199951171876,-3.6489999294281006,0.7059999704360961,-10.904999732971191,-1.4049999713897705
1621849826884,-17.290000915527344,114.2689971923828,-5.085000038146973,0.6280000209808348,-11.013999938964844,-1.4639999866485596
1621849826894,-13.300000190734863,112.0510025024414,-6.61299991607666,0.6669999957084655,-10.769000053405762,-1.5010000467300415
1621849826904,-10.010000228881836,108.38099670410156,-6.763000011444092,0.7450000047683715,-10.453000068664553,-1.4850000143051147
1621849826914,-7.630000114440918,104.02200317382812,-3.4089999198913574,0.8629999756813049,-10.175999641418455,-1.47599995136261
1621849826924,-6.755000114440918,101.5510025024414,-0.68149995803833,0.9020000100135804,-9.982999801635742,-1.4420000314712524
1621849826934,-5.880000114440918,99.08000183105467,2.0460000038146973,0.8240000009536743,-9.744000434875488,-1.4390000104904177
1621849826944,-4.340000152587891,93.19300079345705,6.409999847412109,0.7850000262260437,-9.512000083923342,-1.3980000019073486
1621849826954,-2.940000057220459,87.03800201416016,8.666000366210938,0.7450000047683715,-9.157999992370604,-1.3760000467300415
1621849826964,-1.8200000524520872,80.56600189208984,11.505000114440918,0.6669999957084655,-8.925999641418457,-1.3350000381469729
1621849826974,-1.4700000286102295,74.95500183105469,14.708999633789062,0.5879999995231628,-8.848999977111816,-1.3209999799728394
1621849826984,-1.2599999904632568,69.6709976196289,17.26099967956543,0.4709999859333038,-8.87399959564209,-1.4049999713897705
1621849826994,-1.0499999523162842,64.49299621582031,17.200000762939453,0.4709999859333038,-9.003000259399414,-1.3489999771118164
1621849827004,-0.3499999940395355,59.257999420166016,14.642000198364258,0.4309999942779541,-9.086999893188477,-1.3240000009536743
1621849827014,0.0700000002980232,54.19300079345703,12.328000068664553,0.4309999942779541,-9.17099952697754,-1.2979999780654907
1621849827024,-0.0700000002980232,49.69100189208984,11.25,0.3919999897480011,-9.293999671936035,-1.2799999713897705
1621849827034,-0.2800000011920929,46.1510009765625,10.767999649047852,0.2349999994039535,-9.371000289916992,-1.2940000295639038
1621849827044,1.0499999523162842,41.70199966430664,4.15500020980835,0.0,-9.30799961090088,-1.2029999494552612
1621849827054,1.9600000381469729,41.41400146484375,0.550000011920929,-0.1570000052452087,-9.08899974822998,-1.0850000381469729
1621849827064,1.6799999475479126,41.51100158691406,-1.2100000381469729,-0.2349999994039535,-8.864999771118164,-1.0049999952316284
1621849827074,0.2800000011920929,42.81600189208984,-1.7619999647140503,-0.3529999852180481,-8.871000289916992,-0.9670000076293944
1621849827084,-1.190000057220459,44.1870002746582,-3.0840001106262207,-0.3529999852180481,-9.211999893188477,-1.0670000314712524
1621849827094,-2.450000047683716,44.417999267578125,-4.394000053405762,-0.2750000059604644,-9.661999702453612,-1.22599995136261
1621849827104,-3.5,44.19900131225586,-5.570000171661377,-0.2349999994039535,-9.918999671936035,-1.35099995136261
1621849827114,-5.25,43.180999755859375,-3.8299999237060542,-0.1180000007152557,-10.034999847412108,-1.3710000514984133
1621849827124,-7.070000171661377,41.94499969482422,-0.8489999771118164,-0.0390000008046627,-10.06700038909912,-1.4170000553131104
1621849827134,-7.8400001525878915,40.96799850463867,0.2579999864101409,0.1180000007152557,-10.144000053405762,-1.4299999475479126
1621849827144,-7.8400001525878915,39.88899993896485,-0.0740000009536743,0.1180000007152557,-10.189000129699709,-1.3980000019073486
1621849827154,-7.699999809265136,39.925498962402344,-0.281000018119812,0.1180000007152557,-10.144000053405762,-1.4299999475479126
1621849827164,-7.559999942779541,39.96200180053711,-0.4880000054836273,0.0780000016093254,-10.020999908447266,-1.4479999542236328
1621849827174,-7.699999809265136,39.92100143432618,0.1439999938011169,0.1570000052452087,-9.904999732971191,-1.4279999732971191
1621849827184,-7.769999980926514,39.617000579833984,0.6600000262260437,0.1959999948740005,-9.788999557495115,-1.406999945640564
1621849827194,-7.139999866485596,39.00899887084961,0.481000006198883,0.2349999994039535,-9.744000434875488,-1.4390000104904177
1621849827204,-6.090000152587891,38.81399917602539,-0.8330000042915344,0.2349999994039535,-9.666999816894531,-1.4259999990463257
1621849827214,-4.550000190734863,38.472999572753906,-2.5280001163482666,0.1959999948740005,-9.55799961090088,-1.3669999837875366
1621849827224,-3.359999895095825,38.21799850463867,-4.704999923706055,0.1570000052452087,-9.40999984741211,-1.3009999990463257
1621849827234,-2.1700000762939453,38.108001708984375,-6.500999927520752,0.1570000052452087,-9.255000114440918,-1.2730000019073486
1621849827244,-1.2599999904632568,37.99800109863281,-7.089000225067139,0.1959999948740005,-9.107999801635742,-1.2079999446868896
1621849827254,-0.699999988079071,37.827999114990234,-7.333000183105469,0.1959999948740005,-9.114999771118164,-1.1690000295639038
1621849827264,0.0700000002980232,37.11399841308594,-7.315999984741211,0.2750000059604644,-9.107999801635742,-1.2079999446868896
1621849827274,0.9800000190734864,36.35200119018555,-7.02400016784668,0.2349999994039535,-9.069000244140623,-1.2009999752044678
1621849827284,1.75,35.763999938964844,-5.705999851226807,0.2750000059604644,-9.145999908447264,-1.2139999866485596
1621849827294,2.1700000762939453,34.91299819946289,-4.50600004196167,0.3529999852180481,-9.300999641418455,-1.2419999837875366
1621849827304,2.7300000190734863,33.85900115966797,-3.76799988746643,0.3919999897480011,-9.50100040435791,-1.2369999885559082
1621849827314,3.2200000286102295,32.26499938964844,-3.196000099182129,0.5099999904632568,-9.62399959564209,-1.218999981880188
1621849827324,3.359999895095825,30.48500061035156,-2.371999979019165,0.5879999995231628,-9.668999671936035,-1.187000036239624
1621849827334,3.569999933242798,29.38000106811523,-1.749500036239624,0.5879999995231628,-9.701000213623049,-1.2330000400543213
1621849827344,3.7799999713897705,28.274999618530273,-1.1269999742507937,0.6669999957084655,-9.708000183105469,-1.194000005722046
1621849827354,4.619999885559082,26.19499969482422,-0.2150000035762786,0.7059999704360961,-9.708000183105469,-1.194000005722046
1621849827364,5.53000020980835,24.33799934387207,0.2399999946355819,0.7450000047683715,-9.598999977111816,-1.1349999904632568
1621849827374,6.650000095367432,22.472999572753903,0.3370000123977661,0.7450000047683715,-9.619000434875488,-1.0190000534057615
1621849827384,7.630000114440918,20.656000137329105,0.1589999943971633,0.7450000047683715,-9.593999862670898,-0.9350000023841856
1621849827394,8.609999656677246,18.542999267578125,-0.3549999892711639,0.7450000047683715,-9.61400032043457,-0.8190000057220459
1621849827404,9.100000381469728,16.34600067138672,-0.3880000114440918,0.7850000262260437,-9.638999938964846,-0.902999997138977
1621849827414,9.449999809265137,13.779000282287598,-0.3429999947547912,0.7850000262260437,-9.638999938964846,-0.902999997138977
1621849827424,9.029999732971191,10.510000228881836,-0.3499999940395355,0.7450000047683715,-9.678000450134276,-0.9100000262260436
1621849827434,8.890000343322754,7.69600009918213,-0.9169999957084656,0.6669999957084655,-9.717000007629396,-0.9169999957084656
1621849827444,8.399999618530273,5.343999862670898,-1.687999963760376,0.7059999704360961,-9.722999572753906,-0.8780000209808348
1621849827454,7.9099998474121085,3.118000030517578,-2.364000082015991,0.6669999957084655,-9.678000450134276,-0.9100000262260436
1621849827464,7.210000038146973,1.2400000095367432,-3.4059998989105225,0.6669999957084655,-9.638999938964846,-0.902999997138977
1621849827474,6.71999979019165,-0.3129999935626983,-4.675000190734863,0.6280000209808348,-9.6850004196167,-0.8709999918937683
1621849827484,6.860000133514404,-1.1519999504089355,-5.960999965667725,0.5490000247955322,-9.69200038909912,-0.8330000042915344
1621849827494,7.280000209808349,-1.6959999799728394,-6.908999919891357,0.5099999904632568,-9.697999954223633,-0.7940000295639038
1621849827504,7.034999847412109,-1.749000072479248,-7.415999889373779,0.3919999897480011,-9.744000434875488,-0.762000024318695
1621849827514,6.789999961853027,-1.8020000457763672,-7.922999858856201,0.3529999852180481,-9.788999557495115,-0.7300000190734863
1621849827524,6.369999885559082,-1.059999942779541,-8.503000259399414,0.2750000059604644,-9.75100040435791,-0.7239999771118164
1621849827534,5.739999771118164,-0.6050000190734863,-7.854000091552734,0.2750000059604644,-9.835000038146973,-0.6990000009536743
1621849827544,4.96999979019165,0.0350000001490116,-7.456999778747559,0.2750000059604644,-9.944000244140623,-0.7580000162124633
1621849827554,4.269999980926514,0.6069999933242797,-7.072000026702881,0.3140000104904174,-9.982000350952148,-0.7639999985694885
1621849827564,4.059999942779541,1.506999969482422,-7.3400001525878915,0.3140000104904174,-9.98900032043457,-0.7260000109672546
1621849827574,3.7799999713897705,2.5739998817443848,-6.938000202178955,0.3140000104904174,-9.996000289916992,-0.6869999766349792
1621849827584,3.430000066757202,3.4579999446868896,-6.710999965667725,0.3140000104904174,-9.970999717712402,-0.6029999852180481
1621849827594,3.359999895095825,3.9409999847412114,-6.625999927520752,0.3140000104904174,-9.939000129699709,-0.5580000281333923
1621849827604,3.2899999618530273,4.377999782562256,-6.690999984741211,0.3529999852180481,-9.862000465393066,-0.5440000295639038
1621849827614,3.1500000953674316,4.565000057220459,-6.942999839782715,0.3529999852180481,-9.862000465393066,-0.5440000295639038
1621849827624,3.2899999618530273,4.451000213623047,-7.105000019073486,0.3919999897480011,-9.822999954223633,-0.537000000476837
1621849827634,3.2200000286102295,4.545000076293945,-7.230999946594238,0.3919999897480011,-9.79800033569336,-0.453000009059906
1621849827644,3.0799999237060547,3.911999940872192,-7.270999908447266,0.4309999942779541,-9.753000259399414,-0.4850000143051147
1621849827654,2.799999952316284,3.555000066757202,-7.263000011444091,0.4309999942779541,-9.760000228881836,-0.4460000097751617
1621849827664,2.4499998092651367,3.121500015258789,-7.019499778747559,0.4709999859333038,-9.753000259399414,-0.4850000143051147
1621849827674,2.0999999046325684,2.687999963760376,-6.776000022888184,0.4709999859333038,-9.80500030517578,-0.414000004529953
1621849827684,1.399999976158142,2.1480000019073486,-6.941999912261963,0.4709999859333038,-9.80500030517578,-0.414000004529953
1621849827694,0.2800000011920929,1.9859999418258667,-6.828999996185303,0.4709999859333038,-9.843999862670898,-0.4210000038146972
1621849827704,-0.8399999737739563,1.7020000219345093,-7.234000205993653,0.4709999859333038,-9.888999938964846,-0.3889999985694885
1621849827714,-2.309999942779541,1.6859999895095823,-7.947999954223632,0.4709999859333038,-9.928000450134276,-0.3959999978542327
1621849827724,-3.1500000953674316,2.128000020980835,-8.439000129699707,0.5099999904632568,-9.92099952697754,-0.4350000023841857
1621849827734,-4.900000095367432,1.9609999656677248,-9.107999801635742,0.5490000247955322,-9.95300006866455,-0.4799999892711639
1621849827744,-6.159999847412109,1.625,-10.020000457763672,0.5490000247955322,-9.913999557495115,-0.4740000069141387
1621849827754,-7.349999904632568,1.503000020980835,-10.538999557495115,0.5490000247955322,-9.87600040435791,-0.4670000076293945
1621849827764,-7.980000019073486,1.6649999618530271,-10.652999877929688,0.6280000209808348,-9.869000434875488,-0.5049999952316284
1621849827774,-8.260000228881836,2.0460000038146973,-10.798999786376951,0.6280000209808348,-9.862000465393066,-0.5440000295639038
1621849827784,-8.539999961853027,2.7679998874664307,-10.458000183105469,0.6280000209808348,-9.822999954223633,-0.537000000476837
1621849827794,-8.329999923706055,3.2950000762939453,-10.222999572753906,0.6280000209808348,-9.770999908447264,-0.6079999804496765
1621849827804,-8.470000267028809,3.8959999084472656,-9.192999839782717,0.7059999704360961,-9.763999938964846,-0.6460000276565551
1621849827814,-8.329999923706055,3.836999893188477,-8.456999778747559,0.7059999704360961,-9.718999862670898,-0.6779999732971191
1621849827824,-8.1899995803833,3.7780001163482666,-7.72100019454956,0.7059999704360961,-9.718999862670898,-0.6779999732971191
1621849827834,-7.559999942779541,4.241000175476074,-6.716000080108643,0.6669999957084655,-9.635000228881836,-0.703000009059906
1621849827844,-6.929999828338623,4.5329999923706055,-5.953000068664551,0.6669999957084655,-9.628000259399414,-0.7419999837875366
1621849827854,-6.71999979019165,5.052000045776367,-6.074999809265137,0.7059999704360961,-9.543999671936035,-0.7670000195503234
1621849827864,-5.739999771118164,5.510000228881836,-5.8520002365112305,0.6669999957084655,-9.583000183105469,-0.7739999890327453
1621849827874,-4.900000095367432,6.040999889373779,-6.043000221252441,0.7059999704360961,-9.536999702453612,-0.8050000071525573
1621849827884,-4.269999980926514,6.341000080108643,-6.131999969482422,0.6280000209808348,-9.583000183105469,-0.7739999890327453
1621849827894,-3.7799999713897705,6.605000019073486,-6.013999938964844,0.5879999995231628,-9.58899974822998,-0.7350000143051147
1621849827904,-3.1500000953674316,6.936999797821045,-5.885000228881836,0.5879999995231628,-9.621000289916992,-0.7799999713897705
1621849827914,-2.7300000190734863,7.043000221252441,-6.078999996185303,0.5490000247955322,-9.67300033569336,-0.7099999785423278
1621849827924,-2.5199999809265137,7.5370001792907715,-6.063000202178955,0.5099999904632568,-9.666999816894531,-0.7490000128746032
1621849827934,-2.869999885559082,8.413000106811523,-6.192999839782715,0.5099999904632568,-9.711999893188477,-0.7170000076293945
1621849827944,-2.799999952316284,9.38199996948242,-6.448999881744385,0.5490000247955322,-9.758000373840332,-0.6850000023841857
1621849827954,-2.940000057220459,10.006999969482422,-6.764999866485596,0.5879999995231628,-9.72599983215332,-0.6389999985694885
1621849827964,-2.9749999046325684,10.219999313354492,-6.763000011444092,0.5879999995231628,-9.711999893188477,-0.7170000076293945
1621849827974,-3.009999990463257,10.43299961090088,-6.761000156402588,0.5879999995231628,-9.72599983215332,-0.6389999985694885
1621849827984,-3.2200000286102295,10.869999885559082,-6.826000213623047,0.6280000209808348,-9.687000274658203,-0.6330000162124633
1621849827994,-2.799999952316284,11.121999740600586,-6.639999866485596,0.7059999704360961,-9.718999862670898,-0.6779999732971191
1621849828004,-2.869999885559082,10.845999717712402,-6.688000202178955,0.7059999704360961,-9.72599983215332,-0.6389999985694885
1621849828014,-2.869999885559082,10.996000289916992,-6.732999801635742,0.6669999957084655,-9.718999862670898,-0.6779999732971191
1621849828024,-2.7300000190734863,10.979999542236328,-7.44600009918213,0.6280000209808348,-9.68000030517578,-0.6710000038146972
1621849828034,-2.5199999809265137,10.857999801635742,-7.9660000801086435,0.6669999957084655,-9.68000030517578,-0.6710000038146972
1621849828044,-2.0299999713897705,10.796999931335447,-7.620999813079834,0.7059999704360961,-9.67300033569336,-0.7099999785423278
1621849828054,-1.8200000524520872,10.493000030517578,-7.105999946594238,0.6280000209808348,-9.758000373840332,-0.6850000023841857
1621849828064,-1.8200000524520872,10.33899974822998,-6.635000228881836,0.6280000209808348,-9.718999862670898,-0.6779999732971191
1621849828074,-1.5399999618530271,10.210000038146973,-6.302999973297119,0.5879999995231628,-9.68000030517578,-0.6710000038146972
1621849828084,-1.6100000143051147,10.083999633789062,-6.395999908447266,0.5879999995231628,-9.68000030517578,-0.6710000038146972
1621849828094,-1.4700000286102295,10.295000076293944,-6.784999847412109,0.5490000247955322,-9.718999862670898,-0.6779999732971191
1621849828103,-1.5399999618530271,10.630999565124512,-7.080999851226807,0.5099999904632568,-9.69200038909912,-0.8330000042915344
1621849828113,-1.5049999952316284,10.788999557495115,-7.373000144958496,0.5490000247955322,-9.711999893188477,-0.7170000076293945
1621849828123,-1.4700000286102295,10.946999549865724,-7.664999961853027,0.5490000247955322,-9.711999893188477,-0.7170000076293945
1621849828133,-1.3300000429153442,11.23900032043457,-8.112000465393066,0.5490000247955322,-9.65999984741211,-0.787000000476837
1621849828143,-1.5399999618530271,11.534999847412108,-7.775000095367432,0.5879999995231628,-9.697999954223633,-0.7940000295639038
1621849828153,-1.6100000143051147,11.741999626159668,-7.738999843597413,0.6280000209808348,-9.744000434875488,-0.762000024318695
1621849828163,-1.75,11.82699966430664,-8.220999717712402,0.6669999957084655,-9.75100040435791,-0.7239999771118164
1621849828173,-1.9600000381469729,12.013999938964844,-8.472999572753906,0.7059999704360961,-9.704999923706056,-0.7549999952316284
1621849828183,-2.0299999713897705,11.907999992370604,-8.277999877929688,0.7450000047683715,-9.65999984741211,-0.787000000476837
1621849828193,-2.0999999046325684,11.668999671936035,-8.532999992370605,0.7850000262260437,-9.652999877929688,-0.8259999752044677
1621849828203,-1.75,11.279999732971191,-8.744000434875488,0.7450000047683715,-9.69200038909912,-0.8330000042915344
1621849828213,-1.4700000286102295,10.736000061035156,-8.484999656677246,0.7850000262260437,-9.69200038909912,-0.8330000042915344
1621849828223,-1.4700000286102295,10.505000114440918,-8.383000373840332,0.7450000047683715,-9.69200038909912,-0.8330000042915344
1621849828233,-1.4700000286102295,9.857000350952148,-7.92899990081787,0.7850000262260437,-9.737000465393066,-0.8009999990463256
1621849828243,-1.399999976158142,9.61299991607666,-7.758999824523927,0.7850000262260437,-9.69200038909912,-0.8330000042915344
1621849828253,-1.75,9.012999534606934,-7.579999923706055,0.7850000262260437,-9.69200038909912,-0.8330000042915344
1621849828263,-1.7149999141693115,8.909500122070312,-7.598000049591064,0.7450000047683715,-9.652999877929688,-0.8259999752044677
1621849828273,-1.6799999475479126,8.805999755859375,-7.616000175476073,0.7450000047683715,-9.652999877929688,-0.8259999752044677
1621849828283,-1.4700000286102295,8.243000030517578,-7.644999980926514,0.7850000262260437,-9.69200038909912,-0.8330000042915344
1621849828293,-1.4700000286102295,8.14900016784668,-7.519000053405762,0.7850000262260437,-9.652999877929688,-0.8259999752044677
1621849828303,-1.75,7.711999893188477,-7.453999996185303,0.7450000047683715,-9.69200038909912,-0.8330000042915344
1621849828313,-1.5399999618530271,7.390999794006347,-7.652999877929688,0.7450000047683715,-9.645999908447264,-0.8640000224113464
1621849828323,-1.399999976158142,6.892000198364258,-7.243000030517577,0.7450000047683715,-9.645999908447264,-0.8640000224113464
1621849828333,-1.2599999904632568,6.316999912261963,-7.203000068664551,0.7059999704360961,-9.6850004196167,-0.8709999918937683
1621849828343,-1.190000057220459,6.386000156402588,-7.190000057220459,0.7059999704360961,-9.729999542236328,-0.8389999866485595
1621849828353,-1.399999976158142,6.203000068664551,-7.364999771118165,0.6669999957084655,-9.762000083923342,-0.8849999904632568
1621849828363,-1.190000057220459,6.376999855041504,-7.546999931335449,0.6669999957084655,-9.722999572753906,-0.8780000209808348
1621849828373,-0.8399999737739563,6.190999984741211,-7.296000003814697,0.6669999957084655,-9.65999984741211,-0.787000000476837
1621849828383,-0.4199999868869781,6.4670000076293945,-7.247000217437744,0.6669999957084655,-9.697999954223633,-0.7940000295639038
1621849828393,-0.1400000005960464,6.936999797821045,-7.0929999351501465,0.6280000209808348,-9.652999877929688,-0.8259999752044677
1621849828403,-0.3499999940395355,7.46400022506714,-6.857999801635742,0.5879999995231628,-9.704999923706056,-0.7549999952316284
1621849828413,-0.4199999868869781,7.683000087738037,-6.890999794006348,0.6280000209808348,-9.697999954223633,-0.7940000295639038
1621849828423,-0.2800000011920929,8.376999855041504,-7.195000171661377,0.6669999957084655,-9.729999542236328,-0.8389999866485595
1621849828433,-0.3849999904632568,8.607999801635742,-7.296500205993653,0.6669999957084655,-9.69200038909912,-0.8330000042915344
1621849828443,-0.4900000095367431,8.83899974822998,-7.3979997634887695,0.6669999957084655,-9.697999954223633,-0.7940000295639038
1621849828453,-0.6299999952316284,9.123000144958496,-6.992000102996826,0.6669999957084655,-9.697999954223633,-0.7940000295639038
1621849828463,-0.6299999952316284,9.208000183105469,-6.265999794006348,0.6669999957084655,-9.65999984741211,-0.787000000476837
1621849828473,-0.209999993443489,8.866999626159668,-5.544000148773193,0.6669999957084655,-9.628000259399414,-0.7419999837875366
1621849828483,-0.0700000002980232,8.607999801635742,-4.879000186920166,0.6669999957084655,-9.621000289916992,-0.7799999713897705
1621849828493,0.8399999737739563,8.631999969482422,-5.017000198364258,0.6669999957084655,-9.628000259399414,-0.7419999837875366
1621849828503,1.190000057220459,8.255000114440918,-5.296999931335449,0.6669999957084655,-9.635000228881836,-0.703000009059906
1621849828513,1.8200000524520872,7.857999801635742,-5.864999771118164,0.6669999957084655,-9.666999816894531,-0.7490000128746032
1621849828523,2.380000114440918,6.916999816894531,-6.172999858856201,0.6669999957084655,-9.718999862670898,-0.6779999732971191
1621849828533,2.309999942779541,6.057000160217285,-6.5370001792907715,0.6669999957084655,-9.758000373840332,-0.6850000023841857
1621849828543,1.9600000381469729,5.882999897003174,-6.355000019073486,0.6280000209808348,-9.758000373840332,-0.6850000023841857
1621849828553,1.6100000143051147,5.125,-6.488999843597412,0.5879999995231628,-9.803000450134276,-0.652999997138977
1621849828563,0.9800000190734864,4.710999965667725,-6.561999797821045,0.5490000247955322,-9.79599952697754,-0.6919999718666076
1621849828573,0.1400000005960464,4.953999996185303,-6.73199987411499,0.5879999995231628,-9.788999557495115,-0.7300000190734863
1621849828583,-0.4900000095367431,5.076000213623047,-7.421000003814697,0.5490000247955322,-9.788999557495115,-0.7300000190734863
1621849828593,-0.7699999809265136,5.019000053405762,-7.501999855041504,0.5490000247955322,-9.788999557495115,-0.7300000190734863
1621849828603,-1.1200000047683716,4.876999855041504,-7.10099983215332,0.5879999995231628,-9.758000373840332,-0.6850000023841857
1621849828613,-1.434999942779541,4.9704999923706055,-7.226500034332275,0.5879999995231628,-9.758000373840332,-0.6850000023841857
1621849828623,-1.75,5.064000129699707,-7.3520002365112305,0.5490000247955322,-9.711999893188477,-0.7170000076293945
1621849828633,-1.6799999475479126,5.327000141143799,-7.235000133514405,0.5490000247955322,-9.711999893188477,-0.7170000076293945
1621849828643,-1.5399999618530271,5.257999897003174,-7.247000217437744,0.5879999995231628,-9.718999862670898,-0.6779999732971191
1621849828653,-1.399999976158142,5.164999961853027,-7.120999813079834,0.5879999995231628,-9.711999893188477,-0.7170000076293945
1621849828663,-1.399999976158142,5.064000129699707,-7.3520002365112305,0.5879999995231628,-9.697999954223633,-0.7940000295639038
1621849828673,-1.3300000429153442,5.265999794006348,-8.098999977111816,0.5879999995231628,-9.666999816894531,-0.7490000128746032
1621849828683,-1.2599999904632568,5.302999973297119,-8.305000305175781,0.6280000209808348,-9.65999984741211,-0.787000000476837
1621849828693,-1.1200000047683716,5.257999897003174,-8.454999923706055,0.6669999957084655,-9.65999984741211,-0.787000000476837
1621849828703,-1.0499999523162842,5.14900016784668,-7.835000038146973,0.6669999957084655,-9.65999984741211,-0.787000000476837
1621849828713,-0.8399999737739563,4.89300012588501,-7.59600019454956,0.6280000209808348,-9.65999984741211,-0.787000000476837
1621849828723,-0.4900000095367431,4.492000102996826,-7.737999916076661,0.6280000209808348,-9.69200038909912,-0.8330000042915344
1621849828733,-0.3499999940395355,4.334000110626221,-8.050000190734863,0.7059999704360961,-9.737000465393066,-0.8009999990463256
1621849828743,-0.2800000011920929,3.996999979019165,-8.961999893188477,0.7450000047683715,-9.744000434875488,-0.762000024318695
1621849828753,-0.0700000002980232,3.4660000801086426,-8.770999908447266,0.7450000047683715,-9.744000434875488,-0.762000024318695
1621849828763,-0.0700000002980232,2.921999931335449,-8.51200008392334,0.7450000047683715,-9.65999984741211,-0.787000000476837
1621849828773,-0.0700000002980232,2.861999988555908,-8.166999816894531,0.7450000047683715,-9.704999923706056,-0.7549999952316284
1621849828783,0.1400000005960464,2.493000030517578,-8.09000015258789,0.7450000047683715,-9.666999816894531,-0.7490000128746032
1621849828793,0.2800000011920929,2.3550000190734863,-8.11400032043457,0.7059999704360961,-9.67300033569336,-0.7099999785423278
1621849828803,0.209999993443489,2.2049999237060547,-8.069999694824219,0.6669999957084655,-9.711999893188477,-0.7170000076293945
1621849828813,0.0,1.909000039100647,-8.406000137329102,0.7059999704360961,-9.711999893188477,-0.7170000076293945
1621849828823,0.0350000001490116,1.874500036239624,-8.41200065612793,0.7450000047683715,-9.69200038909912,-0.8330000042915344
1621849828833,0.0700000002980232,1.8400000333786013,-8.418000221252441,0.6669999957084655,-9.697999954223633,-0.7940000295639038
1621849828843,0.0,2.244999885559082,-8.70199966430664,0.6669999957084655,-9.697999954223633,-0.7940000295639038
1621849828853,-0.1400000005960464,2.565999984741211,-8.503999710083008,0.6669999957084655,-9.737000465393066,-0.8009999990463256
1621849828863,0.0700000002980232,2.8540000915527344,-8.52400016784668,0.7059999704360961,-9.704999923706056,-0.7549999952316284
1621849828873,-0.0700000002980232,3.0,-8.142999649047852,0.6669999957084655,-9.65999984741211,-0.787000000476837
1621849828883,0.4199999868869781,3.1540000438690186,-8.61299991607666,0.7059999704360961,-9.628000259399414,-0.7419999837875366
1621849828893,0.4900000095367431,3.611999988555908,-8.390000343322754,0.6669999957084655,-9.697999954223633,-0.7940000295639038
1621849828903,0.4900000095367431,3.79800009727478,-8.642000198364258,0.6669999957084655,-9.697999954223633,-0.7940000295639038
1621849828913,0.699999988079071,3.9440000057220455,-8.26099967956543,0.6669999957084655,-9.666999816894531,-0.7490000128746032
1621849828923,0.7699999809265136,4.081999778747559,-8.236000061035156,0.7059999704360961,-9.711999893188477,-0.7170000076293945
1621849828933,0.9100000262260436,4.126999855041504,-8.086000442504883,0.7450000047683715,-9.75100040435791,-0.7239999771118164
1621849828943,1.2599999904632568,4.322000026702881,-7.980999946594238,0.7850000262260437,-9.75100040435791,-0.7239999771118164
1621849828953,0.9800000190734864,4.507999897003174,-8.232000350952148,0.7850000262260437,-9.75100040435791,-0.7239999771118164
1621849828963,0.699999988079071,4.434999942779541,-7.818999767303467,0.7850000262260437,-9.744000434875488,-0.762000024318695
1621849828973,0.209999993443489,3.9809999465942383,-7.258999824523927,0.7850000262260437,-9.711999893188477,-0.7170000076293945
1621849828983,0.0700000002980232,3.9690001010894775,-7.190000057220459,0.7850000262260437,-9.744000434875488,-0.762000024318695
1621849828993,-0.2800000011920929,3.8310000896453857,-7.21400022506714,0.7850000262260437,-9.788999557495115,-0.7300000190734863
1621849829003,-0.6299999952316284,3.6480000019073486,-7.388999938964843,0.8240000009536743,-9.782999992370604,-0.7689999938011169
1621849829013,-1.1200000047683716,2.7730000019073486,-7.258999824523927,0.7850000262260437,-9.866999626159668,-0.7440000176429749
1621849829023,-1.75,2.509000062942505,-7.375999927520752,0.7850000262260437,-9.897999763488768,-0.7889999747276306
1621849829033,-2.799999952316284,2.4600000381469727,-7.10099983215332,0.7850000262260437,-9.904999732971191,-0.7509999871253967
1621849829043,-3.569999933242798,2.436000108718872,-6.9629998207092285,0.8240000009536743,-9.904999732971191,-0.7509999871253967
1621849829053,-4.059999942779541,2.5394999980926514,-6.944499969482422,0.8240000009536743,-9.897999763488768,-0.7889999747276306
1621849829063,-4.550000190734863,2.6429998874664307,-6.926000118255615,0.7850000262260437,-9.897999763488768,-0.7889999747276306
1621849829073,-5.53000020980835,2.7320001125335693,-6.625999927520752,0.8240000009536743,-9.859999656677246,-0.7829999923706054
1621849829083,-6.579999923706055,2.74399995803833,-6.695000171661377,0.7850000262260437,-9.82800006866455,-0.7369999885559082
1621849829093,-7.769999980926514,2.765000104904175,-6.4070000648498535,0.8240000009536743,-9.821000099182127,-0.7760000228881835
1621849829103,-8.680000305175781,2.805000066757202,-5.830999851226807,0.8240000009536743,-9.737000465393066,-0.8009999990463256
1621849829113,-8.960000038146973,3.0450000762939453,-5.576000213623047,0.8629999756813049,-9.65999984741211,-0.787000000476837
1621849829123,-9.380000114440918,2.553999900817871,-4.809999942779541,0.8240000009536743,-9.652999877929688,-0.8259999752044677
1621849829133,-9.3100004196167,2.8910000324249268,-3.8970000743865967,0.8240000009536743,-9.652999877929688,-0.8259999752044677
1621849829143,-9.100000381469728,2.8580000400543213,-2.9079999923706055,0.8240000009536743,-9.621000289916992,-0.7799999713897705
1621849829153,-8.680000305175781,2.444999933242798,-2.9809999465942383,0.7850000262260437,-9.576000213623049,-0.8119999766349792
1621849829163,-8.050000190734863,2.6600000858306885,-3.7960000038146977,0.8240000009536743,-9.569000244140623,-0.8510000109672546
1621849829173,-7.769999980926514,2.2130000591278076,-4.0879998207092285,0.7450000047683715,-9.562000274658203,-0.8889999985694885
1621849829183,-7.420000076293945,2.0350000858306885,-4.688000202178955,0.7059999704360961,-9.55500030517578,-0.9279999732971193
1621849829193,-6.71999979019165,1.9579999446868896,-5.057000160217285,0.7059999704360961,-9.517000198364256,-0.9210000038146972
1621849829203,-5.53000020980835,1.812000036239624,-5.438000202178955,0.6669999957084655,-9.54800033569336,-0.9670000076293944
1621849829213,-4.760000228881836,1.6699999570846558,-5.0370001792907715,0.6669999957084655,-9.586999893188477,-0.9729999899864196
1621849829223,-4.480000019073486,1.2599999904632568,-5.534999847412109,0.6669999957084655,-9.586999893188477,-0.9729999899864196
1621849829233,-3.7799999713897705,1.159000039100647,-5.765999794006348,0.6280000209808348,-9.633000373840332,-0.9419999718666076
1621849829243,-3.0799999237060547,1.6050000190734863,-6.683000087738037,0.6280000209808348,-9.612000465393066,-1.0579999685287476
1621849829253,-2.5199999809265137,2.128000020980835,-7.230000019073486,0.5879999995231628,-9.657999992370604,-1.0260000228881836
1621849829263,-1.8899999856948853,3.0769999027252197,-7.77400016784668,0.5879999995231628,-9.657999992370604,-1.0260000228881836
1621849829273,-1.8200000524520872,3.3399999141693115,-7.656000137329101,0.6280000209808348,-9.657999992370604,-1.0260000228881836
1621849829283,-1.399999976158142,4.13100004196167,-7.30399990081787,0.6669999957084655,-9.663999557495115,-0.9869999885559082
1621849829293,-1.5399999618530271,4.808000087738037,-7.11299991607666,0.7059999704360961,-9.70300006866455,-0.9940000176429749
1621849829303,-1.6100000143051147,5.0960001945495605,-7.132999897003174,0.7059999704360961,-9.696000099182127,-1.0329999923706057
1621849829313,-1.680000066757202,5.134500026702881,-6.94849967956543,0.7059999704360961,-9.67099952697754,-0.9480000138282776
1621849829323,-1.75,5.172999858856201,-6.763999938964844,0.7059999704360961,-9.710000038146973,-0.9549999833106994
1621849829333,-2.0299999713897705,5.6479997634887695,-7.035999774932861,0.7450000047683715,-9.710000038146973,-0.9549999833106994
1621849829343,-2.0999999046325684,6.052999973297119,-7.320000171661377,0.7450000047683715,-9.710000038146973,-0.9549999833106994
1621849829353,-2.240000009536743,6.321000099182129,-6.420000076293945,0.7450000047683715,-9.710000038146973,-0.9549999833106994
1621849829363,-2.0999999046325684,6.567999839782715,-5.808000087738037,0.7450000047683715,-9.67099952697754,-0.9480000138282776
1621849829373,-2.240000009536743,6.26800012588501,-5.7179999351501465,0.7850000262260437,-9.67099952697754,-0.9480000138282776
1621849829383,-2.1700000762939453,6.0289998054504395,-5.973999977111816,0.7850000262260437,-9.67099952697754,-0.9480000138282776
1621849829393,-2.0999999046325684,5.890999794006348,-5.998000144958496,0.7850000262260437,-9.70300006866455,-0.9940000176429749
1621849829403,-1.8200000524520872,5.563000202178955,-6.553999900817871,0.7850000262260437,-9.70300006866455,-0.9940000176429749
1621849829413,-1.8899999856948853,5.413000106811523,-6.508999824523926,0.8629999756813049,-9.696000099182127,-1.0329999923706057
1621849829423,-2.309999942779541,4.949999809265137,-6.306000232696533,0.8629999756813049,-9.734999656677246,-1.0390000343322754
1621849829433,-3.2200000286102295,4.264999866485596,-5.644999980926514,0.8240000009536743,-9.779999732971191,-1.0080000162124634
1621849829443,-4.059999942779541,3.5350000858306885,-5.133999824523926,0.8240000009536743,-9.779999732971191,-1.0080000162124634
1621849829453,-5.25,3.67300009727478,-5.110000133514404,0.7850000262260437,-9.786999702453612,-0.968999981880188
1621849829463,-5.809999942779541,3.555999994277954,-4.8460001945495605,0.7450000047683715,-9.779999732971191,-1.0080000162124634
1621849829473,-6.369999885559082,3.299999952316284,-4.60699987411499,0.7450000047683715,-9.741999626159668,-1.0010000467300415
1621849829483,-6.71999979019165,3.4019999504089355,-4.375999927520752,0.7450000047683715,-9.741999626159668,-1.0010000467300415
1621849829493,-6.929999828338623,3.572000026702881,-4.132999897003174,0.7059999704360961,-9.67099952697754,-0.9480000138282776
1621849829503,-7.489999771118165,3.072999954223633,-3.723000049591065,0.7059999704360961,-9.663999557495115,-0.9869999885559082
1621849829513,-7.769999980926514,2.7769999504089355,-4.059000015258789,0.7850000262260437,-9.696000099182127,-1.0329999923706057
1621849829523,-7.699999809265136,2.8910000324249268,-3.8970000743865967,0.7450000047683715,-9.696000099182127,-1.0329999923706057
1621849829533,-7.489999771118165,2.627000093460083,-4.014999866485596,0.7450000047683715,-9.689000129699709,-1.0709999799728394
1621849829543,-7.489999771118165,2.2130000591278076,-4.0879998207092285,0.7450000047683715,-9.651000022888184,-1.0640000104904177
1621849829553,-7.210000038146973,2.0880000591278076,-4.181000232696533,0.6669999957084655,-9.64400005340576,-1.1030000448226929
1621849829563,-7.139999866485596,1.99399995803833,-4.054999828338623,0.6669999957084655,-9.637000083923342,-1.1419999599456787
1621849829573,-6.929999828338623,1.9299999475479128,-4.493000030517578,0.7450000047683715,-9.630000114440918,-1.1799999475479126
1621849829583,-7.0,0.9850000143051147,-4.375,0.7450000047683715,-9.668999671936035,-1.187000036239624
1621849829593,-7.105000019073486,0.5024999976158142,-4.4604997634887695,0.7850000262260437,-9.661999702453612,-1.22599995136261
1621849829603,-7.210000038146973,0.0199999995529651,-4.546000003814697,0.8240000009536743,-9.62399959564209,-1.218999981880188
1621849829613,-6.929999828338623,-0.8889999985694885,-4.635000228881836,0.8629999756813049,-9.553000450134276,-1.1670000553131104
1621849829623,-6.230000019073486,-2.441999912261963,-4.695000171661377,0.8629999756813049,-9.520999908447264,-1.1210000514984133
1621849829633,-4.619999885559082,-4.0960001945495605,-4.986999988555908,0.8629999756813049,-9.39900016784668,-1.1390000581741333
1621849829643,-3.009999990463257,-5.755000114440918,-4.853000164031982,0.8240000009536743,-9.335000038146973,-1.0490000247955322
1621849829653,-0.699999988079071,-7.883999824523927,-4.873000144958496,0.7850000262260437,-9.335000038146973,-1.0490000247955322
1621849829663,1.75,-9.732999801635742,-5.269999980926514,0.7450000047683715,-9.335000038146973,-1.0490000247955322
1621849829673,4.130000114440918,-11.460000038146973,-5.1479997634887695,0.7059999704360961,-9.335000038146973,-1.0490000247955322
1621849829683,6.300000190734863,-13.38599967956543,-4.705999851226807,0.7059999704360961,-9.303000450134276,-1.003000020980835
1621849829693,8.399999618530273,-15.25100040435791,-4.607999801635742,0.6669999957084655,-9.342000007629396,-1.0099999904632568
1621849829703,10.359999656677246,-16.9950008392334,-5.199999809265137,0.6280000209808348,-9.354999542236328,-0.9330000281333924
1621849829713,12.460000038146973,-19.003000259399418,-5.909999847412109,0.5879999995231628,-9.407999992370604,-0.8619999885559082
1621849829723,14.0,-20.621000289916992,-6.4079999923706055,0.5099999904632568,-9.467000007629396,-0.7530000209808348
1621849829733,15.260000228881836,-21.820999145507812,-7.258999824523927,0.4709999859333038,-9.472999572753906,-0.7139999866485595
1621849829743,16.239999771118164,-22.50200080871582,-8.232999801635742,0.4709999859333038,-9.526000022888184,-0.6439999938011169
1621849829753,16.940000534057617,-23.239999771118164,-9.286999702453612,0.4309999942779541,-9.571000099182127,-0.6119999885559082
1621849829763,17.43000030517578,-23.788000106811523,-8.60099983215332,0.4309999942779541,-9.654999732971191,-0.5870000123977661
1621849829773,17.709999084472656,-24.14900016784668,-8.166999816894531,0.3919999897480011,-9.727999687194824,-0.4009999930858612
1621849829783,18.270000457763672,-24.554000854492188,-7.883999824523927,0.3140000104904174,-9.767000198364256,-0.4079999923706054
1621849829793,18.270000457763672,-24.461000442504883,-8.008999824523926,0.3140000104904174,-9.760000228881836,-0.4460000097751617
1621849829803,18.1299991607666,-23.85300064086914,-7.830999851226807,0.2750000059604644,-9.836999893188477,-0.4600000083446502
1621849829813,17.290000915527344,-22.940000534057617,-8.168000221252441,0.2349999994039535,-9.88199996948242,-0.4280000030994415
1621849829823,16.309999465942383,-21.854000091552734,-8.687000274658203,0.1959999948740005,-9.88199996948242,-0.4280000030994415
1621849829833,15.119999885559082,-20.8799991607666,-9.368000030517578,0.1959999948740005,-9.888999938964846,-0.3889999985694885
1621849829843,13.789999961853027,-19.77300071716309,-9.598999977111816,0.1959999948740005,-9.913999557495115,-0.4740000069141387
1621849829852,12.600000381469728,-18.760000228881836,-9.704999923706056,0.2750000059604644,-9.906999588012695,-0.512000024318695
1621849829862,11.340000152587892,-17.798999786376953,-10.31700038909912,0.2349999994039535,-9.946000099182127,-0.5189999938011169
1621849829872,10.359999656677246,-16.792999267578125,-10.779999732971191,0.2750000059604644,-9.906999588012695,-0.512000024318695
1621849829882,9.3100004196167,-15.836000442504885,-10.967000007629396,0.2750000059604644,-9.925999641418455,-0.6349999904632568
1621849829892,8.75,-15.374000549316406,-11.169500350952148,0.3140000104904174,-9.96399974822998,-0.6420000195503234
1621849829902,8.1899995803833,-14.911999702453612,-11.371999740600586,0.3140000104904174,-10.003000259399414,-0.6480000019073486
1621849829912,6.860000133514404,-13.779999732971191,-11.741000175476074,0.3529999852180481,-9.996000289916992,-0.6869999766349792
1621849829922,5.389999866485596,-12.588000297546388,-12.454999923706056,0.3919999897480011,-9.996000289916992,-0.6869999766349792
1621849829932,3.849999904632568,-11.69200038909912,-12.296999931335447,0.3919999897480011,-9.98900032043457,-0.7260000109672546
1621849829942,2.7300000190734863,-10.892999649047852,-11.588000297546388,0.4309999942779541,-10.020999908447266,-0.7710000276565551
1621849829952,0.9100000262260436,-10.114999771118164,-11.166000366210938,0.4709999859333038,-10.078000068664553,-0.9010000228881836
1621849829962,-1.6799999475479126,-9.14099979400635,-10.638999938964844,0.4709999859333038,-10.102999687194824,-0.9850000143051147
1621849829972,-3.9200000762939458,-8.39900016784668,-10.01099967956543,0.4709999859333038,-10.05799961090088,-1.0169999599456787
1621849829982,-6.159999847412109,-7.494999885559082,-9.496000289916992,0.4709999859333038,-10.050999641418455,-1.0549999475479126
1621849829992,-8.329999923706055,-6.676000118255615,-8.498000144958496,0.4709999859333038,-10.005000114440918,-1.087000012397766
1621849830002,-10.640000343322754,-6.204999923706055,-7.136000156402588,0.4709999859333038,-9.92099952697754,-1.1119999885559082
1621849830012,-11.829999923706056,-5.539999961853027,-5.668000221252441,0.5490000247955322,-9.902999877929688,-0.9890000224113464
1621849830022,-13.090000152587892,-4.9029998779296875,-4.84499979019165,0.5490000247955322,-9.812000274658203,-1.0529999732971191
1621849830032,-13.789999961853027,-4.696000099182129,-4.809000015258789,0.5490000247955322,-9.836999893188477,-1.1369999647140503
1621849830042,-15.050000190734863,-4.205999851226807,-4.367000102996826,0.5879999995231628,-9.822999954223633,-1.2139999866485596
1621849830052,-16.239999771118164,-4.330999851226807,-4.460000038146973,0.5879999995231628,-9.8100004196167,-1.2920000553131104
1621849830062,-17.149999618530273,-4.184999942779541,-5.2870001792907715,0.6280000209808348,-9.777999877929688,-1.2460000514984133
1621849830072,-17.149999618530273,-3.5,-5.947999954223633,0.6669999957084655,-9.538999557495115,-1.24399995803833
1621849830082,-16.170000076293945,-2.9200000762939453,-6.414999961853027,0.6669999957084655,-9.345999717712402,-1.2100000381469729
1621849830092,-14.279999732971191,-2.194999933242798,-7.708000183105469,0.6669999957084655,-9.19200038909912,-1.1829999685287476
1621849830102,-11.6899995803833,-1.61899995803833,-8.956999778747559,0.6669999957084655,-9.076000213623049,-1.1619999408721924
1621849830112,-8.470000267028809,-1.0720000267028809,-9.642999649047852,0.7450000047683715,-9.036999702453612,-1.1549999713897705
1621849830122,-4.480000019073486,-0.2529999911785125,-9.854000091552734,0.7850000262260437,-9.043999671936035,-1.1169999837875366
1621849830132,-0.6299999952316284,-0.1430000066757202,-9.26599979400635,0.7850000262260437,-9.005000114440918,-1.1100000143051147
1621849830142,3.7100000381469727,-0.8690000176429749,-7.972000122070312,0.7450000047683715,-9.083000183105469,-1.1239999532699585
1621849830152,6.650000095367432,-1.5950000286102295,-6.677999973297119,0.6669999957084655,-9.18000030517578,-1.0210000276565552
1621849830162,7.8400001525878915,-1.7365000247955322,-5.672499656677246,0.6669999957084655,-9.3100004196167,-0.9639999866485596
1621849830172,9.029999732971191,-1.878000020980835,-4.666999816894531,0.6280000209808348,-9.46399974822998,-0.9919999837875366
1621849830182,10.079999923706056,-2.684999942779541,-2.1080000400543213,0.5099999904632568,-9.633000373840332,-0.9419999718666076
1621849830192,10.010000228881836,-3.5320000648498535,1.0829999446868896,0.4309999942779541,-9.755000114440918,-0.9229999780654908
1621849830202,9.59000015258789,-4.229000091552734,4.230000019073486,0.3140000104904174,-9.80799961090088,-0.8529999852180481
1621849830212,9.100000381469728,-4.75600004196167,6.4120001792907715,0.1570000052452087,-9.776000022888184,-0.8080000281333923
1621849830222,9.239999771118164,-4.758999824523926,8.045999526977539,0.0780000016093254,-9.758000373840332,-0.6850000023841857
1621849830232,10.149999618530272,-4.14300012588501,8.581000328063965,0.0,-9.654999732971191,-0.5870000123977661
1621849830242,11.970000267028809,-3.4049999713897705,7.217999935150147,-0.0780000016093254,-9.592000007629396,-0.4959999918937683
1621849830252,14.0,-2.111999988555908,4.318999767303467,-0.1180000007152557,-9.541999816894531,-0.328000009059906
1621849830262,15.470000267028809,-0.2919999957084655,0.4460000097751617,-0.1180000007152557,-9.63199996948242,-0.2649999856948852
1621849830272,15.81999969482422,1.9459999799728391,-3.7799999713897705,-0.1570000052452087,-9.710000038146973,-0.277999997138977
1621849830282,15.470000267028809,3.441999912261963,-7.425000190734864,-0.0390000008046627,-9.826000213623049,-0.2989999949932098
1621849830292,13.4399995803833,4.682000160217285,-9.623000144958496,0.0390000008046627,-9.947999954223633,-0.2800000011920929
1621849830302,10.220000267028809,5.699999809265137,-11.36299991607666,0.1180000007152557,-10.08199977874756,-0.4239999949932098
1621849830312,6.71999979019165,6.5960001945495605,-12.413000106811523,0.1570000052452087,-10.159999847412108,-0.4370000064373016
1621849830322,3.5,7.422999858856201,-13.47599983215332,0.2349999994039535,-10.197999954223633,-0.4440000057220459
1621849830332,-0.1400000005960464,8.02299976348877,-13.654000282287598,0.3529999852180481,-10.222999572753906,-0.527999997138977
1621849830342,-3.0799999237060547,8.472999572753906,-12.579999923706056,0.3919999897480011,-10.178000450134276,-0.5600000023841857
1621849830352,-4.829999923706055,8.717000007629395,-11.541999816894531,0.4709999859333038,-10.05500030517578,-0.578000009059906
1621849830362,-5.880000114440918,8.8100004196167,-10.458999633789062,0.5490000247955322,-9.89400005340576,-0.5889999866485595
1621849830372,-6.369999885559082,8.262999534606934,-8.5649995803833,0.5879999995231628,-9.81700038909912,-0.5759999752044677
1621849830382,-5.949999809265137,8.121000289916992,-6.954999923706055,0.5879999995231628,-9.73900032043457,-0.5619999766349792
1621849830392,-5.110000133514404,7.443999767303467,-5.938000202178955,0.5879999995231628,-9.661999702453612,-0.5490000247955322
1621849830402,-4.199999809265137,6.928999900817871,-5.0329999923706055,0.5490000247955322,-9.5600004196167,-0.4510000050067901
1621849830412,-3.2899999618530273,6.697999954223633,-4.327499866485596,0.5490000247955322,-9.513999938964846,-0.4830000102519989
1621849830422,-2.380000114440918,6.4670000076293945,-3.621999979019165,0.4309999942779541,-9.43000030517578,-0.5080000162124633
1621849830432,-0.699999988079071,5.701000213623047,-2.9040000438690186,0.4309999942779541,-9.437000274658203,-0.4690000116825103
1621849830442,1.4700000286102295,5.089000225067139,-2.6570000648498535,0.3919999897480011,-9.437000274658203,-0.4690000116825103
1621849830452,3.5,4.5370001792907715,-2.753999948501587,0.3529999852180481,-9.520999908447264,-0.4440000057220459
1621849830462,4.550000190734863,4.127999782562256,-3.253000020980835,0.3140000104904174,-9.520999908447264,-0.4440000057220459
1621849830472,5.110000133514404,3.9939999580383305,-3.7030000686645503,0.3140000104904174,-9.597999572753906,-0.4580000042915344
1621849830482,5.53000020980835,3.9170000553131104,-4.072000026702881,0.2750000059604644,-9.637000083923342,-0.4639999866485595
1621849830492,5.389999866485596,3.7260000705718994,-4.603000164031982,0.2349999994039535,-9.675999641418455,-0.4709999859333038
1621849830502,5.110000133514404,4.126999855041504,-4.460999965667725,0.1959999948740005,-9.760000228881836,-0.4460000097751617
1621849830512,4.480000019073486,4.244999885559082,-4.724999904632568,0.1570000052452087,-9.843999862670898,-0.4210000038146972
1621849830522,4.059999942779541,4.698999881744385,-5.283999919891357,0.1570000052452087,-9.836999893188477,-0.4600000083446502
1621849830532,2.799999952316284,4.788000106811523,-4.984000205993652,0.1570000052452087,-9.87600040435791,-0.4670000076293945
1621849830542,1.9600000381469729,5.263000011444092,-5.25600004196167,0.1570000052452087,-9.913999557495115,-0.4740000069141387
1621849830552,1.0499999523162842,5.310999870300293,-5.5320000648498535,0.1959999948740005,-9.984999656677246,-0.5260000228881835
1621849830562,-0.209999993443489,5.955999851226807,-5.559999942779541,0.1959999948740005,-9.95300006866455,-0.4799999892711639
1621849830572,-1.6799999475479126,6.093999862670898,-5.535999774932861,0.2349999994039535,-9.95300006866455,-0.4799999892711639
1621849830582,-2.309999942779541,6.135000228881836,-4.960000038146973,0.2349999994039535,-9.87600040435791,-0.4670000076293945
1621849830592,-2.799999952316284,5.984000205993652,-4.914999961853027,0.2750000059604644,-9.822999954223633,-0.537000000476837
1621849830602,-2.799999952316284,5.879000186920166,-4.7210001945495605,0.2349999994039535,-9.791999816894531,-0.492000013589859
