timestamp,gyro_x,gyro_y,gyro_z,acc_x,acc_y,acc_z
1621591832033,0.0,0.0,0.0,0.0,0.0,0.0
1621591832682,-2.0299999713897705,194.7969970703125,-31.25900077819824,0.7059999704360961,-9.22599983215332,1.0420000553131104
1621591832692,0.4199999868869781,195.3780059814453,-28.100000381469727,0.7850000262260437,-9.154999732971191,1.093999981880188
1621591832702,2.1700000762939453,196.01499938964844,-23.652000427246097,0.8629999756813049,-9.23900032043457,1.11899995803833
1621591832712,2.5199999809265137,197.24400329589844,-19.73900032043457,0.9409999847412108,-9.46399974822998,1.0399999618530271
1621591832722,1.6799999475479126,197.4069976806641,-18.643999099731445,1.0199999809265137,-9.737000465393066,1.2309999465942385
1621591832732,1.4700000286102295,197.75100708007812,-19.79199981689453,1.0199999809265137,-9.807000160217283,1.1779999732971191
1621591832742,1.6100000143051147,196.98500061035156,-20.281999588012695,1.215999960899353,-9.76900005340576,1.184999942779541
1621591832752,2.5899999141693115,195.375,-19.21500015258789,1.3730000257492063,-9.65999984741211,1.24399995803833
1621591832762,4.340000152587891,193.25,-18.45299911499023,1.4509999752044678,-9.505000114440918,1.2719999551773071
1621591832772,5.670000076293945,190.54600524902344,-17.224000930786133,1.4119999408721924,-9.479999542236328,1.3559999465942385
1621591832782,6.159999847412109,187.9750061035156,-15.545000076293944,1.4509999752044678,-9.487000465393066,1.3940000534057615
1621591832792,6.159999847412109,185.33900451660156,-14.303000450134276,1.5299999713897705,-9.487000465393066,1.3940000534057615
1621591832802,6.300000190734863,182.3710021972656,-15.609000205993652,1.569000005722046,-9.494000434875488,1.4329999685287476
1621591832812,6.650000095367432,180.5240020751953,-16.822999954223633,1.6080000400543213,-9.461999893188477,1.4780000448226929
1621591832822,7.0,178.677001953125,-18.03700065612793,1.6480000019073486,-9.385000228881836,1.4919999837875366
1621591832832,8.399999618530273,174.4550018310547,-19.492000579833984,1.7649999856948853,-9.222999572753906,1.4809999465942385
1621591832842,10.079999923706056,170.1280059814453,-19.54400062561035,1.843999981880188,-9.190999984741213,1.5260000228881836
1621591832852,11.760000228881836,165.72900390625,-19.183000564575195,1.8040000200271609,-9.190999984741213,1.5260000228881836
1621591832862,13.369999885559082,161.5279998779297,-20.350000381469727,1.7649999856948853,-9.190999984741213,1.5260000228881836
1621591832872,14.350000381469728,157.6179962158203,-21.964000701904297,1.687000036239624,-9.229999542236328,1.5190000534057615
1621591832882,15.050000190734863,153.3159942626953,-23.36199951171875,1.72599995136261,-9.190999984741213,1.5260000228881836
1621591832892,15.68000030517578,149.04600524902344,-25.75,1.72599995136261,-9.1850004196167,1.4869999885559082
1621591832902,17.079999923706055,144.79200744628906,-28.631999969482425,1.7649999856948853,-9.107000350952148,1.5010000467300415
1621591832912,19.040000915527344,140.61099243164062,-30.719999313354492,1.72599995136261,-9.10099983215332,1.462000012397766
1621591832922,20.649999618530273,137.09100341796875,-32.12200164794922,1.7649999856948853,-9.11400032043457,1.5399999618530271
1621591832932,21.0,133.96800231933594,-31.749000549316406,1.8040000200271609,-9.204999923706056,1.6030000448226929
1621591832942,20.510000228881836,131.09800720214844,-31.18899917602539,1.7649999856948853,-9.411999702453612,1.6460000276565552
1621591832952,18.690000534057617,128.38099670410156,-31.099000930786133,1.8040000200271609,-9.625,1.7280000448226929
1621591832962,17.290000915527344,126.79550170898438,-30.77450180053711,1.843999981880188,-9.793999671936035,1.7779999971389773
1621591832972,15.890000343322754,125.20999908447266,-30.450000762939453,1.9220000505447388,-9.878000259399414,1.8029999732971191
1621591832982,12.880000114440918,121.81199645996094,-28.91699981689453,2.0399999618530273,-10.130000114440918,1.878000020980835
1621591832992,9.380000114440918,118.8030014038086,-27.17300033569336,1.9220000505447388,-10.196000099182127,2.0260000228881836
1621591833002,6.369999885559082,116.8000030517578,-27.100000381469727,1.843999981880188,-10.163999557495115,2.072000026702881
1621591833012,3.7100000381469727,115.0,-27.77199935913086,1.843999981880188,-10.163999557495115,2.072000026702881
1621591833022,0.7699999809265136,112.875,-27.010000228881836,1.8830000162124632,-10.215999603271484,2.1419999599456787
1621591833032,-2.309999942779541,111.07900238037108,-23.274999618530273,1.9220000505447388,-10.255000114440918,2.134999990463257
1621591833042,-4.829999923706055,108.81700134277344,-20.1200008392334,1.8830000162124632,-10.02299976348877,2.1760001182556152
1621591833052,-6.71999979019165,105.76799774169922,-17.743000030517578,1.8830000162124632,-9.984000205993652,2.183000087738037
1621591833062,-7.8400001525878915,103.37999725341795,-14.680999755859377,1.843999981880188,-9.868000030517578,2.203000068664551
1621591833072,-9.170000076293944,101.40200042724608,-11.121000289916992,1.72599995136261,-9.791000366210936,2.2170000076293945
1621591833082,-10.010000228881836,100.24600219726562,-9.404999732971191,1.569000005722046,-9.829999923706056,2.2100000381469727
1621591833092,-10.920000076293944,99.53700256347656,-8.605999946594238,1.491000056266785,-9.946000099182127,2.190000057220459
1621591833102,-11.760000228881836,99.42550659179688,-8.376999855041504,1.4509999752044678,-10.008999824523926,2.0989999771118164
1621591833112,-12.600000381469728,99.31400299072264,-8.14799976348877,1.491000056266785,-10.079999923706056,2.046999931335449
1621591833122,-14.770000457763672,98.62899780273438,-6.2789998054504395,1.491000056266785,-10.027999877929688,1.97599995136261
1621591833132,-16.520000457763672,97.18499755859376,-4.543000221252441,1.491000056266785,-9.937000274658203,1.9119999408721924
1621591833142,-17.780000686645508,95.77799987792967,-3.013999938964844,1.4119999408721924,-9.859000205993652,1.9259999990463257
1621591833152,-17.989999771118164,94.24199676513672,-2.361000061035156,1.2940000295639038,-9.859000205993652,1.9259999990463257
1621591833162,-17.5,93.46700286865236,-2.0,1.1770000457763672,-9.781999588012695,1.940000057220459
1621591833172,-17.43000030517578,92.86699676513672,-3.0299999713897705,1.0590000152587893,-9.774999618530272,1.9010000228881836
1621591833182,-17.43000030517578,92.125,-3.6579999923706055,0.9409999847412108,-9.845999717712402,1.8489999771118164
1621591833192,-17.5,92.10099792480467,-3.5199999809265137,0.8240000009536743,-9.883999824523924,1.8420000076293943
1621591833202,-18.200000762939453,91.7480010986328,-3.937999963760376,0.7450000047683715,-9.878000259399414,1.8029999732971191
1621591833212,-18.899999618530273,91.5979995727539,-3.89299988746643,0.7059999704360961,-9.909000396728516,1.7580000162124634
1621591833222,-20.15999984741211,91.56099700927734,-3.687000036239624,0.7059999704360961,-9.857000350952148,1.687000036239624
1621591833232,-20.93000030517578,91.41500091552734,-4.067999839782715,0.7059999704360961,-9.812000274658203,1.656000018119812
1621591833242,-20.790000915527344,90.28399658203124,-4.9070000648498535,0.7450000047683715,-9.689000129699709,1.6369999647140503
1621591833252,-20.86000061035156,89.39600372314453,-4.708000183105469,0.8240000009536743,-9.565999984741213,1.61899995803833
1621591833262,-20.579999923706055,88.86650085449219,-4.730500221252441,0.7450000047683715,-9.444000244140623,1.60099995136261
1621591833272,-20.299999237060547,88.33699798583984,-4.752999782562256,0.7059999704360961,-9.449999809265137,1.6399999856948853
1621591833282,-19.950000762939453,87.86699676513672,-6.114999771118164,0.6280000209808348,-9.590999603271484,1.5349999666213987
1621591833292,-20.09000015258789,87.59500122070312,-7.797999858856201,0.6280000209808348,-9.70699977874756,1.5149999856948853
1621591833302,-20.510000228881836,87.23400115966797,-8.571999549865723,0.6280000209808348,-9.777999877929688,1.462000012397766
1621591833312,-21.209999084472656,87.35099792480469,-8.836000442504883,0.7059999704360961,-9.777999877929688,1.462000012397766
1621591833322,-21.700000762939453,87.02300262451172,-9.39099979400635,0.9020000100135804,-9.68000030517578,1.3600000143051147
1621591833332,-21.84000015258789,85.822998046875,-9.034000396728516,1.0199999809265137,-9.602999687194824,1.3739999532699585
1621591833342,-21.209999084472656,84.35099792480469,-9.152000427246092,1.0980000495910645,-9.524999618530272,1.3869999647140503
1621591833352,-20.649999618530273,82.15699768066406,-9.609999656677246,1.215999960899353,-9.4350004196167,1.3240000009536743
1621591833362,-19.530000686645508,79.81700134277344,-10.449000358581545,1.3339999914169312,-9.395999908447264,1.3309999704360962
1621591833372,-18.40999984741211,76.8280029296875,-10.833000183105469,1.3730000257492063,-9.350000381469728,1.2990000247955322
1621591833382,-17.290000915527344,73.54000091552734,-11.128999710083008,1.491000056266785,-9.343999862670898,1.2599999904632568
1621591833392,-16.8700008392334,70.38899993896484,-11.399999618530272,1.5299999713897705,-9.343999862670898,1.2599999904632568
1621591833402,-16.59000015258789,66.97899627685547,-11.005999565124512,1.569000005722046,-9.30500030517578,1.2669999599456787
1621591833412,-16.450000762939453,65.49899291992188,-10.876499176025392,1.6080000400543213,-9.26599979400635,1.27400004863739
1621591833422,-16.309999465942383,64.01899719238281,-10.746999740600586,1.6080000400543213,-9.227999687194824,1.281000018119812
1621591833432,-16.239999771118164,61.492000579833984,-11.333999633789064,1.72599995136261,-9.12600040435791,1.378000020980835
1621591833442,-16.450000762939453,58.72700119018555,-12.177000045776367,1.8040000200271609,-9.072999954223633,1.3079999685287476
1621591833452,-16.100000381469727,56.43600082397461,-13.291999816894531,1.9220000505447388,-9.086999893188477,1.3849999904632568
1621591833462,-15.050000190734863,53.6619987487793,-13.284000396728516,2.000999927520752,-9.079999923706056,1.3459999561309814
1621591833472,-14.06999969482422,50.007999420166016,-12.718999862670898,2.0399999618530273,-9.156999588012695,1.3329999446868896
1621591833482,-12.949999809265137,45.422000885009766,-10.89799976348877,2.000999927520752,-9.272999763488768,1.312000036239624
1621591833492,-11.899999618530272,41.69599914550781,-8.711999893188477,2.000999927520752,-9.324999809265137,1.3830000162124634
1621591833502,-11.409999847412108,38.00199890136719,-7.514999866485595,2.000999927520752,-9.357000350952148,1.337000012397766
1621591833512,-11.0600004196167,34.819000244140625,-8.005000114440918,2.0789999961853027,-9.428000450134276,1.2849999666213987
1621591833521,-11.130000114440918,32.16699981689453,-8.685999870300293,2.118000030517578,-9.505000114440918,1.2719999551773071
1621591833531,-11.130000114440918,29.56399917602539,-9.642999649047852,2.118000030517578,-9.536999702453612,1.22599995136261
1621591833541,-11.760000228881836,26.132999420166016,-10.744999885559082,2.197000026702881,-9.498000144958496,1.2330000400543213
1621591833551,-12.25,22.325000762939453,-12.128000259399414,2.236000061035156,-9.498000144958496,1.2330000400543213
1621591833561,-12.18000030517578,18.128000259399418,-11.303999900817873,2.197000026702881,-9.569000244140623,1.180999994277954
1621591833571,-12.18000030517578,16.214500427246094,-10.326499938964844,2.0789999961853027,-9.715999603271484,1.1150000095367432
1621591833581,-12.18000030517578,14.300999641418455,-9.348999977111816,2.0399999618530273,-9.871000289916992,1.0880000591278076
1621591833591,-11.6899995803833,10.87399959564209,-8.460000038146973,2.000999927520752,-9.940999984741213,1.0349999666213987
1621591833601,-10.710000038146973,8.590999603271484,-9.218000411987305,2.0789999961853027,-9.850000381469728,0.9720000028610228
1621591833611,-10.359999656677246,6.474999904632568,-9.307000160217283,2.0399999618530273,-9.88199996948242,0.9259999990463256
1621591833621,-9.449999809265137,4.386000156402588,-8.75100040435791,2.0399999618530273,-9.888999938964846,0.9649999737739564
1621591833631,-8.119999885559082,2.3269999027252197,-7.551000118255616,2.000999927520752,-9.928000450134276,0.9580000042915344
1621591833641,-7.489999771118165,-0.0410000011324882,-5.408999919891357,1.9609999656677248,-9.928000450134276,0.9580000042915344
1621591833651,-6.71999979019165,-2.259000062942505,-3.312999963760376,1.8830000162124632,-9.92099952697754,0.9190000295639038
1621591833661,-5.880000114440918,-3.9779999256134033,-1.625,1.843999981880188,-9.95300006866455,0.8740000128746032
1621591833671,-4.829999923706055,-5.818999767303467,-0.4569999873638153,1.843999981880188,-9.875,0.8880000114440918
1621591833681,-3.990000009536743,-7.894999980926514,0.0289999991655349,1.843999981880188,-9.746000289916992,0.8309999704360961
1621591833691,-3.849999904632568,-9.963000297546388,0.8730000257492065,1.8040000200271609,-9.585000038146973,0.8190000057220459
1621591833701,-2.450000047683716,-12.565999984741213,1.125,1.72599995136261,-9.454999923706056,0.7630000114440918
1621591833711,-0.9100000262260436,-14.951000213623049,1.343999981880188,1.72599995136261,-9.454999923706056,0.7630000114440918
1621591833721,0.4900000095367431,-17.84600067138672,0.8339999914169312,1.687000036239624,-9.385000228881836,0.8149999976158142
1621591833731,2.450000047683716,-20.437000274658203,1.0169999599456787,1.569000005722046,-9.385000228881836,0.8149999976158142
1621591833741,3.7799999713897705,-22.88599967956543,2.00600004196167,1.569000005722046,-9.359999656677246,0.8989999890327453
1621591833751,4.340000152587891,-23.94649887084961,2.174499988555908,1.491000056266785,-9.359999656677246,0.8989999890327453
1621591833761,4.900000095367432,-25.006999969482425,2.3429999351501465,1.4509999752044678,-9.335000038146973,0.9829999804496764
1621591833771,5.949999809265137,-27.006000518798828,1.991000056266785,1.3730000257492063,-9.22599983215332,1.0420000553131104
1621591833781,7.139999866485596,-28.45800018310547,2.1610000133514404,1.2940000295639038,-9.232000350952148,1.0809999704360962
1621591833791,7.980000019073486,-29.92099952697754,2.4010000228881836,1.2549999952316284,-9.315999984741213,1.1059999465942385
1621591833801,8.819999694824219,-31.680999755859375,2.303999900817871,1.0980000495910645,-9.369000434875488,1.1759999990463257
1621591833811,9.3100004196167,-32.79600143432617,2.177999973297119,0.981000006198883,-9.45300006866455,1.2009999752044678
1621591833821,9.9399995803833,-33.31999969482422,1.5169999599456787,0.8629999756813049,-9.498000144958496,1.2330000400543213
1621591833831,9.869999885559082,-33.132999420166016,0.0570000000298023,0.7850000262260437,-9.550000190734863,1.3029999732971191
1621591833841,9.449999809265137,-32.305999755859375,-1.0049999952316284,0.7059999704360961,-9.67300033569336,1.3220000267028809
1621591833851,9.170000076293944,-30.347999572753903,-2.437000036239624,0.6280000209808348,-9.652999877929688,1.2059999704360962
1621591833861,8.890000343322754,-28.29199981689453,-3.211999893188477,0.5879999995231628,-9.666000366210936,1.2829999923706057
1621591833871,8.819999694824219,-26.516000747680664,-3.6089999675750737,0.5879999995231628,-9.595999717712402,1.3350000381469729
1621591833881,9.449999809265137,-24.208999633789062,-2.989000082015991,0.6280000209808348,-9.687000274658203,1.39900004863739
1621591833891,10.149999618530272,-21.969999313354492,-2.38100004196167,0.5490000247955322,-9.694000244140623,1.437000036239624
1621591833901,10.920000076293944,-19.792999267578125,-1.4290000200271606,0.5099999904632568,-9.73900032043457,1.468999981880188
1621591833911,11.6899995803833,-16.658000946044922,-1.8710000514984133,0.5099999904632568,-9.746000289916992,1.5080000162124634
1621591833921,12.039999961853027,-13.633000373840332,-2.9010000228881836,0.5490000247955322,-9.822999954223633,1.49399995803833
1621591833931,12.460000038146973,-10.312000274658203,-3.5950000286102295,0.5099999904632568,-9.791000366210936,1.5399999618530271
1621591833941,12.529999732971191,-7.14900016784668,-3.3929998874664307,0.5099999904632568,-9.862000465393066,1.4869999885559082
1621591833951,12.460000038146973,-5.585999965667725,-3.188499927520752,0.5490000247955322,-9.869000434875488,1.5260000228881836
1621591833961,12.390000343322754,-4.0229997634887695,-2.9839999675750732,0.5099999904632568,-9.843999862670898,1.6100000143051147
1621591833971,11.970000267028809,-0.5799999833106994,-3.1589999198913574,0.4709999859333038,-9.888999938964846,1.6419999599456787
1621591833981,11.0600004196167,2.0350000858306885,-3.4790000915527344,0.4309999942779541,-9.934000015258787,1.6740000247955322
1621591833991,10.149999618530272,4.763999938964844,-3.638000011444092,0.4309999942779541,-9.965999603271484,1.628000020980835
1621591834001,8.819999694824219,8.008000373840332,-4.701000213623047,0.4309999942779541,-9.958999633789062,1.5900000333786013
1621591834011,7.139999866485596,10.984000205993652,-5.454999923706055,0.3919999897480011,-9.965999603271484,1.628000020980835
1621591834021,5.320000171661377,14.515999794006348,-6.539000034332275,0.3140000104904174,-9.958999633789062,1.5900000333786013
1621591834031,3.2899999618530273,17.756000518798828,-7.176000118255615,0.2349999994039535,-9.991000175476074,1.5440000295639038
1621591834041,1.6100000143051147,21.197999954223633,-8.559000015258789,0.2750000059604644,-9.88199996948242,1.6030000448226929
1621591834051,0.0700000002980232,25.363000869750977,-9.60200023651123,0.2349999994039535,-9.836999893188477,1.5720000267028809
1621591834061,-1.0499999523162842,29.400999069213867,-10.73799991607666,0.2349999994039535,-9.79800033569336,1.5779999494552612
1621591834071,-1.6799999475479126,33.47200012207031,-11.654999732971191,0.1570000052452087,-9.79800033569336,1.5779999494552612
1621591834081,-1.8200000524520872,37.25199890136719,-12.12600040435791,0.1570000052452087,-9.80500030517578,1.6169999837875366
1621591834091,-1.75,40.694000244140625,-12.300000190734863,0.1959999948740005,-9.836999893188477,1.5720000267028809
1621591834101,-2.0999999046325684,44.76499938964844,-12.008999824523926,0.1959999948740005,-9.946000099182127,1.5119999647140503
1621591834111,-2.240000009536743,49.314998626708984,-12.414999961853027,0.2750000059604644,-9.939000129699709,1.4739999771118164
1621591834121,-2.799999952316284,52.99700164794922,-13.54300022125244,0.3140000104904174,-10.008999824523926,1.4220000505447388
1621591834131,-3.6400001049041744,55.98500061035156,-14.366999626159668,0.3140000104904174,-10.003000259399414,1.3830000162124634
1621591834141,-4.96999979019165,58.96200180053711,-15.121000289916992,0.3140000104904174,-9.925000190734863,1.3969999551773071
1621591834151,-6.650000095367432,62.314998626708984,-15.595999717712402,0.3919999897480011,-9.809000015258787,1.4170000553131104
1621591834161,-8.609999656677246,64.71499633789062,-16.309999465942383,0.4709999859333038,-9.699999809265137,1.47599995136261
1621591834171,-9.170000076293944,66.14250183105469,-16.946998596191406,0.5099999904632568,-9.54599952697754,1.503000020980835
1621591834181,-9.729999542236328,67.56999969482422,-17.583999633789062,0.5099999904632568,-9.520999908447264,1.587000012397766
1621591834191,-10.289999961853027,69.87699890136719,-18.17200088500977,0.5490000247955322,-9.559000015258787,1.5809999704360962
1621591834201,-10.289999961853027,71.9530029296875,-18.659000396728516,0.6280000209808348,-9.675000190734863,1.559999942779541
1621591834211,-9.520000457763674,73.48600006103516,-20.094999313354492,0.6669999957084655,-9.79800033569336,1.5779999494552612
1621591834221,-8.329999923706055,74.66600036621094,-20.739999771118164,0.7450000047683715,-9.913999557495115,1.5579999685287476
1621591834231,-7.980000019073486,76.02400207519531,-20.784000396728516,0.8240000009536743,-9.913999557495115,1.5579999685287476
1621591834241,-8.1899995803833,77.25700378417967,-22.131000518798828,0.9409999847412108,-9.906999588012695,1.5190000534057615
1621591834251,-8.399999618530273,78.03900146484375,-23.343000411987305,1.0980000495910645,-9.791000366210936,1.5399999618530271
1621591834261,-9.3100004196167,79.0530014038086,-24.656999588012695,1.2549999952316284,-9.71399974822998,1.5529999732971191
1621591834271,-9.869999885559082,79.5719985961914,-25.98699951171875,1.3730000257492063,-9.597999572753906,1.5740000009536743
1621591834281,-10.149999618530272,78.89800262451172,-26.604000091552734,1.4509999752044678,-9.559000015258787,1.5809999704360962
1621591834291,-9.800000190734863,77.8280029296875,-26.57900047302246,1.4509999752044678,-9.404999732971191,1.6080000400543213
1621591834301,-9.65999984741211,75.76000213623047,-26.944000244140625,1.569000005722046,-9.281999588012695,1.5900000333786013
1621591834311,-9.449999809265137,73.84600067138672,-26.56999969482422,1.6080000400543213,-9.166000366210936,1.6100000143051147
1621591834321,-9.729999542236328,71.78199768066406,-26.152999877929688,1.687000036239624,-9.024999618530272,1.7150000333786013
1621591834331,-9.380000114440918,70.1760025024414,-25.511999130249023,1.843999981880188,-8.871000289916992,1.7419999837875366
1621591834341,-7.699999809265136,69.17500305175781,-25.475000381469727,1.8830000162124632,-8.871000289916992,1.7419999837875366
1621591834351,-6.159999847412109,67.61799621582031,-25.11000061035156,2.000999927520752,-9.0,1.7990000247955322
1621591834361,-4.409999847412109,66.88800048828125,-24.599000930786133,2.000999927520752,-9.199999809265137,1.8029999732971191
1621591834371,-2.799999952316284,65.25800323486328,-23.81999969482422,2.000999927520752,-9.369000434875488,1.8530000448226929
1621591834381,-2.450000047683716,63.98500061035156,-23.048999786376953,2.0399999618530273,-9.45300006866455,1.878000020980835
1621591834391,-3.359999895095825,63.12900161743164,-22.631999969482425,2.000999927520752,-9.458999633789062,1.9170000553131104
1621591834401,-4.690000057220459,62.756000518798835,-22.128999710083008,1.9609999656677248,-9.30500030517578,1.944000005722046
1621591834411,-6.860000133514404,62.520999908447266,-21.60199928283691,1.9220000505447388,-9.189000129699709,1.9650000333786013
1621591834421,-7.94499969482422,62.464500427246094,-21.07849884033203,1.8040000200271609,-9.112000465393066,1.9780000448226929
1621591834431,-9.029999732971191,62.40800094604492,-20.55500030517578,1.687000036239624,-9.112000465393066,1.9780000448226929
1621591834441,-10.220000267028809,63.270999908447266,-19.40800094604492,1.569000005722046,-9.163999557495115,2.049000024795532
1621591834451,-10.989999771118164,64.7030029296875,-18.65800094604492,1.491000056266785,-9.279999732971191,2.0280001163482666
1621591834461,-10.640000343322754,66.67400360107422,-18.950000762939453,1.4119999408721924,-9.440999984741213,2.0399999618530273
1621591834471,-9.449999809265137,69.5,-19.65999984741211,1.3730000257492063,-9.609000205993652,2.0899999141693115
1621591834481,-8.539999961853027,73.31500244140625,-20.33799934387207,1.4119999408721924,-9.770999908447264,2.1010000705718994
1621591834491,-8.260000228881836,77.46800231933594,-20.10300064086914,1.4119999408721924,-9.809000015258787,2.0940001010894775
1621591834501,-8.609999656677246,82.73500061035156,-19.743000030517575,1.491000056266785,-9.925000190734863,2.0739998817443848
1621591834511,-9.170000076293944,87.78399658203125,-19.350000381469727,1.5299999713897705,-9.970999717712402,2.1059999465942383
1621591834521,-10.289999961853027,92.58100128173828,-19.143999099731445,1.569000005722046,-9.932000160217283,2.111999988555908
1621591834531,-11.479999542236328,97.24400329589844,-18.18000030517578,1.6480000019073486,-9.809000015258787,2.0940001010894775
1621591834541,-12.25,100.88999938964844,-17.89299964904785,1.72599995136261,-9.887000083923342,2.0810000896453857
1621591834551,-12.949999809265137,104.34500122070312,-18.13599967956543,1.72599995136261,-9.840999603271484,2.049000024795532
1621591834561,-13.4399995803833,107.33699798583984,-16.9689998626709,1.8040000200271609,-9.82800006866455,1.9709999561309817
1621591834571,-14.699999809265137,109.51499938964844,-14.80799961090088,1.8830000162124632,-9.814000129699709,1.8940000534057615
1621591834581,-16.309999465942383,110.85800170898436,-13.149999618530272,1.8040000200271609,-9.83899974822998,1.809999942779541
1621591834591,-18.1299991607666,111.9810028076172,-11.458999633789064,1.72599995136261,-9.888999938964846,1.6419999599456787
1621591834601,-20.440000534057617,112.71900177001952,-9.196000099182127,1.6480000019073486,-9.836999893188477,1.5720000267028809
1621591834611,-22.540000915527344,113.50599670410156,-8.418000221252441,1.6080000400543213,-9.699999809265137,1.47599995136261
1621591834621,-24.56999969482422,114.62899780273436,-9.14400005340576,1.5299999713897705,-9.602999687194824,1.3739999532699585
1621591834631,-26.739999771118164,115.67099761962892,-9.812999725341797,1.4509999752044678,-9.505000114440918,1.2719999551773071
1621591834641,-28.489999771118164,116.63999938964844,-10.069000244140623,1.3339999914169312,-9.45300006866455,1.2009999752044678
1621591834651,-29.88999938964844,117.9990005493164,-10.11299991607666,1.215999960899353,-9.399999618530272,1.13100004196167
1621591834661,-30.520000457763672,119.11799621582033,-10.413999557495115,1.0980000495910645,-9.29599952697754,0.9900000095367432
1621591834671,-30.3799991607666,120.85700225830078,-11.812999725341797,1.0980000495910645,-9.15999984741211,0.8939999938011169
1621591834681,-29.81999969482422,122.99400329589844,-13.852999687194824,1.215999960899353,-8.991999626159668,0.8439999818801879
1621591834691,-28.489999771118164,124.27899932861328,-14.69200038909912,1.3339999914169312,-8.842000007629395,0.6719999909400939
1621591834701,-27.3700008392334,124.83100128173828,-14.595000267028809,1.491000056266785,-8.782999992370605,0.5619999766349792
1621591834711,-26.25,124.58000183105467,-13.572999954223633,1.6080000400543213,-8.800999641418457,0.4399999976158142
1621591834721,-25.61999893188477,123.86599731445312,-13.557000160217283,1.7649999856948853,-8.833000183105469,0.3939999938011169
1621591834731,-24.989999771118164,123.15200042724608,-13.541000366210938,1.9609999656677248,-8.888999938964844,0.2649999856948852
1621591834741,-23.8700008392334,120.8249969482422,-14.449000358581545,2.0399999618530273,-8.928000450134277,0.2579999864101409
1621591834751,-23.3799991607666,117.32900238037108,-14.781000137329102,2.1570000648498535,-8.913999557495117,0.1809999942779541
1621591834761,-23.100000381469727,113.27400207519533,-15.56700038909912,2.2750000953674316,-8.970999717712402,0.0509999990463256
1621591834771,-22.81999969482422,108.78500366210936,-15.505000114440918,2.2750000953674316,-9.079999923706056,-0.0080000003799796
1621591834781,-22.68000030517578,104.06099700927734,-14.916999816894531,2.2750000953674316,-9.267000198364256,-0.0810000002384185
1621591834791,-22.75,98.62799835205078,-14.737000465393066,2.197000026702881,-9.543999671936035,-0.0900000035762786
1621591834801,-22.329999923706055,93.80999755859376,-15.230999946594238,2.118000030517578,-9.69200038909912,-0.1550000011920929
1621591834811,-22.469999313354492,88.96399688720702,-16.3700008392334,1.9609999656677248,-9.878000259399414,-0.2280000001192092
1621591834821,-21.979999542236328,85.24199676513672,-17.027000427246094,1.8040000200271609,-10.18000030517578,-0.3210000097751617
1621591834831,-22.1200008392334,82.54499816894531,-16.64900016784668,1.6480000019073486,-10.444000244140623,-0.4079999923706054
1621591834841,-22.399999618530273,80.0479965209961,-14.175000190734863,1.491000056266785,-10.630000114440918,-0.4799999892711639
1621591834851,-22.61000061035156,77.98799896240233,-10.55799961090088,1.3730000257492063,-10.847999572753906,-0.5979999899864196
1621591834861,-22.049999237060547,76.14800262451172,-6.9730000495910645,1.2549999952316284,-11.119000434875488,-0.6460000276565551
1621591834871,-21.350000381469727,75.00900268554688,-3.3359999656677246,0.981000006198883,-11.324999809265137,-0.6029999852180481
1621591834881,-21.13999938964844,75.08999633789062,0.2329999953508377,0.6280000209808348,-11.241000175476074,-0.6280000209808348
1621591834891,-20.440000534057617,76.98799896240233,1.562999963760376,0.3140000104904174,-11.02299976348877,-0.5099999904632568
1621591834901,-19.11000061035156,79.80999755859375,0.0700000002980232,0.1570000052452087,-10.753000259399414,-0.4620000123977661
1621591834911,-18.1299991607666,83.86100006103516,-1.1349999904632568,0.0780000016093254,-10.572999954223633,-0.3510000109672546
1621591834921,-17.079999923706055,88.62999725341797,-0.3650000095367431,-0.0780000016093254,-10.284999847412108,-0.1800000071525573
1621591834931,-15.81999969482422,94.03900146484376,0.8019999861717224,-0.1180000007152557,-10.020999908447266,-0.0939999967813491
1621591834941,-14.210000038146973,99.5009994506836,0.0590000003576278,-0.0390000008046627,-9.75699996948242,-0.0080000003799796
1621591834951,-12.880000114440918,104.97100067138672,-1.5349999666213987,0.0390000008046627,-9.526000022888184,0.032999999821186
1621591834961,-11.899999618530272,109.63899993896484,-2.2049999237060547,0.2349999994039535,-9.416999816894531,0.0920000001788139
1621591834971,-11.829999923706056,114.0989990234375,-2.9110000133514404,0.3919999897480011,-9.345999717712402,0.1439999938011169
1621591834981,-12.31999969482422,117.6230010986328,-4.35099983215332,0.5490000247955322,-9.300999641418455,0.1129999980330467
1621591834991,-13.510000228881836,119.97000122070312,-5.572000026702881,0.7450000047683715,-9.210000038146973,0.0489999987185001
1621591835001,-14.350000381469728,121.58799743652344,-5.073999881744385,0.9409999847412108,-9.210000038146973,0.0489999987185001
1621591835011,-14.770000457763672,122.09100341796876,-3.4920001029968266,1.1380000114440918,-9.163999557495115,0.0170000009238719
1621591835021,-14.630000114440918,120.58699798583984,-2.619999885559082,1.4119999408721924,-9.12600040435791,0.0240000002086162
1621591835031,-14.489999771118164,117.82599639892578,-0.2639999985694885,1.72599995136261,-9.196000099182127,-0.0280000008642673
1621591835041,-14.315000534057615,115.44000244140624,1.3765000104904177,1.9220000505447388,-9.260000228881836,-0.1190000027418136
1621591835051,-14.140000343322754,113.0540008544922,3.0169999599456787,2.0789999961853027,-9.336999893188477,-0.1330000013113021
1621591835061,-13.789999961853027,107.31600189208984,4.920000076293945,2.197000026702881,-9.401000022888184,-0.2240000069141387
1621591835071,-13.369999885559082,100.95800018310548,5.505000114440918,2.313999891281128,-9.46399974822998,-0.3149999976158142
1621591835081,-11.970000267028809,93.8499984741211,6.313000202178955,2.3540000915527344,-9.458000183105469,-0.3529999852180481
1621591835091,-10.640000343322754,85.7969970703125,7.237999916076661,2.3540000915527344,-9.527999877929688,-0.4050000011920929
1621591835101,-9.170000076293944,77.52400207519531,8.196999549865723,2.2750000953674316,-9.572999954223633,-0.3740000128746032
1621591835111,-7.280000209808349,68.88800048828125,10.013999938964844,2.118000030517578,-9.656999588012695,-0.3490000069141387
1621591835121,-5.389999866485596,60.939998626708984,11.95400047302246,1.8830000162124632,-9.710000038146973,-0.277999997138977
1621591835131,-4.199999809265137,54.257999420166016,12.765999794006348,1.569000005722046,-9.762000083923342,-0.2080000042915344
1621591835141,-3.009999990463257,48.507999420166016,13.529000282287598,1.2940000295639038,-9.89099979400635,-0.1509999930858612
1621591835151,-2.799999952316284,44.323001861572266,13.074999809265137,0.9409999847412108,-10.053000450134276,-0.1389999985694885
1621591835160,-3.9200000762939458,41.224998474121094,13.310999870300291,0.5879999995231628,-10.21399974822998,-0.1280000060796737
1621591835170,-6.230000019073486,38.87300109863281,12.541000366210938,0.2750000059604644,-10.291000366210936,-0.1420000046491622
1621591835180,-9.3100004196167,37.67599868774414,10.05500030517578,0.0780000016093254,-10.401000022888184,-0.2010000050067901
1621591835190,-12.670000076293944,37.99599838256836,6.629000186920166,0.0,-10.432000160217283,-0.2460000067949295
1621591835200,-16.030000686645508,38.07699966430664,2.947000026702881,0.0,-10.38700008392334,-0.277999997138977
1621591835210,-19.25,37.63399887084961,-0.1879999935626983,0.0780000016093254,-10.303000450134276,-0.3030000030994415
1621591835220,-22.260000228881836,36.685001373291016,-3.2690000534057617,0.3529999852180481,-10.237000465393066,-0.4510000050067901
1621591835230,-24.56999969482422,33.27000045776367,-6.074999809265137,0.6669999957084655,-10.1850004196167,-0.5210000276565551
1621591835240,-25.690000534057617,28.618999481201172,-8.317000389099121,0.981000006198883,-10.04800033569336,-0.6169999837875366
1621591835250,-26.11000061035156,22.57699966430664,-9.52400016784668,1.215999960899353,-9.835000038146973,-0.6990000009536743
1621591835260,-26.040000915527344,15.708000183105469,-9.668999671936035,1.4509999752044678,-9.621000289916992,-0.7799999713897705
1621591835270,-25.6200008392334,8.210000038146973,-9.071999549865724,1.6080000400543213,-9.336999893188477,-0.8100000023841857
1621591835280,-24.36000061035156,1.149999976158142,-8.539999961853027,1.6480000019073486,-9.201000213623049,-0.9049999713897704
1621591835290,-22.81999969482422,-5.14300012588501,-7.517000198364258,1.687000036239624,-9.064000129699709,-1.0010000467300415
1621591835300,-20.93000030517578,-10.060999870300291,-7.033999919891357,1.5299999713897705,-9.050999641418455,-1.0779999494552612
1621591835310,-17.920000076293945,-13.73900032043457,-6.331999778747559,1.4119999408721924,-9.083000183105469,-1.1239999532699585
1621591835320,-14.420000076293944,-16.80900001525879,-5.452000141143799,1.215999960899353,-9.114999771118164,-1.1690000295639038
1621591835330,-10.640000343322754,-19.04700088500977,-4.85099983215332,1.0590000152587893,-9.114999771118164,-1.1690000295639038
1621591835340,-6.860000133514404,-20.45800018310547,-4.105000019073486,0.9409999847412108,-9.107999801635742,-1.2079999446868896
1621591835350,-5.005000114440918,-20.99100112915039,-3.701499938964844,0.7850000262260437,-9.069000244140623,-1.2009999752044678
1621591835360,-3.1500000953674316,-21.52400016784668,-3.2980000972747803,0.7059999704360961,-9.093999862670898,-1.2849999666213987
1621591835370,0.0,-22.47699928283691,-3.5369999408721924,0.7450000047683715,-9.093999862670898,-1.2849999666213987
1621591835380,3.430000066757202,-24.659000396728516,-4.064000129699707,0.7850000262260437,-9.10099983215332,-1.2460000514984133
1621591835390,6.369999885559082,-27.33099937438965,-3.8239998817443848,0.9020000100135804,-9.10099983215332,-1.2460000514984133
1621591835400,8.680000305175781,-30.469999313354492,-2.9560000896453857,1.0590000152587893,-9.1850004196167,-1.2209999561309814
1621591835410,10.289999961853027,-35.198001861572266,-1.9409999847412107,1.215999960899353,-9.378000259399414,-1.2549999952316284
1621591835420,10.640000343322754,-40.70399856567382,-1.3489999771118164,1.3339999914169312,-9.538999557495115,-1.24399995803833
1621591835430,10.010000228881836,-46.98099899291992,0.3880000114440918,1.4119999408721924,-9.637000083923342,-1.1419999599456787
1621591835440,8.819999694824219,-53.720001220703125,3.5350000858306885,1.3730000257492063,-9.520999908447264,-1.1210000514984133
1621591835450,8.260000228881836,-59.41299819946289,6.796000003814697,1.215999960899353,-9.46399974822998,-0.9919999837875366
1621591835460,8.050000190734863,-63.95399856567382,8.767999649047852,0.9020000100135804,-9.369000434875488,-0.8550000190734863
1621591835470,8.399999618530273,-66.41200256347656,8.192000389099121,0.5879999995231628,-9.298999786376951,-0.8029999732971191
1621591835480,9.520000457763674,-67.46199798583984,7.296000003814697,0.2750000059604644,-9.512000083923342,-0.7210000157356262
1621591835490,10.289999961853027,-67.48200225830078,5.800000190734863,0.0,-9.623000144958496,-0.5419999957084655
1621591835500,10.989999771118164,-65.9739990234375,4.501999855041504,-0.1959999948740005,-9.513999938964846,-0.4830000102519989
1621591835510,11.550000190734863,-63.994998931884766,4.566999912261963,-0.2750000059604644,-9.527999877929688,-0.4050000011920929
1621591835520,11.619999885559082,-62.1619987487793,5.459000110626221,-0.3529999852180481,-9.734999656677246,-0.3619999885559082
1621591835530,11.199999809265137,-60.49599838256836,5.681000232696533,-0.3919999897480011,-10.057000160217283,-0.3389999866485595
1621591835540,10.149999618530272,-59.24300003051758,5.830999851226807,-0.3529999852180481,-10.102999687194824,-0.3079999983310699
1621591835550,8.470000267028809,-58.868999481201165,6.5370001792907715,-0.2750000059604644,-10.102999687194824,-0.3079999983310699
1621591835560,6.860000133514404,-58.11100006103515,6.670000076293945,-0.1959999948740005,-10.031999588012695,-0.2549999952316284
1621591835570,5.809999942779541,-57.4379997253418,6.078000068664551,-0.1959999948740005,-9.885000228881836,-0.1889999955892562
1621591835580,5.389999866485596,-57.09000015258789,4.505000114440918,-0.0780000016093254,-9.69200038909912,-0.1550000011920929
1621591835590,5.880000114440918,-56.15700149536133,4.455999851226807,0.0780000016093254,-9.621000289916992,-0.1030000001192092
1621591835600,6.440000057220459,-55.881000518798835,4.505000114440918,0.1959999948740005,-9.704999923706056,-0.0780000016093254
1621591835610,6.230000019073486,-56.84600067138672,4.335000038146973,0.3919999897480011,-9.788999557495115,-0.0529999993741512
1621591835620,6.300000190734863,-58.14550018310547,4.8520002365112305,0.6280000209808348,-9.788999557495115,-0.0529999993741512
1621591835630,6.369999885559082,-59.44499969482422,5.36899995803833,0.8240000009536743,-9.79599952697754,-0.0149999996647238
1621591835640,5.880000114440918,-62.10900115966797,7.173999786376953,1.0199999809265137,-9.803000450134276,0.0240000002086162
1621591835650,5.809999942779541,-65.43000030517578,7.868000030517577,1.1770000457763672,-9.732000350952148,0.0759999975562095
1621591835660,6.019999980926514,-69.76499938964844,6.25,1.3339999914169312,-9.668999671936035,0.1669999957084655
1621591835670,6.300000190734863,-74.18099975585938,4.690000057220459,1.3339999914169312,-9.565999984741213,0.2649999856948852
1621591835680,6.369999885559082,-77.91999816894531,3.319999933242798,1.2549999952316284,-9.496000289916992,0.31700000166893
1621591835690,6.090000152587891,-80.00900268554688,1.4589999914169312,1.1770000457763672,-9.387000083923342,0.3759999871253967
1621591835700,5.949999809265137,-80.90899658203125,-0.6899999976158142,1.0980000495910645,-9.432000160217283,0.4079999923706054
1621591835710,5.039999961853027,-80.8489990234375,-2.243000030517578,0.981000006198883,-9.522999763488768,0.4720000028610229
1621591835720,4.550000190734863,-79.4540023803711,-3.7030000686645503,0.8240000009536743,-9.55500030517578,0.4259999990463256
1621591835730,4.409999847412109,-77.14299774169922,-4.7170000076293945,0.7850000262260437,-9.522999763488768,0.4720000028610229
1621591835740,4.619999885559082,-74.30400085449219,-5.495999813079834,0.7450000047683715,-9.55500030517578,0.4259999990463256
1621591835750,4.900000095367432,-71.35600280761719,-5.686999797821045,0.7850000262260437,-9.63199996948242,0.4129999876022338
1621591835760,5.039999961853027,-68.03900146484375,-4.747000217437744,0.8629999756813049,-9.755000114440918,0.4309999942779541
1621591835770,4.619999885559082,-65.5739974975586,-3.815000057220459,1.0199999809265137,-9.786999702453612,0.3849999904632568
1621591835780,3.990000009536743,-63.4119987487793,-2.3670001029968266,1.1770000457763672,-9.902999877929688,0.3650000095367431
1621591835790,3.849999904632568,-62.0620002746582,-0.3519999980926513,1.2940000295639038,-10.024999618530272,0.3829999864101409
1621591835800,3.6400001049041744,-61.07600021362305,1.3140000104904177,1.4509999752044678,-10.128000259399414,0.2849999964237213
1621591835810,2.869999885559082,-61.17300033569336,4.2820000648498535,1.5299999713897705,-10.274999618530272,0.2199999988079071
1621591835820,2.450000047683716,-62.194000244140625,7.656000137329101,1.6480000019073486,-10.307000160217283,0.1739999949932098
1621591835830,2.240000009536743,-64.24199676513672,11.204999923706056,1.72599995136261,-10.307000160217283,0.1739999949932098
1621591835840,1.75,-66.572998046875,14.347999572753906,1.7649999856948853,-10.229999542236328,0.1879999935626983
1621591835850,1.75,-67.74250030517578,15.741000175476074,1.8040000200271609,-10.178000450134276,0.1169999986886978
1621591835860,1.75,-68.91200256347656,17.134000778198242,1.8040000200271609,-10.210000038146973,0.0719999969005584
1621591835870,1.5399999618530271,-72.47599792480469,20.415000915527344,1.687000036239624,-10.203000068664553,0.032999999821186
1621591835880,1.3300000429153442,-76.16200256347656,23.177000045776367,1.569000005722046,-10.034999847412108,-0.0170000009238719
1621591835890,1.1200000047683716,-79.60399627685547,25.76799964904785,1.4119999408721924,-9.873000144958496,-0.0280000008642673
1621591835900,0.9800000190734864,-82.49099731445312,28.031000137329105,1.215999960899353,-9.635000228881836,-0.0260000005364418
1621591835910,1.4700000286102295,-84.87100219726562,29.03300094604492,1.0980000495910645,-9.467000007629396,-0.0759999975562095
1621591835920,2.450000047683716,-87.5270004272461,28.777999877929688,0.9409999847412108,-9.272999763488768,-0.0419999994337558
1621591835930,4.059999942779541,-90.11399841308592,28.53499984741211,0.8629999756813049,-9.189000129699709,-0.06700000166893
1621591835940,6.230000019073486,-92.88800048828124,28.54400062561035,0.8240000009536743,-9.104999542236328,-0.0920000001788139
1621591835950,8.609999656677246,-95.35299682617188,27.61199951171875,0.6669999957084655,-9.03499984741211,-0.0399999991059303
1621591835960,10.220000267028809,-97.59200286865236,25.795000076293945,0.5490000247955322,-8.98900032043457,-0.0710000023245811
1621591835970,11.130000114440918,-98.76399993896484,24.3799991607666,0.3919999897480011,-8.97599983215332,-0.1490000039339065
1621591835980,11.829999923706056,-99.03600311279298,22.69700050354004,0.2349999994039535,-9.123000144958496,-0.2150000035762786
1621591835990,11.829999923706056,-98.58999633789062,20.572999954223633,0.0390000008046627,-9.194000244140623,-0.2669999897480011
1621591836000,12.18000030517578,-97.11100006103516,17.422000885009766,-0.1180000007152557,-9.244000434875488,-0.4350000023841857
1621591836010,12.739999771118164,-94.1750030517578,13.673999786376951,-0.2750000059604644,-9.321000099182127,-0.4490000009536743
1621591836020,13.859999656677246,-91.45099639892578,10.315999984741213,-0.3919999897480011,-9.335000038146973,-0.3709999918937683
1621591836030,15.75,-87.08399963378906,6.111000061035156,-0.4709999859333038,-9.29599952697754,-0.3650000095367431
1621591836040,18.270000457763672,-82.19400024414062,2.565999984741211,-0.5490000247955322,-9.359999656677246,-0.4550000131130218
1621591836050,20.440000534057617,-76.88700103759767,-0.1230000033974647,-0.5879999995231628,-9.404999732971191,-0.4239999949932098
1621591836060,21.454999923706055,-74.13349914550781,-1.0234999656677246,-0.6280000209808348,-9.444000244140623,-0.4300000071525573
1621591836070,22.469999313354492,-71.37999725341797,-1.924000024795532,-0.6280000209808348,-9.48900032043457,-0.3989999890327453
1621591836080,24.63999938964844,-65.67900085449219,-3.619999885559082,-0.5490000247955322,-9.496000289916992,-0.3600000143051147
1621591836090,25.969999313354492,-59.30899810791016,-4.27400016784668,-0.5490000247955322,-9.663999557495115,-0.3100000023841857
1621591836100,26.25,-53.404998779296875,-4.298999786376953,-0.4709999859333038,-9.755000114440918,-0.2460000067949295
1621591836110,25.969999313354492,-47.90999984741211,-3.614000082015991,-0.3919999897480011,-9.786999702453612,-0.2919999957084655
1621591836120,25.760000228881836,-42.172000885009766,-3.0999999046325684,-0.3529999852180481,-9.793999671936035,-0.2529999911785125
1621591836130,24.780000686645508,-37.19300079345703,-2.7200000286102295,-0.3529999852180481,-9.83199977874756,-0.2599999904632568
1621591836140,24.219999313354492,-31.986000061035156,-3.2230000495910645,-0.2349999994039535,-9.845999717712402,-0.1829999983310699
1621591836150,24.079999923706055,-27.08799934387207,-3.9939999580383305,-0.1959999948740005,-9.807000160217283,-0.1759999990463256
1621591836160,23.8700008392334,-22.964000701904297,-4.40500020980835,-0.1180000007152557,-9.744000434875488,-0.0850000008940696
1621591836170,22.959999084472656,-19.277999877929688,-4.75,-0.0390000008046627,-9.814000129699709,-0.1369999945163726
1621591836180,22.1200008392334,-16.55699920654297,-5.264999866485596,0.0,-9.866000175476074,-0.06700000166893
1621591836190,21.420000076293945,-14.04300022125244,-5.816999912261963,0.0390000008046627,-9.904999732971191,-0.0740000009536743
1621591836200,19.739999771118164,-12.291999816894531,-6.077000141143799,0.0780000016093254,-9.951000213623049,-0.0419999994337558
1621591836210,18.059999465942383,-10.154999732971191,-6.9079999923706055,0.0780000016093254,-10.003000259399414,0.0289999991655349
1621591836220,16.309999465942383,-8.034000396728516,-8.454000473022461,0.0,-10.041000366210936,0.0219999998807907
1621591836230,14.420000076293944,-5.7270002365112305,-10.25,0.0,-10.072999954223633,-0.0240000002086162
1621591836240,13.090000152587892,-3.7079999446868896,-12.027000427246094,0.0,-10.072999954223633,-0.0240000002086162
1621591836250,12.739999771118164,-2.8299999237060547,-12.973999977111816,0.0390000008046627,-10.003000259399414,0.0289999991655349
1621591836260,12.390000343322754,-1.9520000219345093,-13.92099952697754,0.0,-9.862000465393066,0.1330000013113021
1621591836270,12.109999656677246,-0.4850000143051147,-15.793999671936035,0.1180000007152557,-9.701000213623049,0.1220000013709068
1621591836280,12.460000038146973,0.906000018119812,-16.827999114990234,0.1959999948740005,-9.675999641418455,0.2060000002384185
1621591836290,13.020000457763672,1.8550000190734863,-18.579999923706055,0.3140000104904174,-9.760000228881836,0.231000006198883
1621591836300,12.880000114440918,2.755000114440918,-20.055999755859375,0.2750000059604644,-9.895999908447264,0.3260000050067901
1621591836310,12.31999969482422,3.5409998893737793,-22.902999877929688,0.3140000104904174,-9.987000465393066,0.3899999856948852
1621591836320,10.920000076293944,5.1020002365112305,-24.902000427246097,0.3140000104904174,-10.0,0.4670000076293945
1621591836330,9.59000015258789,6.671000003814697,-25.336999893188477,0.3529999852180481,-10.263999938964844,0.3810000121593475
1621591836340,7.630000114440918,7.421000003814697,-25.559999465942383,0.3529999852180481,-10.406999588012695,0.5149999856948853
1621591836350,5.53000020980835,8.58899974822998,-27.343999862670895,0.2750000059604644,-10.085000038146973,0.492000013589859
1621591836360,5.179999828338623,10.397000312805176,-27.52300071716309,0.3140000104904174,-9.937000274658203,0.5580000281333923
1621591836370,5.110000133514404,12.116999626159668,-25.584999084472656,0.3529999852180481,-10.112000465393066,0.6470000147819519
1621591836380,5.809999942779541,13.5600004196167,-28.52899932861328,0.2349999994039535,-9.932000160217283,0.7580000162124633
1621591836390,6.650000095367432,15.44499969482422,-31.964000701904297,0.1570000052452087,-9.791000366210936,0.8629999756813049
1621591836400,6.579999923706055,16.628999710083008,-31.826000213623047,0.1959999948740005,-10.08199977874756,0.930999994277954
1621591836410,5.949999809265137,17.13599967956543,-31.878999710083008,0.2750000059604644,-10.321000099182127,0.9290000200271606
1621591836420,5.599999904632568,16.789501190185547,-31.726499557495117,0.2750000059604644,-10.359000205993652,0.921999990940094
1621591836430,5.25,16.44300079345703,-31.573999404907227,0.3919999897480011,-10.70699977874756,0.8600000143051147
1621591836440,5.460000038146973,15.270999908447266,-26.947999954223633,0.5099999904632568,-11.166000366210938,0.9789999723434448
1621591836450,4.829999923706055,13.08199977874756,-22.99799919128418,0.3140000104904174,-10.79300022125244,1.1239999532699585
1621591836460,4.96999979019165,11.720000267028809,-22.527000427246097,0.1959999948740005,-10.064000129699709,1.0529999732971191
1621591836470,5.53000020980835,12.194000244140623,-21.59000015258789,0.0780000016093254,-9.498000144958496,1.2330000400543213
1621591836480,5.670000076293945,13.61400032043457,-19.562999725341797,-0.0780000016093254,-9.33899974822998,1.4600000381469729
1621591836490,6.71999979019165,13.937999725341797,-19.790000915527344,-0.3529999852180481,-9.366000175476074,1.6150000095367432
1621591836500,8.680000305175781,13.548999786376951,-21.208999633789062,-0.4709999859333038,-9.270999908447264,1.7510000467300415
1621591836510,10.850000381469728,12.883999824523926,-19.052000045776367,-0.4709999859333038,-9.369000434875488,1.8530000448226929
1621591836520,12.460000038146973,11.720999717712402,-14.067999839782717,-0.4709999859333038,-9.58199977874756,1.934999942779541
1621591836530,13.720000267028809,10.420000076293944,-11.526000022888184,-0.5490000247955322,-9.781999588012695,1.940000057220459
1621591836540,13.789999961853027,9.64900016784668,-12.798999786376951,-0.6669999957084655,-9.982000350952148,1.944000005722046
1621591836550,12.600000381469728,9.312000274658203,-13.711000442504885,-0.7059999704360961,-10.065999984741213,1.968999981880188
1621591836560,10.920000076293944,9.73799991607666,-14.916000366210938,-0.7450000047683715,-9.880000114440918,2.0420000553131104
1621591836570,9.9399995803833,9.920000076293944,-17.158000946044922,-0.8240000009536743,-9.699999809265137,2.1530001163482666
1621591836580,10.079999923706056,9.701000213623049,-18.333999633789062,-0.8629999756813049,-9.637000083923342,2.24399995803833
1621591836590,10.465000152587892,9.531000137329102,-17.972999572753906,-0.7850000262260437,-9.625,2.4049999713897705
1621591836600,10.850000381469728,9.361000061035156,-17.61199951171875,-0.7850000262260437,-9.638999938964846,2.4830000400543213
1621591836610,11.270000457763672,9.10099983215332,-15.73900032043457,-0.7850000262260437,-9.767999649047852,2.5399999618530273
1621591836620,11.970000267028809,8.890999794006348,-14.140999794006348,-0.8240000009536743,-9.942999839782717,2.628000020980835
1621591836630,12.039999961853027,8.720999717712402,-11.967000007629396,-0.9020000100135804,-10.065999984741213,2.6459999084472656
1621591836640,11.130000114440918,9.454999923706056,-10.48799991607666,-0.9409999847412108,-10.086999893188477,2.76200008392334
1621591836650,10.56999969482422,10.253999710083008,-9.777999877929688,-0.981000006198883,-9.946000099182127,2.8670001029968266
1621591836660,10.43000030517578,11.246999740600586,-10.17099952697754,-1.0199999809265137,-9.80500030517578,2.9709999561309814
1621591836670,9.9399995803833,12.277000427246094,-10.772000312805176,-1.0199999809265137,-9.70199966430664,3.069000005722046
1621591836680,9.65999984741211,14.467000007629396,-11.095999717712402,-1.0199999809265137,-9.54800033569336,3.0959999561309814
1621591836690,8.680000305175781,16.283000946044922,-12.126999855041504,-0.981000006198883,-9.508999824523924,3.1029999256134033
1621591836700,7.349999904632568,17.731000900268555,-13.079999923706056,-0.9020000100135804,-9.46399974822998,3.071000099182129
1621591836710,5.599999904632568,19.093000411987305,-13.550000190734863,-0.7850000262260437,-9.449999809265137,2.99399995803833
1621591836720,3.5,20.013999938964844,-13.529999732971191,-0.6280000209808348,-9.39099979400635,2.884999990463257
1621591836730,1.6799999475479126,19.968999862670895,-13.68000030517578,-0.5099999904632568,-9.345999717712402,2.8529999256134033
1621591836740,-0.5600000023841857,20.006000518798828,-12.678999900817873,-0.4309999942779541,-9.255000114440918,2.7890000343322754
1621591836750,-2.869999885559082,19.774999618530273,-11.369000434875488,-0.4309999942779541,-9.125,2.7330000400543213
1621591836760,-4.024999618530273,19.535499572753903,-11.020000457763672,-0.4309999942779541,-9.003000259399414,2.7139999866485596
1621591836770,-5.179999828338623,19.29599952697754,-10.67099952697754,-0.3919999897480011,-9.027999877929688,2.630000114440918
1621591836780,-7.349999904632568,18.35099983215332,-10.553999900817873,-0.4709999859333038,-9.053000450134276,2.5460000038146973
1621591836790,-8.609999656677246,17.415000915527344,-10.07900047302246,-0.4709999859333038,-9.013999938964846,2.552999973297119
1621591836800,-9.59000015258789,16.69300079345703,-10.420000076293944,-0.4709999859333038,-8.994000434875488,2.437000036239624
1621591836810,-9.800000190734863,16.117000579833984,-10.378999710083008,-0.4309999942779541,-8.979999542236328,2.359999895095825
1621591836820,-10.149999618530272,15.36299991607666,-8.522000312805176,-0.4709999859333038,-8.972999572753906,2.321000099182129
1621591836829,-10.220000267028809,14.661999702453612,-6.1579999923706055,-0.5099999904632568,-8.888999938964844,2.2960000038146973
1621591836839,-10.010000228881836,13.895999908447266,-3.0230000019073486,-0.5490000247955322,-8.843999862670898,2.263999938964844
1621591836849,-9.100000381469728,13.449999809265137,-0.8980000019073486,-0.6669999957084655,-8.888999938964844,2.2960000038146973
1621591836859,-8.470000267028809,13.097999572753906,1.10099995136261,-0.7450000047683715,-8.95300006866455,2.2049999237060547
1621591836869,-7.420000076293945,12.843000411987305,2.549000024795532,-0.7450000047683715,-9.022999763488768,2.1530001163482666
1621591836879,-7.0,13.005000114440918,3.6440000534057617,-0.7450000047683715,-9.08899974822998,2.3010001182556152
1621591836889,-6.650000095367432,13.236000061035156,3.5420000553131104,-0.7850000262260437,-9.11400032043457,2.2170000076293945
1621591836899,-6.230000019073486,13.312999725341797,2.703000068664551,-0.8629999756813049,-9.095999717712402,2.3399999141693115
1621591836909,-5.039999961853027,13.819000244140623,0.2329999953508377,-0.9409999847412108,-9.154999732971191,2.4489998817443848
1621591836919,-3.7799999713897705,14.69499969482422,-2.312999963760376,-1.0199999809265137,-9.147999763488768,2.4100000858306885
1621591836929,-3.2200000286102295,15.203499794006348,-3.787499904632568,-0.9409999847412108,-9.263999938964846,2.390000104904175
1621591836939,-2.6600000858306885,15.711999893188477,-5.26200008392334,-0.981000006198883,-9.508999824523924,2.4260001182556152
1621591836949,-3.0799999237060547,16.924999237060547,-6.895999908447266,-1.0199999809265137,-9.76599979400635,2.3010001182556152
1621591836959,-5.809999942779541,18.083999633789062,-7.828999996185303,-1.0199999809265137,-10.029999732971191,2.2149999141693115
1621591836969,-10.359999656677246,19.017000198364254,-9.086000442504885,-0.981000006198883,-10.208999633789062,2.1029999256134033
1621591836979,-16.100000381469727,20.50900077819824,-9.888999938964846,-0.981000006198883,-10.189000129699709,1.986999988555908
1621591836989,-21.280000686645508,21.93600082397461,-11.130000114440918,-0.9409999847412108,-9.975000381469728,1.906000018119812
1621591836999,-24.290000915527344,23.549999237060547,-11.413999557495115,-0.8629999756813049,-9.774999618530272,1.9010000228881836
1621591837009,-25.6200008392334,24.583999633789062,-11.232000350952148,-0.8240000009536743,-9.536999702453612,1.9029999971389773
1621591837019,-24.290000915527344,25.33799934387207,-10.671999931335447,-0.8240000009536743,-9.30500030517578,1.944000005722046
1621591837029,-21.280000686645508,26.01099967956543,-11.263999938964844,-0.8629999756813049,-9.072999954223633,1.9850000143051147
1621591837039,-17.920000076293945,26.392000198364254,-12.619000434875488,-0.8240000009536743,-9.079999923706056,2.0239999294281006
1621591837049,-14.840000152587892,26.947999954223633,-14.156000137329102,-0.7850000262260437,-9.189000129699709,1.9650000333786013
1621591837059,-13.020000457763672,26.392000198364254,-15.03600025177002,-0.7850000262260437,-9.30500030517578,1.944000005722046
1621591837069,-12.390000343322754,25.565000534057617,-15.180999755859377,-0.7450000047683715,-9.55500030517578,1.781000018119812
1621591837079,-14.0,24.781999588012695,-15.177000045776367,-0.7059999704360961,-9.80500030517578,1.6169999837875366
1621591837089,-16.520000457763672,23.64299964904785,-15.164999961853027,-0.6669999957084655,-10.02299976348877,1.4989999532699585
1621591837099,-19.530000686645508,22.933000564575195,-15.574000358581545,-0.6280000209808348,-10.196000099182127,1.3489999771118164
1621591837109,-21.174999237060547,22.50500106811523,-15.36549949645996,-0.6280000209808348,-10.375,1.2380000352859497
1621591837119,-22.81999969482422,22.07699966430664,-15.156999588012695,-0.6280000209808348,-10.406999588012695,1.1920000314712524
1621591837129,-26.040000915527344,20.47100067138672,-15.723999977111816,-0.5879999995231628,-10.270999908447266,1.0970000028610227
1621591837139,-28.280000686645508,18.934999465942383,-16.27899932861328,-0.5879999995231628,-10.328000068664553,0.9670000076293944
1621591837149,-30.450000762939453,17.86400032043457,-15.046999931335447,-0.7059999704360961,-10.390999794006348,0.8759999871253967
1621591837159,-31.850000381469727,17.402000427246094,-14.843999862670898,-0.8240000009536743,-10.454999923706056,0.7850000262260437
1621591837169,-32.7599983215332,17.361000061035156,-16.628000259399414,-0.8629999756813049,-10.434000015258787,0.6700000166893005
1621591837179,-33.31999969482422,17.07699966430664,-17.033000946044922,-0.8240000009536743,-10.697999954223633,0.5830000042915344
1621591837189,-33.25,17.490999221801758,-15.751999855041504,-0.9020000100135804,-10.916000366210938,0.4650000035762786
1621591837199,-32.20000076293945,18.201000213623047,-16.551000595092773,-0.981000006198883,-10.793999671936035,0.4469999969005584
1621591837209,-29.68000030517578,18.44300079345703,-19.13800048828125,-0.8629999756813049,-10.55500030517578,0.4490000009536743
1621591837219,-27.229999542236328,18.60199928283691,-18.826000213623047,-0.7059999704360961,-10.663999557495115,0.3899999856948852
1621591837229,-25.690000534057617,19.04800033569336,-16.117000579833984,-0.6669999957084655,-11.064000129699709,0.3989999890327453
1621591837239,-23.65999984741211,18.92200088500977,-17.41900062561035,-0.5879999995231628,-10.824999809265137,0.4009999930858612
1621591837249,-21.559999465942383,18.410999298095703,-20.565000534057617,-0.4309999942779541,-10.413999557495115,0.5540000200271606
1621591837259,-19.600000381469727,18.04199981689453,-20.488000869750977,-0.4309999942779541,-9.899999618530272,0.8040000200271606
1621591837269,-17.219999313354492,18.200000762939453,-18.968000411987305,-0.4709999859333038,-9.425999641418455,1.0470000505447388
1621591837279,-13.579999923706056,18.541000366210938,-19.690000534057617,-0.4709999859333038,-9.14400005340576,1.25600004196167
1621591837289,-9.65999984741211,18.93400001525879,-22.320999145507812,-0.3919999897480011,-9.01599979400635,1.437000036239624
1621591837299,-7.630000114440918,19.726499557495117,-23.38999938964844,-0.2750000059604644,-8.928000450134277,1.6119999885559082
1621591837309,-5.599999904632568,20.518999099731445,-24.458999633789062,-0.1180000007152557,-8.928000450134277,1.6119999885559082
1621591837319,-2.5199999809265137,21.625999450683594,-25.89800071716309,0.0390000008046627,-9.01599979400635,1.437000036239624
1621591837329,-0.9800000190734864,21.55699920654297,-27.118999481201172,0.1180000007152557,-9.274999618530272,1.5509999990463257
1621591837339,-1.6799999475479126,21.073999404907227,-27.20400047302246,0.1959999948740005,-9.520999908447264,1.587000012397766
1621591837349,-4.550000190734863,19.820999145507812,-26.145000457763672,0.1959999948740005,-9.64400005340576,1.6059999465942385
1621591837359,-8.819999694824219,18.378000259399418,-25.618000030517575,0.1959999948740005,-9.836999893188477,1.5720000267028809
1621591837369,-13.649999618530272,17.152999877929688,-26.33099937438965,0.1959999948740005,-9.92099952697754,1.5970000028610227
1621591837379,-18.6200008392334,16.249000549316406,-26.84600067138672,0.1570000052452087,-9.88199996948242,1.6030000448226929
1621591837389,-23.239999771118164,16.12299919128418,-26.940000534057617,0.0780000016093254,-9.80500030517578,1.6169999837875366
1621591837399,-26.530000686645508,16.163000106811523,-27.57200050354004,0.0,-9.71399974822998,1.5529999732971191
1621591837409,-29.1200008392334,17.11199951171875,-28.11599922180176,-0.0390000008046627,-9.590999603271484,1.5349999666213987
1621591837419,-30.030000686645508,18.714000701904297,-27.121999740600582,-0.0390000008046627,-9.5,1.4720000028610227
1621591837429,-30.309999465942383,20.822999954223633,-26.18199920654297,-0.0780000016093254,-9.524999618530272,1.3869999647140503
1621591837439,-30.309999465942383,23.301000595092773,-25.319000244140625,-0.0390000008046627,-9.58899974822998,1.2970000505447388
1621591837449,-29.329999923706055,26.36599922180176,-24.565000534057617,-0.0390000008046627,-9.61400032043457,1.212000012397766
1621591837459,-27.579999923706055,29.2450008392334,-23.559999465942383,0.0390000008046627,-9.522999763488768,1.14900004863739
1621591837469,-24.850000381469727,31.73900032043457,-21.98200035095215,0.1570000052452087,-9.425999641418455,1.0470000505447388
1621591837479,-21.90999984741211,33.3129997253418,-19.21699905395508,0.2349999994039535,-9.347999572753906,1.059999942779541
1621591837489,-18.969999313354492,34.266998291015625,-15.352999687194824,0.2750000059604644,-9.387000083923342,1.0529999732971191
1621591837499,-17.56999969482422,34.66449737548828,-12.972499847412108,0.3529999852180481,-9.46399974822998,1.0399999618530271
1621591837509,-16.170000076293945,35.0620002746582,-10.592000007629396,0.3919999897480011,-9.503000259399414,1.0329999923706057
1621591837519,-14.840000152587892,35.72800064086914,-5.499000072479248,0.3919999897480011,-9.541000366210936,1.0260000228881836
1621591837529,-13.579999923706056,35.91899871826172,-1.343000054359436,0.4309999942779541,-9.572999954223633,0.981000006198883
1621591837539,-12.460000038146973,36.44599914550781,1.3090000152587893,0.4709999859333038,-9.565999984741213,0.9419999718666076
1621591837549,-12.600000381469728,36.20399856567382,3.8959999084472656,0.4709999859333038,-9.48900032043457,0.955999970436096
1621591837559,-12.670000076293944,35.814998626708984,6.1020002365112305,0.4709999859333038,-9.482000350952148,0.9169999957084656
1621591837569,-13.020000457763672,35.02399826049805,6.958000183105469,0.5490000247955322,-9.553000450134276,0.865000009536743
1621591837579,-14.279999732971191,33.53200149536133,7.761000156402587,0.5099999904632568,-9.630000114440918,0.8510000109672546
1621591837589,-15.890000343322754,31.95400047302246,7.8379998207092285,0.3919999897480011,-9.654999732971191,0.7670000195503234
1621591837599,-17.56999969482422,29.988000869750977,6.495999813079834,0.2750000059604644,-9.746000289916992,0.8309999704360961
1621591837609,-19.739999771118164,28.535999298095703,4.25,0.2349999994039535,-9.71399974822998,0.8759999871253967
1621591837619,-21.6299991607666,27.64699935913086,2.0320000648498535,0.1180000007152557,-9.682000160217283,0.921999990940094
1621591837629,-22.469999313354492,27.14800071716309,0.025000000372529,0.0,-9.48900032043457,0.955999970436096
1621591837639,-21.489999771118164,27.27400016784668,-2.299000024795532,-0.0390000008046627,-9.29599952697754,0.9900000095367432
1621591837649,-19.11000061035156,28.132999420166016,-4.35099983215332,0.0,-9.147999763488768,1.055999994277954
1621591837659,-14.630000114440918,29.60099983215332,-6.223999977111816,0.0,-9.14099979400635,1.0169999599456787
1621591837669,-9.59000015258789,30.93899917602539,-7.765999794006347,0.0390000008046627,-9.18000030517578,1.0099999904632568
1621591837679,-5.110000133514404,32.077999114990234,-8.986000061035156,0.1570000052452087,-9.25100040435791,0.9580000042915344
1621591837689,-1.190000057220459,32.70199966430664,-9.303000450134276,0.3140000104904174,-9.378000259399414,0.7760000228881835
1621591837699,1.8899999856948853,32.93299865722656,-9.404000282287598,0.3919999897480011,-9.51900005340576,0.6719999909400939
1621591837709,3.7100000381469727,33.224998474121094,-9.850000381469728,0.5099999904632568,-9.628000259399414,0.6129999756813049
1621591837719,5.739999771118164,33.25400161743164,-10.413999557495115,0.7059999704360961,-9.45300006866455,0.5239999890327453
1621591837729,6.859999656677246,33.18050003051758,-10.604499816894531,0.7850000262260437,-9.329999923706056,0.5059999823570251
1621591837739,7.980000019073486,33.106998443603516,-10.795000076293944,0.7850000262260437,-9.168999671936035,0.4939999878406524
1621591837749,10.710000038146973,33.047000885009766,-10.449999809265137,0.8629999756813049,-9.175999641418455,0.5329999923706054
1621591837759,13.579999923706056,33.124000549316406,-10.081000328063965,0.9020000100135804,-9.312000274658203,0.6280000209808348
1621591837769,16.799999237060547,32.73099899291992,-9.866000175476074,0.9409999847412108,-9.543999671936035,0.5879999995231628
1621591837779,19.459999084472656,32.698001861572266,-8.876999855041504,0.9020000100135804,-9.845999717712402,0.4939999878406524
1621591837789,19.950000762939453,32.72700119018555,-8.232000350952148,0.8629999756813049,-10.0,0.4670000076293945
1621591837799,18.969999313354492,32.79199981689453,-7.794000148773193,0.7850000262260437,-10.006999969482422,0.5059999823570251
1621591837809,16.729999542236328,33.736000061035156,-7.9120001792907715,0.7450000047683715,-9.937000274658203,0.5580000281333923
1621591837819,14.06999969482422,34.972999572753906,-8.47599983215332,0.6669999957084655,-9.82800006866455,0.6169999837875366
1621591837829,11.479999542236328,36.72100067138672,-9.517999649047852,0.6280000209808348,-9.770999908447264,0.746999979019165
1621591837839,9.100000381469728,38.994998931884766,-10.324999809265137,0.6669999957084655,-9.770999908447264,0.746999979019165
1621591837849,7.630000114440918,40.81600189208984,-11.781000137329102,0.6669999957084655,-9.699999809265137,0.7990000247955322
1621591837859,7.0,43.25299835205078,-13.91100025177002,0.7059999704360961,-9.71399974822998,0.8759999871253967
1621591837869,7.070000171661377,45.665000915527344,-14.694000244140623,0.7450000047683715,-9.682000160217283,0.921999990940094
1621591837879,7.070000171661377,48.584999084472656,-15.529000282287598,0.7059999704360961,-9.746000289916992,0.8309999704360961
1621591837889,7.280000209808349,51.006000518798835,-15.954999923706056,0.7850000262260437,-9.79800033569336,0.9010000228881836
1621591837899,7.489999771118165,53.637001037597656,-15.562000274658203,0.8240000009536743,-9.984999656677246,0.8289999961853027
1621591837909,7.9099998474121085,56.18399810791016,-14.687000274658203,0.9020000100135804,-10.08199977874756,0.930999994277954
1621591837919,8.260000228881836,57.97999954223633,-13.588000297546388,0.981000006198883,-10.069000244140623,0.8539999723434448
1621591837929,8.890000343322754,59.48099899291992,-14.034000396728516,1.0590000152587893,-9.939000129699709,0.7969999909400939
1621591837939,9.9399995803833,61.04999923706055,-14.468999862670898,1.1770000457763672,-9.770999908447264,0.746999979019165
1621591837949,10.920000076293944,62.5099983215332,-14.281999588012695,1.1770000457763672,-9.585000038146973,0.8190000057220459
1621591837959,13.090000152587892,63.76300048828125,-14.131999969482422,1.1380000114440918,-9.513999938964846,0.871999979019165
1621591837969,14.734999656677246,64.46049499511719,-14.257999420166016,1.0980000495910645,-9.527999877929688,0.9490000009536744
1621591837979,16.3799991607666,65.15799713134766,-14.383999824523926,1.1380000114440918,-9.682000160217283,0.921999990940094
1621591837989,19.38999938964844,66.51200103759766,-15.211000442504885,1.1380000114440918,-9.875,0.8880000114440918
1621591837999,20.719999313354492,67.61100006103516,-15.800000190734863,1.1380000114440918,-10.043999671936035,0.9380000233650208
1621591838009,19.670000076293945,68.4219970703125,-16.367000579833984,1.1770000457763672,-10.159000396728516,0.9169999957084656
1621591838019,16.8700008392334,68.43399810791016,-16.43600082397461,1.1770000457763672,-10.159000396728516,0.9169999957084656
1621591838029,13.369999885559082,67.7770004272461,-16.339000701904297,1.215999960899353,-10.121000289916992,0.9240000247955322
1621591838039,8.609999656677246,66.14299774169922,-15.133999824523926,1.2549999952316284,-9.991000175476074,0.8669999837875366
1621591838049,4.269999980926514,65.072998046875,-13.901000022888184,1.1770000457763672,-9.850000381469728,0.9720000028610228
1621591838059,0.209999993443489,63.93299865722656,-12.680999755859377,1.0980000495910645,-9.656999588012695,1.00600004196167
1621591838069,-2.5199999809265137,63.25199890136719,-11.237000465393066,1.0590000152587893,-9.541000366210936,1.0260000228881836
1621591838079,-4.130000114440918,62.20600128173828,-10.142000198364258,1.0199999809265137,-9.404999732971191,0.930999994277954
1621591838089,-5.25,61.172000885009766,-9.116000175476074,0.981000006198883,-9.352999687194824,0.8600000143051147
1621591838099,-6.159999847412109,59.87900161743164,-7.425000190734864,0.9409999847412108,-9.385000228881836,0.8149999976158142
1621591838109,-6.159999847412109,58.48400115966797,-5.965000152587891,0.9020000100135804,-9.300999641418455,0.7900000214576721
1621591838119,-5.389999866485596,57.44200134277344,-5.296000003814697,0.7850000262260437,-9.215999603271484,0.7649999856948853
1621591838129,-3.2899999618530273,56.65999984741211,-5.291999816894531,0.7059999704360961,-9.178000450134276,0.7720000147819519
1621591838139,-0.3499999940395355,55.73099899291992,-4.460000038146973,0.5879999995231628,-9.093999862670898,0.746999979019165
1621591838149,2.799999952316284,55.118999481201165,-4.2129998207092285,0.4709999859333038,-9.017000198364256,0.7599999904632568
1621591838159,5.53000020980835,55.0620002746582,-4.294000148773193,0.3140000104904174,-9.022999763488768,0.7990000247955322
1621591838169,7.699999809265136,55.60900115966797,-4.979000091552734,0.2750000059604644,-9.093999862670898,0.746999979019165
1621591838179,9.029999732971191,56.44499969482422,-5.684999942779541,0.2349999994039535,-9.255000114440918,0.7580000162124633
1621591838189,9.380000114440918,57.637001037597656,-6.39900016784668,0.1570000052452087,-9.447999954223633,0.7239999771118164
1621591838199,8.890000343322754,58.88600158691406,-7.031000137329102,0.1570000052452087,-9.64099979400635,0.6899999976158142
1621591838209,7.559999942779541,59.90299987792969,-7.563000202178955,0.1570000052452087,-9.835000038146973,0.656000018119812
1621591838219,5.880000114440918,60.435001373291016,-6.545000076293945,0.1570000052452087,-9.95699977874756,0.6740000247955322
1621591838229,5.25,60.73699951171875,-6.243000030517578,0.1180000007152557,-10.034999847412108,0.6600000262260437
1621591838239,4.619999885559082,61.03900146484375,-5.940999984741211,0.0780000016093254,-10.079999923706056,0.6919999718666076
1621591838249,3.6400001049041744,61.915000915527344,-6.071000099182129,0.0,-10.003000259399414,0.7059999704360961
1621591838259,3.0799999237060547,63.23699951171875,-5.908999919891357,0.0,-9.970999717712402,0.7509999871253967
1621591838269,2.799999952316284,64.41300201416016,-6.127999782562256,0.0,-9.977999687194824,0.7900000214576721
1621591838279,2.240000009536743,65.3010025024414,-6.327000141143799,0.0390000008046627,-9.977999687194824,0.7900000214576721
1621591838289,0.7699999809265136,65.79900360107422,-6.736000061035156,0.0780000016093254,-10.100000381469728,0.8080000281333923
1621591838299,-0.699999988079071,66.69999694824219,-5.796000003814697,0.0780000016093254,-10.11400032043457,0.8849999904632568
1621591838309,-2.240000009536743,67.13400268554688,-5.434999942779541,0.0390000008046627,-10.11400032043457,0.8849999904632568
1621591838319,-3.7100000381469727,67.2959976196289,-5.547999858856201,0.0780000016093254,-10.062000274658203,0.8149999976158142
1621591838329,-4.550000190734863,67.06500244140625,-5.447000026702881,0.0390000008046627,-10.036999702453612,0.8989999890327453
1621591838339,-5.949999809265137,67.61599731445312,-5.349999904632568,0.0390000008046627,-9.95300006866455,0.8740000128746032
1621591838349,-7.489999771118165,67.27999877929688,-5.053999900817871,0.0780000016093254,-9.822999954223633,0.8169999718666076
1621591838359,-8.680000305175781,67.19000244140625,-5.354000091552734,0.0780000016093254,-9.699999809265137,0.7990000247955322
1621591838369,-10.010000228881836,67.40499877929688,-4.960999965667725,0.0780000016093254,-9.57800006866455,0.781000018119812
1621591838379,-10.710000038146973,67.35299682617188,-4.258999824523926,0.0780000016093254,-9.461999893188477,0.8009999990463256
1621591838389,-10.56999969482422,66.71600341796875,-3.874000072479248,0.0780000016093254,-9.416000366210936,0.7689999938011169
1621591838399,-9.729999542236328,65.59700012207031,-3.572999954223633,0.1180000007152557,-9.416000366210936,0.7689999938011169
1621591838409,-8.260000228881836,64.96900177001953,-2.8310000896453857,0.1180000007152557,-9.454999923706056,0.7630000114440918
1621591838419,-5.460000038146973,63.89799880981445,-2.806999921798706,0.1570000052452087,-9.571000099182127,0.7419999837875366
1621591838429,-3.009999990463257,62.54800033569336,-2.4049999713897705,0.1570000052452087,-9.687000274658203,0.722000002861023
1621591838439,-0.9800000190734864,60.74800109863281,-1.8700000047683716,0.1570000052452087,-9.847999572753906,0.7329999804496765
1621591838449,0.9100000262260436,58.301998138427734,-1.305999994277954,0.1570000052452087,-9.847999572753906,0.7329999804496765
1621591838458,2.450000047683716,55.80099868774414,-0.8230000138282775,0.1570000052452087,-9.725000381469728,0.7149999737739563
1621591838468,3.430000066757202,53.53400039672851,-0.8669999837875366,0.1180000007152557,-9.57800006866455,0.781000018119812
1621591838478,4.760000228881836,51.42900085449219,-1.024999976158142,0.0780000016093254,-9.553000450134276,0.865000009536743
1621591838488,5.110000133514404,50.45800018310547,-1.1605000495910645,0.0390000008046627,-9.668999671936035,0.8439999818801879
1621591838498,5.460000038146973,49.48699951171875,-1.2960000038146973,0.0,-9.829999923706056,0.856000006198883
1621591838508,5.460000038146973,47.74300003051758,-1.888000011444092,0.0,-10.02299976348877,0.8220000267028807
1621591838518,4.480000019073486,46.41699981689453,-2.8329999446868896,0.0,-10.138999938964844,0.8009999990463256
1621591838528,2.5899999141693115,45.029998779296875,-3.433000087738037,-0.0390000008046627,-10.248000144958496,0.7419999837875366
1621591838538,-0.3499999940395355,43.5099983215332,-3.2739999294281006,-0.0780000016093254,-10.307000160217283,0.8510000109672546
1621591838548,-3.849999904632568,42.25299835205078,-2.997999906539917,-0.1180000007152557,-10.184000015258787,0.8330000042915344
1621591838558,-7.070000171661377,41.347999572753906,-3.513000011444092,-0.1959999948740005,-10.100000381469728,0.8080000281333923
1621591838568,-8.819999694824219,40.45600128173828,-4.0970001220703125,-0.1959999948740005,-9.977999687194824,0.7900000214576721
1621591838578,-10.359999656677246,40.34299850463867,-4.258999824523926,-0.2349999994039535,-9.913999557495115,0.8809999823570251
1621591838588,-10.850000381469728,40.167999267578125,-5.284999847412109,-0.2349999994039535,-9.822999954223633,0.8169999718666076
1621591838598,-11.270000457763672,40.10300064086914,-6.932000160217285,-0.2349999994039535,-9.847999572753906,0.7329999804496765
1621591838608,-11.479999542236328,39.93199920654297,-8.383000373840332,-0.1959999948740005,-9.763999938964846,0.7080000042915344
1621591838618,-11.340000152587892,39.48600006103515,-9.883000373840332,-0.1570000052452087,-9.763999938964846,0.7080000042915344
1621591838628,-11.0600004196167,38.7760009765625,-11.50100040435791,-0.0390000008046627,-9.75100040435791,0.6309999823570251
1621591838638,-10.289999961853027,37.61600112915039,-12.984999656677246,0.0,-9.697999954223633,0.5600000023841857
1621591838648,-9.800000190734863,36.73199844360352,-14.42099952697754,0.0780000016093254,-9.6850004196167,0.4830000102519989
1621591838658,-9.170000076293944,35.07400131225586,-15.494999885559082,0.1180000007152557,-9.638999938964846,0.4510000050067901
1621591838668,-8.399999618530273,33.430999755859375,-17.06399917602539,0.1959999948740005,-9.586999893188477,0.3810000121593475
1621591838678,-7.420000076293945,31.816999435424805,-17.988000869750977,0.1959999948740005,-9.503000259399414,0.356000006198883
1621591838688,-6.440000057220459,30.67300033569336,-18.75900077819824,0.2750000059604644,-9.45699977874756,0.3240000009536743
1621591838698,-5.460000038146973,29.319000244140625,-19.13999938964844,0.2750000059604644,-9.503000259399414,0.356000006198883
1621591838708,-5.320000171661377,28.18000030517578,-19.12700080871582,0.2349999994039535,-9.604999542236328,0.2579999864101409
1621591838718,-5.25,27.79650115966797,-18.768001556396484,0.2349999994039535,-9.70699977874756,0.1599999964237213
1621591838728,-5.179999828338623,27.413000106811523,-18.409000396728516,0.1570000052452087,-9.78499984741211,0.1469999998807907
1621591838738,-5.809999942779541,26.687999725341797,-17.115999221801758,0.1180000007152557,-9.815999984741213,0.101000003516674
1621591838748,-7.210000038146973,26.41200065612793,-15.956000328063965,0.0780000016093254,-9.847999572753906,0.0560000017285346
1621591838758,-8.1899995803833,26.64299964904785,-14.848999977111816,0.0390000008046627,-9.732000350952148,0.0759999975562095
1621591838768,-9.3100004196167,27.13400077819824,-13.199000358581545,0.0,-9.647999763488768,0.0509999990463256
1621591838778,-10.079999923706056,28.031000137329105,-11.83199977874756,0.0390000008046627,-9.609999656677246,0.0579999983310699
1621591838788,-10.079999923706056,29.020000457763672,-10.592000007629396,0.0,-9.609999656677246,0.0579999983310699
1621591838798,-8.960000038146973,29.96500015258789,-9.50100040435791,-0.0390000008046627,-9.687000274658203,0.0450000017881393
1621591838808,-8.329999923706055,30.864999771118164,-8.5600004196167,-0.0390000008046627,-9.854999542236328,0.0949999988079071
1621591838818,-8.050000190734863,32.26900100708008,-7.247000217437744,-0.0780000016093254,-10.015999794006348,0.1059999987483024
1621591838828,-8.890000343322754,33.55799865722656,-6.09499979019165,-0.0390000008046627,-10.163999557495115,0.0399999991059303
1621591838838,-10.5,34.073001861572266,-4.583000183105469,0.0,-10.265999794006348,-0.0579999983310699
1621591838848,-12.600000381469728,34.417999267578125,-3.313999891281128,0.0390000008046627,-10.465999603271484,-0.0529999993741512
1621591838858,-15.75,34.698001861572266,-2.4820001125335693,0.0390000008046627,-10.479999542236328,0.0240000002086162
1621591838868,-18.549999237060547,34.694000244140625,-2.056999921798706,0.0390000008046627,-10.357000350952148,0.006000000052154
1621591838878,-20.790000915527344,35.01900100708008,-1.0750000476837158,0.0390000008046627,-10.27299976348877,-0.0189999993890523
1621591838888,-21.770000457763672,34.74300003051758,0.0839999988675117,0.0390000008046627,-10.12600040435791,0.0469999983906745
1621591838898,-21.700000762939453,34.83599853515625,-0.0410000011324882,0.0,-10.003000259399414,0.0289999991655349
1621591838908,-20.86000061035156,34.8650016784668,-0.6050000190734863,0.0,-9.854999542236328,0.0949999988079071
1621591838918,-19.530000686645508,34.9739990234375,-1.225000023841858,0.0,-9.732000350952148,0.0759999975562095
1621591838928,-18.760000228881836,34.97800064086914,-1.6510000228881836,0.0390000008046627,-9.72599983215332,0.0379999987781047
1621591838938,-18.479999542236328,34.929500579833984,-1.9795000553131104,0.0,-9.68000030517578,0.006000000052154
1621591838948,-18.200000762939453,34.88100051879883,-2.308000087738037,0.0,-9.704999923706056,-0.0780000016093254
1621591838958,-18.059999465942383,35.058998107910156,-2.9159998893737793,0.0390000008046627,-9.697999954223633,-0.1169999986886978
1621591838968,-17.989999771118164,35.520999908447266,-3.11899995803833,0.0,-9.65999984741211,-0.1099999994039535
1621591838978,-18.059999465942383,35.505001068115234,-3.8329999446868896,0.0390000008046627,-9.652999877929688,-0.1490000039339065
1621591838988,-17.639999389648438,35.233001708984375,-4.307000160217285,0.1180000007152557,-9.6850004196167,-0.1940000057220459
1621591838998,-17.219999313354492,35.03499984741211,-3.986999988555908,0.1959999948740005,-9.744000434875488,-0.0850000008940696
1621591839008,-16.940000534057617,34.41400146484375,-4.0960001945495605,0.1959999948740005,-9.729999542236328,-0.1620000004768371
1621591839018,-16.3799991607666,33.944000244140625,-4.25,0.3140000104904174,-9.722999572753906,-0.2010000050067901
1621591839028,-15.75,32.6870002746582,-3.973999977111816,0.3919999897480011,-9.755000114440918,-0.2460000067949295
1621591839038,-15.1899995803833,31.323999404907227,-3.503999948501587,0.3919999897480011,-9.748000144958496,-0.2849999964237213
1621591839048,-13.859999656677246,29.799999237060547,-2.9200000762939453,0.4709999859333038,-9.779999732971191,-0.3300000131130218
1621591839058,-12.600000381469728,28.233999252319336,-2.9110000133514404,0.4709999859333038,-9.819000244140623,-0.3370000123977661
1621591839068,-11.199999809265137,26.312000274658203,-2.8949999809265137,0.5099999904632568,-9.812000274658203,-0.3759999871253967
1621591839078,-10.56999969482422,24.195999145507812,-2.9839999675750732,0.5879999995231628,-9.85099983215332,-0.3829999864101409
1621591839088,-10.149999618530272,22.50900077819824,-3.49399995803833,0.5490000247955322,-9.88199996948242,-0.4280000030994415
1621591839098,-10.56999969482422,20.500999450683594,-4.203999996185303,0.5490000247955322,-9.79800033569336,-0.453000009059906
1621591839108,-10.920000076293944,18.542999267578125,-5.189000129699707,0.5099999904632568,-9.720999717712402,-0.4390000104904174
1621591839118,-11.970000267028809,17.43199920654297,-5.739999771118164,0.5099999904632568,-9.78499984741211,-0.5299999713897705
1621591839128,-13.229999542236328,16.323999404907227,-6.7170000076293945,0.4309999942779541,-9.777999877929688,-0.5690000057220459
1621591839138,-14.279999732971191,15.444000244140623,-8.57800006866455,0.4309999942779541,-9.718999862670898,-0.6779999732971191
1621591839148,-14.594999313354492,15.152000427246094,-9.340499877929688,0.3919999897480011,-9.718999862670898,-0.6779999732971191
1621591839158,-14.909999847412108,14.859999656677246,-10.102999687194824,0.3919999897480011,-9.67300033569336,-0.7099999785423278
1621591839168,-15.81999969482422,14.621000289916992,-11.56700038909912,0.3140000104904174,-9.68000030517578,-0.6710000038146972
1621591839178,-17.010000228881836,14.76200008392334,-13.177000045776367,0.3140000104904174,-9.718999862670898,-0.6779999732971191
1621591839188,-18.34000015258789,14.859000205993652,-14.937000274658203,0.3140000104904174,-9.788999557495115,-0.7300000190734863
1621591839198,-20.3700008392334,15.114999771118164,-16.384000778198242,0.2750000059604644,-9.873000144958496,-0.7049999833106994
1621591839208,-22.88999938964844,15.803999900817873,-18.679000854492188,0.2750000059604644,-9.944000244140623,-0.7580000162124633
1621591839218,-25.829999923706055,16.40399932861328,-21.274999618530273,0.3140000104904174,-9.937000274658203,-0.7960000038146972
1621591839228,-28.209999084472656,16.64699935913086,-22.652999877929688,0.3529999852180481,-9.892000198364256,-0.828000009059906
1621591839238,-30.65999984741211,17.014999389648438,-23.93899917602539,0.3919999897480011,-9.814000129699709,-0.8140000104904174
1621591839248,-32.40999984741211,17.700000762939453,-25.808000564575195,0.3529999852180481,-9.638999938964846,-0.902999997138977
1621591839258,-33.7400016784668,18.937000274658203,-27.58099937438965,0.3529999852180481,-9.517000198364256,-0.9210000038146972
1621591839268,-34.439998626708984,20.405000686645508,-29.45400047302246,0.3529999852180481,-9.43299961090088,-0.9459999799728392
1621591839278,-34.5099983215332,21.948999404907227,-30.958999633789062,0.4709999859333038,-9.348999977111816,-0.9710000157356262
1621591839288,-33.529998779296875,23.381000518798828,-31.41699981689453,0.7059999704360961,-9.25100040435791,-1.0740000009536743
1621591839298,-32.34000015258789,23.68899917602539,-29.94099998474121,0.981000006198883,-9.204999923706056,-1.1050000190734863
1621591839308,-30.309999465942383,22.79700088500977,-26.899999618530273,1.2940000295639038,-9.076000213623049,-1.1619999408721924
1621591839318,-28.209999084472656,20.77899932861328,-21.49799919128418,1.6080000400543213,-8.977999687194824,-1.2640000581741333
1621591839328,-25.829999923706055,17.900999069213867,-15.253000259399414,1.843999981880188,-8.958000183105469,-1.3799999952316284
1621591839338,-24.56999969482422,16.234498977661133,-12.454999923706056,2.000999927520752,-8.951000213623047,-1.4190000295639038
1621591839348,-23.309999465942383,14.567999839782717,-9.656999588012695,2.118000030517578,-8.930000305175781,-1.5349999666213987
1621591839358,-20.86000061035156,11.406000137329102,-6.234000205993652,2.2750000953674316,-8.987000465393066,-1.6640000343322754
1621591839368,-18.059999465942383,7.739999771118165,-4.39300012588501,2.3929998874664307,-9.05799961090088,-1.7170000076293943
1621591839378,-14.979999542236328,3.6010000705718994,-2.2790000438690186,2.4709999561309814,-9.09000015258789,-1.7619999647140503
1621591839388,-11.409999847412108,-1.47599995136261,0.3079999983310699,2.4709999561309814,-9.083000183105469,-1.8009999990463257
1621591839398,-7.420000076293945,-7.302999973297118,3.11899995803833,2.510999917984009,-9.036999702453612,-1.8329999446868896
1621591839408,-2.869999885559082,-13.109000205993652,6.2179999351501465,2.431999921798706,-8.967000007629395,-1.7799999713897705
1621591839418,2.6600000858306885,-18.972000122070312,9.236000061035156,2.3540000915527344,-8.973999977111816,-1.7419999837875366
1621591839428,7.769999980926514,-24.29199981689453,11.994000434875488,2.236000061035156,-8.916999816894531,-1.6119999885559082
1621591839438,13.649999618530272,-29.74099922180176,13.87600040435791,2.197000026702881,-8.923999786376953,-1.5729999542236328
1621591839448,19.670000076293945,-34.78200149536133,15.048999786376951,2.1570000648498535,-8.937000274658203,-1.4960000514984133
1621591839458,24.989999771118164,-39.72800064086914,17.304000854492188,2.0399999618530273,-9.008000373840332,-1.5479999780654907
1621591839468,29.329999923706055,-44.55799865722656,19.29599952697754,1.8830000162124632,-9.104999542236328,-1.4459999799728394
1621591839478,32.900001525878906,-49.16400146484375,20.82900047302246,1.7649999856948853,-9.286999702453612,-1.319000005722046
1621591839488,34.86000061035156,-53.150001525878906,21.263999938964844,1.6480000019073486,-9.378000259399414,-1.2549999952316284
1621591839498,35.70000076293945,-56.483001708984375,22.025999069213867,1.4509999752044678,-9.461999893188477,-1.2300000190734863
1621591839508,35.70000076293945,-59.5,22.204999923706055,1.3730000257492063,-9.553000450134276,-1.1670000553131104
1621591839518,35.06999969482422,-61.92499923706055,21.849000930786133,1.2549999952316284,-9.612000465393066,-1.0579999685287476
1621591839528,34.29999923706055,-63.178001403808594,21.69900131225586,1.1770000457763672,-9.710000038146973,-0.9549999833106994
1621591839538,33.529998779296875,-64.43099975585938,21.548999786376953,1.1770000457763672,-9.80799961090088,-0.8529999852180481
1621591839548,32.060001373291016,-66.87200164794922,21.687000274658203,1.0590000152587893,-9.937000274658203,-0.7960000038146972
1621591839558,30.520000457763672,-69.18299865722656,21.493000030517575,0.981000006198883,-10.013999938964844,-0.8100000023841857
1621591839568,28.770000457763672,-71.27200317382812,20.84000015258789,0.9020000100135804,-10.06700038909912,-0.7390000224113464
1621591839578,26.950000762939453,-72.91799926757812,19.69700050354004,0.7450000047683715,-10.119000434875488,-0.6690000295639038
1621591839588,25.690000534057617,-73.87899780273438,17.89299964904785,0.6669999957084655,-10.093999862670898,-0.5849999785423278
1621591839598,24.149999618530273,-74.58100128173828,15.42300033569336,0.5099999904632568,-10.062000274658203,-0.5389999747276306
1621591839608,22.75,-74.73999786376953,12.694000244140623,0.3919999897480011,-9.939000129699709,-0.5580000281333923
1621591839618,21.90999984741211,-73.96199798583984,9.491000175476074,0.3529999852180481,-9.95300006866455,-0.4799999892711639
1621591839628,21.280000686645508,-73.15499877929688,6.932000160217285,0.2750000059604644,-10.01200008392334,-0.3709999918937683
1621591839638,20.229999542236328,-72.61199951171875,4.25600004196167,0.1570000052452087,-9.94200038909912,-0.3190000057220459
1621591839648,19.530000686645508,-71.69200134277344,1.8589999675750732,0.0780000016093254,-9.947999954223633,-0.2800000011920929
1621591839658,18.40999984741211,-70.1719970703125,-0.7160000205039978,0.0390000008046627,-9.947999954223633,-0.2800000011920929
1621591839668,17.360000610351562,-67.93000030517578,-2.950999975204468,-0.0780000016093254,-9.878000259399414,-0.2280000001192092
1621591839678,16.59000015258789,-65.11599731445312,-6.008999824523926,-0.2349999994039535,-9.800999641418455,-0.2150000035762786
1621591839688,16.170000076293945,-61.689998626708984,-9.314000129699709,-0.3529999852180481,-9.737000465393066,-0.123999997973442
1621591839698,16.450000762939453,-57.38399887084961,-11.965999603271484,-0.4309999942779541,-9.737000465393066,-0.123999997973442
1621591839708,15.890000343322754,-52.59099960327149,-13.75100040435791,-0.4709999859333038,-9.82800006866455,-0.0599999986588954
1621591839718,14.909999847412108,-48.349998474121094,-14.425000190734863,-0.5099999904632568,-9.911999702453612,-0.0350000001490116
1621591839728,14.350000381469728,-45.95949935913086,-14.678999900817873,-0.5099999904632568,-10.065999984741213,-0.061999998986721
1621591839738,13.789999961853027,-43.569000244140625,-14.93299961090088,-0.5490000247955322,-10.112000465393066,-0.0299999993294477
1621591839748,12.039999961853027,-38.6619987487793,-15.347000122070312,-0.5099999904632568,-10.144000053405762,-0.0759999975562095
1621591839758,9.800000190734863,-33.82899856567383,-16.555999755859375,-0.4309999942779541,-10.189000129699709,-0.0439999997615814
1621591839768,6.860000133514404,-28.659000396728516,-16.85300064086914,-0.3529999852180481,-10.189000129699709,-0.0439999997615814
1621591839778,3.849999904632568,-24.128999710083008,-16.33799934387207,-0.2750000059604644,-10.196000099182127,-0.0049999998882412
1621591839788,1.0499999523162842,-19.834999084472656,-15.296999931335447,-0.1570000052452087,-10.234999656677246,-0.0120000001043081
1621591839798,-2.0299999713897705,-16.184999465942383,-13.017999649047852,0.0,-10.234999656677246,-0.0120000001043081
1621591839808,-4.480000019073486,-13.687000274658203,-10.659000396728516,0.1959999948740005,-10.196000099182127,-0.0049999998882412
1621591839818,-7.070000171661377,-12.595999717712402,-9.187000274658203,0.3140000104904174,-10.203000068664553,0.032999999821186
1621591839828,-9.520000457763674,-12.592000007629396,-8.404000282287598,0.4709999859333038,-10.189000129699709,-0.0439999997615814
1621591839838,-11.6899995803833,-13.187999725341797,-7.442999839782715,0.5490000247955322,-10.104999542236328,-0.0689999982714653
1621591839848,-13.020000457763672,-14.8100004196167,-6.308000087738037,0.6280000209808348,-9.982000350952148,-0.0869999974966049
1621591839858,-14.489999771118164,-16.71500015258789,-5.577000141143799,0.6280000209808348,-9.800999641418455,-0.2150000035762786
1621591839868,-14.770000457763672,-18.913000106811523,-4.401000022888184,0.5879999995231628,-9.638999938964846,-0.2259999960660934
1621591839878,-14.489999771118164,-20.579999923706055,-3.4149999618530273,0.5490000247955322,-9.46399974822998,-0.3149999976158142
1621591839888,-13.789999961853027,-22.31100082397461,-2.868000030517578,0.4309999942779541,-9.347999572753906,-0.2939999997615814
1621591839898,-12.949999809265137,-23.260000228881836,-2.3239998817443848,0.3140000104904174,-9.354999542236328,-0.2549999952316284
1621591839908,-11.829999923706056,-23.54800033569336,-2.303999900817871,0.1570000052452087,-9.354999542236328,-0.2549999952316284
1621591839918,-10.079999923706056,-23.0,-2.989000082015991,-0.0390000008046627,-9.270999908447264,-0.2800000011920929
1621591839928,-9.309999465942385,-22.482999801635746,-3.501999855041504,-0.1570000052452087,-9.270999908447264,-0.2800000011920929
1621591839938,-8.539999961853027,-21.965999603271484,-4.014999866485596,-0.2750000059604644,-9.270999908447264,-0.2800000011920929
1621591839948,-7.210000038146973,-20.035999298095703,-4.882999897003174,-0.3919999897480011,-9.347999572753906,-0.2939999997615814
1621591839958,-5.949999809265137,-17.684999465942383,-5.322000026702881,-0.5099999904632568,-9.43299961090088,-0.2689999938011169
1621591839968,-5.110000133514404,-15.263999938964844,-5.748000144958496,-0.5879999995231628,-9.503000259399414,-0.3210000097751617
1621591839978,-4.619999885559082,-12.571000099182127,-6.9079999923706055,-0.7059999704360961,-9.579999923706056,-0.3350000083446502
1621591839988,-4.269999980926514,-9.156999588012695,-7.728000164031982,-0.7450000047683715,-9.656999588012695,-0.3490000069141387
1621591839998,-3.990000009536743,-5.89300012588501,-8.501999855041504,-0.7850000262260437,-9.710000038146973,-0.277999997138977
1621591840008,-3.849999904632568,-2.4019999504089355,-8.95300006866455,-0.7850000262260437,-9.741999626159668,-0.3240000009536743
1621591840018,-3.7799999713897705,0.7609999775886535,-9.958999633789062,-0.7850000262260437,-9.755000114440918,-0.2460000067949295
1621591840028,-3.6400001049041744,4.151000022888184,-10.640999794006348,-0.7059999704360961,-9.800999641418455,-0.2150000035762786
1621591840038,-3.0799999237060547,6.920000076293945,-11.432000160217283,-0.6669999957084655,-9.800999641418455,-0.2150000035762786
1621591840048,-2.869999885559082,9.072999954223633,-12.758000373840332,-0.5099999904632568,-9.83899974822998,-0.221000000834465
1621591840058,-2.380000114440918,10.144000053405762,-13.991000175476074,-0.4309999942779541,-9.793999671936035,-0.2529999911785125
1621591840068,-1.75,10.876999855041504,-16.13599967956543,-0.3140000104904174,-9.762000083923342,-0.2080000042915344
1621591840078,-1.0499999523162842,10.357999801635742,-17.222999572753906,-0.1959999948740005,-9.722999572753906,-0.2010000050067901
1621591840088,-0.4199999868869781,9.550999641418455,-18.288999557495117,-0.1570000052452087,-9.678000450134276,-0.2329999953508377
1621591840097,0.4900000095367431,8.45199966430664,-18.90999984741211,-0.0390000008046627,-9.638999938964846,-0.2259999960660934
1621591840107,1.8200000524520872,6.927000045776367,-19.534000396728516,0.0390000008046627,-9.55500030517578,-0.2509999871253967
1621591840118,2.869999885559082,5.431000232696533,-19.51300048828125,0.1180000007152557,-9.517000198364256,-0.2440000027418136
1621591840128,4.340000152587891,4.604000091552734,-19.659000396728516,0.1570000052452087,-9.477999687194824,-0.2370000034570694
1621591840137,4.864999771118164,4.098999977111816,-19.819000244140625,0.2349999994039535,-9.569000244140623,-0.1739999949932098
1621591840147,5.389999866485596,3.5940001010894775,-19.979000091552734,0.3140000104904174,-9.678000450134276,-0.2329999953508377
1621591840157,5.739999771118164,1.9359999895095823,-19.844999313354492,0.4309999942779541,-9.741999626159668,-0.3240000009536743
1621591840167,5.320000171661377,0.6340000033378601,-19.719999313354492,0.4709999859333038,-9.819000244140623,-0.3370000123977661
1621591840177,4.550000190734863,-1.0570000410079956,-19.804000854492188,0.3919999897480011,-9.826000213623049,-0.2989999949932098
1621591840187,3.9200000762939458,-2.621999979019165,-19.79599952697754,0.3919999897480011,-9.786999702453612,-0.2919999957084655
1621591840197,3.7799999713897705,-3.9930000305175786,-19.68199920654297,0.2349999994039535,-9.61400032043457,-0.1420000046491622
1621591840207,3.430000066757202,-4.7829999923706055,-18.82699966430664,0.1959999948740005,-9.536999702453612,-0.1280000060796737
1621591840217,3.849999904632568,-4.978000164031982,-18.93199920654297,0.1180000007152557,-9.58199977874756,-0.096000000834465
1621591840227,5.110000133514404,-4.357999801635742,-18.822999954223633,0.0780000016093254,-9.621000289916992,-0.1030000001192092
1621591840237,5.880000114440918,-4.248000144958496,-18.23500061035156,0.0390000008046627,-9.744000434875488,-0.0850000008940696
1621591840247,6.300000190734863,-3.1329998970031734,-18.108999252319336,0.0,-9.737000465393066,-0.123999997973442
1621591840257,6.579999923706055,-2.2079999446868896,-18.51499938964844,0.0390000008046627,-9.666999816894531,-0.0710000023245811
1621591840267,6.929999828338623,-1.0529999732971191,-19.02199935913086,0.0390000008046627,-9.642000198364256,0.0130000002682209
1621591840277,7.210000038146973,0.1070000007748603,-18.746000289916992,0.1180000007152557,-9.642000198364256,0.0130000002682209
1621591840287,7.699999809265136,1.0679999589920044,-18.149999618530273,0.2349999994039535,-9.75100040435791,-0.0460000000894069
1621591840297,7.349999904632568,1.1050000190734863,-17.14900016784668,0.2349999994039535,-9.937000274658203,-0.1190000027418136
1621591840307,5.320000171661377,1.1449999809265137,-15.364999771118164,0.2750000059604644,-10.020999908447266,-0.0939999967813491
1621591840317,3.2899999618530273,1.0970000028610227,-13.880000114440918,0.2750000059604644,-10.041000366210936,0.0219999998807907
1621591840327,1.1200000047683716,1.0809999704360962,-12.177000045776367,0.2750000059604644,-9.95699977874756,-0.003000000026077
1621591840337,-0.7699999809265136,1.2269999980926514,-10.588000297546388,0.2750000059604644,-9.847999572753906,0.0560000017285346
1621591840347,-1.3650000095367432,1.2999999523162842,-9.79300022125244,0.2349999994039535,-9.777999877929688,0.1080000028014183
1621591840357,-1.9600000381469729,1.3730000257492063,-8.998000144958496,0.2349999994039535,-9.668999671936035,0.1669999957084655
1621591840367,-2.6600000858306885,1.5360000133514404,-7.902999877929688,0.2349999994039535,-9.592000007629396,0.1809999942779541
1621591840377,-2.0999999046325684,1.7630000114440918,-7.578999996185303,0.1959999948740005,-9.597999572753906,0.2189999967813491
1621591840387,-0.7699999809265136,2.2579998970031734,-6.354000091552734,0.1570000052452087,-9.689000129699709,0.2829999923706054
1621591840397,0.4199999868869781,2.615000009536743,-5.1539998054504395,0.1180000007152557,-9.689000129699709,0.2829999923706054
1621591840407,1.2599999904632568,3.065000057220459,-4.079999923706055,0.0780000016093254,-9.696000099182127,0.3219999969005584
1621591840417,2.240000009536743,3.499000072479248,-3.7190001010894775,0.0780000016093254,-9.819000244140623,0.3400000035762786
1621591840427,2.450000047683716,4.484000205993652,-3.260999917984009,0.0390000008046627,-9.888999938964846,0.2879999876022338
1621591840437,2.0299999713897705,5.689000129699707,-2.8350000381469727,0.0,-9.972999572753906,0.3129999935626983
1621591840447,0.9800000190734864,6.585000038146973,-2.677000045776367,0.0390000008046627,-10.050999641418455,0.2989999949932098
1621591840457,-0.1400000005960464,7.578999996185303,-1.861999988555908,0.0780000016093254,-10.204999923706056,0.2720000147819519
1621591840467,-1.0499999523162842,8.871999740600586,0.0719999969005584,0.0780000016093254,-10.256999969482422,0.3420000076293945
1621591840477,-1.8899999856948853,9.046999931335447,2.305999994277954,0.0780000016093254,-10.211999893188477,0.3100000023841857
1621591840487,-2.5899999141693115,8.84000015258789,3.4779999256134033,0.0780000016093254,-10.18000030517578,0.356000006198883
1621591840497,-3.009999990463257,8.557000160217285,4.281000137329102,0.0390000008046627,-10.095999717712402,0.3310000002384185
1621591840507,-3.7100000381469727,8.345999717712402,4.670000076293945,0.0390000008046627,-10.102999687194824,0.3700000047683715
1621591840517,-4.340000152587891,7.920000076293945,4.665999889373779,-0.0390000008046627,-10.064000129699709,0.3759999871253967
1621591840527,-5.039999961853027,7.867000102996825,4.158999919891357,-0.1180000007152557,-9.979999542236328,0.3510000109672546
1621591840537,-5.809999942779541,8.170999526977539,3.6440000534057617,-0.1959999948740005,-9.940999984741213,0.3580000102519989
1621591840547,-7.0,8.4350004196167,3.76200008392334,-0.3140000104904174,-9.9350004196167,0.3199999928474426
1621591840557,-7.630000114440918,9.000499725341797,3.5774998664855957,-0.3919999897480011,-9.9350004196167,0.3199999928474426
1621591840567,-8.260000228881836,9.565999984741213,3.3929998874664307,-0.4709999859333038,-9.895999908447264,0.3260000050067901
1621591840577,-9.239999771118164,11.241000175476074,2.763999938964844,-0.5099999904632568,-9.812000274658203,0.3009999990463256
1621591840587,-9.869999885559082,13.39799976348877,2.2200000286102295,-0.5879999995231628,-9.727999687194824,0.2759999930858612
1621591840597,-9.800000190734863,15.729999542236328,1.49399995803833,-0.6669999957084655,-9.689000129699709,0.2829999923706054
1621591840607,-9.520000457763674,18.4950008392334,1.1289999485015867,-0.7850000262260437,-9.604999542236328,0.2579999864101409
1621591840617,-9.029999732971191,21.482999801635746,0.3050000071525573,-0.8629999756813049,-9.527999877929688,0.2720000147819519
1621591840627,-8.119999885559082,25.63999938964844,-1.093999981880188,-0.9409999847412108,-9.359999656677246,0.2220000028610229
1621591840637,-6.860000133514404,29.950000762939453,-1.75600004196167,-0.9020000100135804,-9.321000099182127,0.2290000021457672
1621591840647,-5.739999771118164,34.28900146484375,-1.7730000019073486,-0.8629999756813049,-9.352999687194824,0.1829999983310699
1621591840657,-4.550000190734863,38.46099853515625,-1.25,-0.8240000009536743,-9.50100040435791,0.1169999986886978
1621591840667,-3.1500000953674316,41.98500061035156,-0.2730000019073486,-0.7059999704360961,-9.694000244140623,0.0829999968409538
1621591840677,-2.1700000762939453,44.98199844360352,0.4679999947547912,-0.5490000247955322,-9.803000450134276,0.0240000002086162
1621591840687,-0.8399999737739563,46.847999572753906,1.5789999961853027,-0.3919999897480011,-9.873000144958496,-0.0280000008642673
1621591840697,0.3499999940395355,47.0260009765625,2.178999900817871,-0.2750000059604644,-9.866000175476074,-0.06700000166893
1621591840707,2.309999942779541,46.83599853515625,2.8559999465942383,-0.1570000052452087,-9.788999557495115,-0.0529999993741512
1621591840717,4.760000228881836,45.68399810791016,2.937999963760376,0.0390000008046627,-9.67300033569336,-0.032999999821186
1621591840727,7.349999904632568,43.35200119018555,2.4549999237060547,0.1959999948740005,-9.602999687194824,0.0199999995529651
1621591840737,9.729999542236328,40.08000183105469,2.872999906539917,0.3529999852180481,-9.526000022888184,0.032999999821186
1621591840747,11.970000267028809,35.683998107910156,4.01800012588501,0.4309999942779541,-9.557000160217283,-0.0120000001043081
1621591840757,12.774999618530272,33.20249938964844,4.78849983215332,0.5490000247955322,-9.635000228881836,-0.0260000005364418
1621591840767,13.579999923706056,30.72100067138672,5.559000015258789,0.6280000209808348,-9.68000030517578,0.006000000052154
1621591840777,14.350000381469728,25.05299949645996,7.473999977111816,0.6669999957084655,-9.67300033569336,-0.032999999821186
1621591840787,13.93000030517578,19.332000732421875,10.090000152587892,0.7059999704360961,-9.704999923706056,-0.0780000016093254
1621591840797,12.8100004196167,14.02400016784668,12.779000282287598,0.6669999957084655,-9.788999557495115,-0.0529999993741512
1621591840807,10.5,8.152999877929688,15.4399995803833,0.5490000247955322,-9.873000144958496,-0.0280000008642673
1621591840817,7.980000019073486,3.075999975204468,16.81999969482422,0.4309999942779541,-9.982000350952148,-0.0869999974966049
1621591840827,4.059999942779541,-1.5750000476837158,18.20299911499023,0.2750000059604644,-10.065999984741213,-0.061999998986721
1621591840837,-0.9100000262260436,-6.067999839782715,19.89900016784668,0.1180000007152557,-10.13700008392334,-0.1140000000596046
1621591840847,-5.739999771118164,-10.49899959564209,21.25,-0.0780000016093254,-10.097999572753906,-0.1080000028014183
1621591840857,-10.779999732971191,-14.914999961853027,22.106000900268555,-0.2750000059604644,-10.020999908447266,-0.0939999967813491
1621591840867,-14.630000114440918,-17.684999465942383,22.89699935913086,-0.5099999904632568,-9.937000274658203,-0.1190000027418136
1621591840877,-17.56999969482422,-20.243000030517575,24.506999969482425,-0.6669999957084655,-9.897999763488768,-0.1120000034570694
1621591840887,-19.739999771118164,-22.209999084472656,25.582000732421875,-1.0980000495910645,-9.89099979400635,-0.1509999930858612
1621591840997,-4.130000114440918,-12.866999626159668,-3.6189999580383305,-2.431999921798706,-9.722999572753906,-0.2010000050067901
1621591841007,-2.5199999809265137,-9.97599983215332,-8.725000381469727,-2.3929998874664307,-9.717000007629396,-0.2399999946355819
1621591841017,-2.0299999713897705,-7.499000072479248,-11.487000465393066,-2.2750000953674316,-9.741999626159668,-0.3240000009536743
1621591841027,-2.450000047683716,-4.5879998207092285,-15.095999717712402,-2.1570000648498535,-9.70300006866455,-0.31700000166893
1621591841037,-2.309999942779541,-1.4019999504089355,-18.656999588012695,-2.000999927520752,-9.569000244140623,-0.1739999949932098
1621591841047,-2.5899999141693115,0.9129999876022338,-21.30500030517578,-1.9220000505447388,-9.413999557495115,-0.1459999978542327
1621591841057,-2.7300000190734863,2.940999984741211,-23.933000564575195,-1.7649999856948853,-9.21399974822998,-0.1509999930858612
1621591841067,-2.309999942779541,5.138000011444092,-26.31800079345703,-1.6080000400543213,-9.097999572753906,-0.1309999972581863
1621591841077,-1.190000057220459,6.921999931335449,-28.774999618530273,-1.491000056266785,-9.260000228881836,-0.1190000027418136
1621591841087,0.0,8.402000427246094,-29.50900077819824,-1.3730000257492063,-9.38199996948242,-0.101000003516674
1621591841097,1.190000057220459,9.48900032043457,-30.02899932861328,-1.2549999952316284,-9.446000099182127,-0.19200000166893
1621591841107,1.9600000381469729,10.359999656677246,-30.94099998474121,-1.1380000114440918,-9.522999763488768,-0.2049999982118606
1621591841117,2.799999952316284,10.612000465393066,-30.7549991607666,-1.0199999809265137,-9.522999763488768,-0.2049999982118606
1621591841127,3.7100000381469727,11.163000106811523,-29.448999404907227,-0.9409999847412108,-9.522999763488768,-0.2049999982118606
1621591841137,4.829999923706055,11.26099967956543,-27.583999633789062,-0.8629999756813049,-9.60099983215332,-0.2189999967813491
1621591841147,6.019999980926514,11.42300033569336,-26.48900032043457,-0.8240000009536743,-9.60099983215332,-0.2189999967813491
1621591841157,6.860000133514404,11.001999855041504,-25.709999084472656,-0.7450000047683715,-9.607000350952148,-0.1800000071525573
1621591841167,7.980000019073486,10.491000175476074,-24.02300071716309,-0.7059999704360961,-9.569000244140623,-0.1739999949932098
1621591841177,8.819999694824219,9.494000434875488,-21.996000289916992,-0.6669999957084655,-9.666999816894531,-0.0710000023245811
1621591841187,8.994999885559082,8.942500114440918,-20.88450050354004,-0.6280000209808348,-9.666999816894531,-0.0710000023245811
1621591841197,9.170000076293944,8.390999794006348,-19.77300071716309,-0.5879999995231628,-9.628000259399414,-0.0649999976158142
1621591841207,9.170000076293944,6.51800012588501,-17.615999221801758,-0.5099999904632568,-9.704999923706056,-0.0780000016093254
1621591841217,8.539999961853027,5.083000183105469,-15.52299976348877,-0.4709999859333038,-9.79599952697754,-0.0149999996647238
1621591841227,8.1899995803833,3.2179999351501465,-13.008999824523926,-0.5099999904632568,-9.835000038146973,-0.0209999997168779
1621591841237,7.280000209808349,1.340999960899353,-11.633999824523926,-0.5099999904632568,-9.840999603271484,0.0170000009238719
1621591841247,6.789999961853027,-0.375,-11.581000328063965,-0.5099999904632568,-9.732000350952148,0.0759999975562095
1621591841257,6.440000057220459,-2.0899999141693115,-11.527999877929688,-0.5879999995231628,-9.70699977874756,0.1599999964237213
1621591841267,6.510000228881836,-2.99399995803833,-12.04300022125244,-0.6280000209808348,-9.70699977874756,0.1599999964237213
1621591841277,6.300000190734863,-3.5989999771118164,-13.854999542236328,-0.6280000209808348,-9.668999671936035,0.1669999957084655
1621591841287,6.230000019073486,-4.142000198364258,-16.01300048828125,-0.6280000209808348,-9.630000114440918,0.1739999949932098
1621591841297,5.809999942779541,-4.070000171661377,-17.635000228881836,-0.6280000209808348,-9.630000114440918,0.1739999949932098
1621591841307,5.25,-4.293000221252441,-19.593000411987305,-0.6280000209808348,-9.623000144958496,0.135000005364418
1621591841317,4.900000095367432,-4.329999923706055,-21.80299949645996,-0.6280000209808348,-9.64400005340576,0.2509999871253967
1621591841327,4.480000019073486,-3.76200008392334,-23.409000396728516,-0.5879999995231628,-9.675999641418455,0.2060000002384185
1621591841337,3.7100000381469727,-2.8540000915527344,-24.527999877929688,-0.5490000247955322,-9.675999641418455,0.2060000002384185
1621591841347,2.7300000190734863,-1.9739999771118164,-25.083999633789062,-0.4709999859333038,-9.71399974822998,0.1990000009536743
1621591841357,2.240000009536743,-0.4620000123977661,-25.599000930786133,-0.3919999897480011,-9.668999671936035,0.1669999957084655
1621591841367,1.6100000143051147,0.8320000171661377,-24.87299919128418,-0.3529999852180481,-9.701000213623049,0.1220000013709068
1621591841377,1.190000057220459,2.308000087738037,-23.972999572753903,-0.2750000059604644,-9.70699977874756,0.1599999964237213
1621591841387,0.9100000262260436,3.5250000953674316,-22.40800094604492,-0.1959999948740005,-9.746000289916992,0.1539999991655349
1621591841397,0.4900000095367431,4.235000133514404,-20.791000366210938,-0.1180000007152557,-9.777999877929688,0.1080000028014183
1621591841407,0.4549999833106994,4.551000118255615,-19.562000274658203,-0.0390000008046627,-9.770999908447264,0.0700000002980232
1621591841417,0.4199999868869781,4.867000102996826,-18.33300018310547,0.0,-9.770999908447264,0.0700000002980232
1621591841427,0.0700000002980232,5.507999897003174,-16.72800064086914,0.0,-9.8100004196167,0.0630000010132789
1621591841437,-0.0700000002980232,6.11299991607666,-14.914999961853027,0.0390000008046627,-9.847999572753906,0.0560000017285346
1621591841447,-0.3499999940395355,6.072999954223633,-13.074000358581545,0.0780000016093254,-9.887000083923342,0.0489999987185001
1621591841457,-0.2800000011920929,5.816999912261963,-11.62600040435791,0.0390000008046627,-9.939000129699709,0.1199999973177909
1621591841467,-0.5600000023841857,5.699999809265137,-10.154000282287598,0.0780000016093254,-9.932000160217283,0.0810000002384185
1621591841477,-0.7699999809265136,5.230000019073486,-9.100000381469728,0.0780000016093254,-9.932000160217283,0.0810000002384185
1621591841487,-1.190000057220459,4.953999996185303,-7.940000057220459,0.0390000008046627,-9.918999671936035,0.0040000001899898
1621591841497,-1.4700000286102295,5.1529998779296875,-7.052000045776367,0.0390000008046627,-9.95699977874756,-0.003000000026077
1621591841507,-2.5199999809265137,5.099999904632568,-6.35099983215332,0.0,-9.996000289916992,-0.0099999997764825
1621591841517,-3.6400001049041744,5.2829999923706055,-6.176000118255615,0.0,-9.982000350952148,-0.0869999974966049
1621591841527,-4.829999923706055,5.002999782562256,-5.798999786376953,0.0390000008046627,-10.020999908447266,-0.0939999967813491
1621591841537,-6.650000095367432,4.633999824523926,-5.7220001220703125,0.0390000008046627,-9.944000244140623,-0.0799999982118606
1621591841547,-8.260000228881836,3.7460000514984126,-5.5229997634887695,0.0780000016093254,-9.859999656677246,-0.1049999967217445
1621591841557,-9.239999771118164,2.8580000400543213,-5.324999809265137,0.1570000052452087,-9.737000465393066,-0.123999997973442
1621591841567,-9.869999885559082,1.9780000448226929,-4.769000053405762,0.2349999994039535,-9.697999954223633,-0.1169999986886978
1621591841577,-9.9399995803833,1.0210000276565552,-4.581999778747559,0.2349999994039535,-9.621000289916992,-0.1030000001192092
1621591841587,-9.170000076293944,-0.0370000004768371,-4.626999855041504,0.2750000059604644,-9.467000007629396,-0.0759999975562095
1621591841597,-8.470000267028809,-1.1679999828338623,-4.257999897003174,0.3140000104904174,-9.428000450134276,-0.0689999982714653
1621591841607,-8.085000038146973,-1.6610000133514404,-3.8824999332427974,0.3529999852180481,-9.38199996948242,-0.101000003516674
1621591841617,-7.699999809265136,-2.1540000438690186,-3.506999969482422,0.3529999852180481,-9.38199996948242,-0.101000003516674
1621591841627,-6.019999980926514,-2.927999973297119,-3.1459999084472656,0.3919999897480011,-9.388999938964846,-0.061999998986721
1621591841637,-4.199999809265137,-3.901000022888184,-2.4649999141693115,0.3919999897480011,-9.428000450134276,-0.0689999982714653
1621591841647,-2.799999952316284,-4.854000091552734,-1.4960000514984133,0.3919999897480011,-9.472999572753906,-0.0370000004768371
1621591841657,-0.8399999737739563,-6.414999961853027,-0.7049999833106994,0.3919999897480011,-9.467000007629396,-0.0759999975562095
1621591841667,0.9100000262260436,-7.77400016784668,-0.6600000262260437,0.3919999897480011,-9.512000083923342,-0.0439999997615814
1621591841677,2.6600000858306885,-9.027000427246092,-0.8100000023841857,0.3529999852180481,-9.51900005340576,-0.0049999998882412
1621591841687,4.550000190734863,-9.845999717712402,-0.5989999771118164,0.3529999852180481,-9.571000099182127,0.0649999976158142
1621591841697,6.019999980926514,-10.725000381469728,-0.0430000014603137,0.3529999852180481,-9.571000099182127,0.0649999976158142
1621591841707,7.559999942779541,-11.418999671936035,0.2610000073909759,0.3919999897480011,-9.701000213623049,0.1220000013709068
1621591841717,8.890000343322754,-11.93000030517578,0.740000009536743,0.3140000104904174,-9.753000259399414,0.19200000166893
1621591841727,10.010000228881836,-12.711999893188477,0.7440000176429749,0.2349999994039535,-9.746000289916992,0.1539999991655349
1621591841737,10.149999618530272,-13.081000328063965,0.8209999799728394,0.1959999948740005,-9.869000434875488,0.1720000058412551
1621591841747,9.239999771118164,-13.392999649047852,0.9789999723434448,0.1570000052452087,-10.069000244140623,0.1759999990463256
1621591841757,7.210000038146973,-13.583999633789064,0.4480000138282775,0.1570000052452087,-10.237000465393066,0.2259999960660934
1621591841767,4.550000190734863,-14.423999786376951,0.3709999918937683,0.1180000007152557,-10.314000129699709,0.2129999995231628
1621591841776,1.2599999904632568,-15.274999618530272,1.5709999799728394,0.1180000007152557,-10.352999687194824,0.2060000002384185
1621591841786,-1.9600000381469729,-15.128999710083008,3.1610000133514404,0.0,-10.244000434875488,0.2649999856948852
1621591841796,-4.550000190734863,-15.793999671936035,4.110000133514404,-0.0390000008046627,-10.121000289916992,0.2469999939203262
1621591841806,-5.845000267028809,-16.000499725341797,4.677499771118164,-0.1180000007152557,-10.08199977874756,0.2540000081062316
1621591841816,-7.139999866485596,-16.207000732421875,5.244999885559082,-0.1959999948740005,-10.036999702453612,0.2220000028610229
1621591841826,-9.170000076293944,-16.16200065612793,6.604000091552734,-0.3140000104904174,-9.960000038146973,0.2349999994039535
1621591841836,-10.779999732971191,-15.36299991607666,7.313000202178955,-0.3529999852180481,-9.89400005340576,0.0879999995231628
1621591841846,-11.970000267028809,-14.539999961853027,7.885000228881835,-0.4309999942779541,-9.847999572753906,0.0560000017285346
1621591841856,-12.390000343322754,-13.984000205993652,8.765000343322754,-0.4309999942779541,-9.78499984741211,0.1469999998807907
1621591841866,-13.369999885559082,-12.970999717712402,8.659000396728516,-0.5490000247955322,-9.72599983215332,0.0379999987781047
1621591841876,-13.789999961853027,-12.27299976348877,9.137999534606934,-0.5879999995231628,-9.67300033569336,-0.032999999821186
1621591841886,-13.720000267028809,-10.954999923706056,8.517000198364258,-0.5879999995231628,-9.666999816894531,-0.0710000023245811
1621591841896,-13.4399995803833,-9.616999626159668,8.184000015258789,-0.6280000209808348,-9.58199977874756,-0.096000000834465
1621591841906,-12.949999809265137,-8.498000144958496,7.883999824523927,-0.6280000209808348,-9.543999671936035,-0.0900000035762786
1621591841916,-12.18000030517578,-7.322000026702882,7.664999961853027,-0.6669999957084655,-9.498000144958496,-0.1209999993443489
1621591841926,-11.270000457763672,-6.429999828338623,7.039999961853027,-0.6669999957084655,-9.446000099182127,-0.19200000166893
1621591841936,-10.010000228881836,-5.453000068664551,5.933000087738037,-0.6669999957084655,-9.484999656677246,-0.1990000009536743
1621591841946,-9.029999732971191,-4.7230000495910645,5.421999931335449,-0.7450000047683715,-9.484999656677246,-0.1990000009536743
1621591841956,-7.559999942779541,-3.8519999980926514,4.510000228881836,-0.7450000047683715,-9.522999763488768,-0.2049999982118606
1621591841966,-6.369999885559082,-3.2960000038146973,4.181000232696533,-0.7450000047683715,-9.522999763488768,-0.2049999982118606
1621591841976,-5.179999828338623,-3.437999963760376,4.583000183105469,-0.7450000047683715,-9.522999763488768,-0.2049999982118606
1621591841986,-4.409999847412109,-3.255000114440918,4.756999969482422,-0.7059999704360961,-9.517000198364256,-0.2440000027418136
1621591841996,-3.359999895095825,-3.5390000343322754,4.35099983215332,-0.7059999704360961,-9.503000259399414,-0.3210000097751617
1621591842006,-3.0799999237060547,-3.5370001792907715,4.138500213623047,-0.7059999704360961,-9.510000228881836,-0.2829999923706054
1621591842016,-2.799999952316284,-3.5350000858306885,3.9260001182556152,-0.7850000262260437,-9.510000228881836,-0.2829999923706054
1621591842026,-2.309999942779541,-3.9089999198913574,3.2200000286102295,-0.7850000262260437,-9.477999687194824,-0.2370000034570694
1621591842036,-1.4700000286102295,-4.906000137329102,2.8310000896453857,-0.7850000262260437,-9.406999588012695,-0.1850000023841857
1621591842046,-0.2800000011920929,-5.486000061035156,2.0889999866485596,-0.8240000009536743,-9.37600040435791,-0.1400000005960464
1621591842056,1.4700000286102295,-6.386000156402588,1.1480000019073486,-0.8629999756813049,-9.38199996948242,-0.101000003516674
1621591842066,2.7300000190734863,-6.703000068664551,0.5239999890327453,-0.9020000100135804,-9.467000007629396,-0.0759999975562095
1621591842076,4.130000114440918,-6.808000087738037,-0.4900000095367431,-0.9409999847412108,-9.51900005340576,-0.0049999998882412
1621591842086,4.96999979019165,-6.706999778747559,-1.4670000076293943,-0.981000006198883,-9.628000259399414,-0.0649999976158142
1621591842096,5.739999771118164,-6.791999816894531,-2.193000078201294,-0.981000006198883,-9.67300033569336,-0.032999999821186
1621591842106,5.949999809265137,-6.841000080108643,-3.125,-1.0199999809265137,-9.718999862670898,-0.0010000000474974
1621591842116,5.739999771118164,-6.801000118255615,-3.7579998970031734,-1.0199999809265137,-9.704999923706056,-0.0780000016093254
1621591842126,6.159999847412109,-6.65500020980835,-4.585000038146973,-1.0590000152587893,-9.72599983215332,0.0379999987781047
1621591842136,6.230000019073486,-6.1479997634887695,-4.638000011444092,-1.0980000495910645,-9.803000450134276,0.0240000002086162
1621591842146,6.019999980926514,-5.353000164031982,-4.710999965667725,-1.0980000495910645,-9.887000083923342,0.0489999987185001
1621591842156,5.039999961853027,-4.785999774932861,-5.109000205993652,-1.0980000495910645,-9.95699977874756,-0.003000000026077
1621591842166,3.990000009536743,-4.072000026702881,-5.125,-1.1380000114440918,-10.072999954223633,-0.0240000002086162
1621591842176,2.450000047683716,-3.0299999713897705,-4.585999965667725,-1.1770000457763672,-10.041000366210936,0.0219999998807907
1621591842186,1.0499999523162842,-1.6829999685287476,-4.561999797821045,-1.2549999952316284,-10.041000366210936,0.0219999998807907
1621591842196,-0.4900000095367431,0.0890000015497207,-4.5329999923706055,-1.2940000295639038,-10.041000366210936,0.0219999998807907
1621591842206,-1.1549999713897705,0.8794999718666076,-4.784999847412109,-1.3730000257492063,-10.015999794006348,0.1059999987483024
1621591842216,-1.8200000524520872,1.6699999570846558,-5.0370001792907715,-1.4119999408721924,-9.932000160217283,0.0810000002384185
1621591842226,-2.940000057220459,3.3450000286102295,-5.664999961853027,-1.3339999914169312,-9.96399974822998,0.0350000001490116
