timestamp,gyro_x,gyro_y,gyro_z,acc_x,acc_y,acc_z
1621849160697,0.0,0.0,0.0,0.0,0.0,0.0
1621849161346,1.2599999904632568,15.185999870300291,2.961999893188477,-0.6669999957084655,-9.678000450134276,0.4440000057220459
1621849161356,-0.4199999868869781,13.892999649047852,1.0279999971389773,-0.5099999904632568,-9.741000175476074,0.3540000021457672
1621849161366,-1.3300000429153442,11.17099952697754,-0.8730000257492065,-0.5879999995231628,-9.565999984741213,0.2649999856948852
1621849161376,-2.5899999141693115,10.87600040435791,1.2070000171661377,-0.7059999704360961,-9.661999702453612,0.1289999932050705
1621849161386,-2.5199999809265137,11.803999900817873,2.7920000553131104,-0.6669999957084655,-10.057000160217283,0.3379999995231628
1621849161396,-2.5199999809265137,11.508000373840332,0.0390000008046627,-0.7450000047683715,-10.152999877929688,0.2010000050067901
1621849161406,-5.110000133514404,11.175000190734863,-3.7160000801086426,-0.7450000047683715,-10.062000274658203,0.1379999965429306
1621849161416,-4.96999979019165,10.501999855041504,-5.540999889373779,-0.6669999957084655,-10.107000350952148,0.1700000017881393
1621849161426,-4.480000019073486,9.949999809265137,-4.428999900817871,-0.6280000209808348,-10.42099952697754,-0.0850000008940696
1621849161436,-5.880000114440918,8.904000282287598,-3.3340001106262207,-0.5490000247955322,-10.968999862670898,-0.1420000046491622
1621849161446,-3.1500000953674316,7.668000221252441,-1.562000036239624,-0.5879999995231628,-11.034000396728516,0.006000000052154
1621849161456,-0.9100000262260436,7.422500133514405,-1.7829999923706057,-0.6280000209808348,-10.461999893188477,0.1469999998807907
1621849161466,1.3300000429153442,7.177000045776367,-2.003999948501587,-0.6669999957084655,-9.92099952697754,0.2419999986886978
1621849161476,2.5199999809265137,6.747000217437744,-5.208000183105469,-0.4709999859333038,-9.675999641418455,0.2060000002384185
1621849161486,1.2599999904632568,6.130000114440918,-6.951000213623047,-0.3140000104904174,-9.54599952697754,0.1490000039339065
1621849161496,0.9800000190734864,3.9089999198913574,-3.2200000286102295,-0.4309999942779541,-9.54599952697754,0.1490000039339065
1621849161506,-0.9800000190734864,2.068000078201294,2.7809998989105225,-0.5099999904632568,-9.651000022888184,0.2899999916553497
1621849161516,-3.7100000381469727,1.508999943733215,5.953000068664551,-0.4709999859333038,-9.800999641418455,0.4629999995231628
1621849161526,-6.440000057220459,0.5680000185966491,4.435999870300293,-0.4709999859333038,-9.678000450134276,0.4440000057220459
1621849161536,-9.869999885559082,-0.0970000028610229,1.7599999904632568,-0.4709999859333038,-9.562000274658203,0.4650000035762786
1621849161546,-11.130000114440918,-0.9129999876022338,-2.0799999237060547,-0.5099999904632568,-9.477999687194824,0.4399999976158142
1621849161556,-11.479999542236328,-2.065000057220459,-6.831999778747559,-0.5099999904632568,-9.39400005340576,0.4149999916553497
1621849161566,-12.039999961853027,-2.056999921798706,-10.10099983215332,-0.5099999904632568,-9.29599952697754,0.3129999935626983
1621849161576,-12.25,-1.5670000314712524,-12.076000213623049,-0.5879999995231628,-9.197999954223633,0.209999993443489
1621849161586,-12.18000030517578,-1.5509999990463257,-12.56999969482422,-0.4709999859333038,-9.359999656677246,0.2220000028610229
1621849161596,-11.899999618530272,-2.3499999046325684,-12.071000099182127,-0.3919999897480011,-9.538999557495115,0.1099999994039535
1621849161606,-11.550000190734863,-3.9430000782012935,-11.49899959564209,-0.4709999859333038,-9.616999626159668,0.0970000028610229
1621849161616,-10.289999961853027,-5.507999897003174,-11.491000175476074,-0.4309999942779541,-9.647999763488768,0.0509999990463256
1621849161626,-8.329999923706055,-6.952000141143799,-12.171999931335447,-0.3919999897480011,-9.711999893188477,-0.0399999991059303
1621849161636,-6.579999923706055,-8.432000160217285,-12.645999908447266,-0.4309999942779541,-9.788999557495115,-0.0529999993741512
1621849161646,-5.110000133514404,-9.449999809265137,-13.322999954223633,-0.3529999852180481,-9.880000114440918,0.0099999997764825
1621849161656,-4.340000152587891,-10.152000427246094,-13.37600040435791,-0.2750000059604644,-9.98900032043457,-0.0489999987185001
1621849161666,-3.9549999237060542,-10.561500549316406,-13.270500183105469,-0.1959999948740005,-10.003000259399414,0.0289999991655349
1621849161676,-3.569999933242798,-10.970999717712402,-13.164999961853027,-0.1570000052452087,-9.996000289916992,-0.0099999997764825
1621849161686,-3.7799999713897705,-11.100000381469728,-12.833000183105469,-0.1180000007152557,-9.98900032043457,-0.0489999987185001
1621849161696,-3.6400001049041744,-11.258000373840332,-11.935999870300291,-0.1180000007152557,-9.95699977874756,-0.003000000026077
1621849161706,0.5600000023841857,-12.024999618530272,-13.635000228881836,0.0780000016093254,-10.590999603271484,0.2039999961853027
1621849161716,7.489999771118165,-13.795000076293944,-26.17300033569336,0.1959999948740005,-9.814000129699709,-0.1369999945163726
1621849161726,-4.760000228881836,-14.843999862670898,-18.61000061035156,0.0780000016093254,-9.638999938964846,-0.2259999960660934
1621849161736,-3.7100000381469727,-17.05699920654297,-13.314000129699709,0.0780000016093254,-9.821000099182127,-0.0989999994635581
1621849161746,-0.8399999737739563,-18.53700065612793,-13.788000106811523,0.1180000007152557,-9.873000144958496,-0.0280000008642673
1621849161756,-1.75,-20.0049991607666,-14.33199977874756,0.1570000052452087,-9.704999923706056,-0.0780000016093254
1621849161766,-2.240000009536743,-21.104000091552734,-13.743000030517578,0.1570000052452087,-9.628000259399414,-0.0649999976158142
1621849161776,-1.1200000047683716,-21.951000213623047,-12.968999862670898,0.1570000052452087,-9.51900005340576,-0.0049999998882412
1621849161786,-1.190000057220459,-23.649999618530273,-10.994000434875488,0.1959999948740005,-9.416999816894531,0.0920000001788139
1621849161796,0.3499999940395355,-25.174999237060547,-9.201000213623049,0.0780000016093254,-9.293999671936035,0.0740000009536743
1621849161806,4.619999885559082,-26.618000030517575,-9.88199996948242,0.1180000007152557,-9.385000228881836,0.1379999965429306
1621849161816,6.159999847412109,-27.82699966430664,-8.673999786376953,0.1180000007152557,-9.42300033569336,0.1309999972581863
1621849161826,6.789999961853027,-29.31100082397461,-8.722000122070312,0.1570000052452087,-9.385000228881836,0.1379999965429306
1621849161836,8.329999923706055,-30.461999893188477,-8.640999794006348,0.1180000007152557,-9.378000259399414,0.0989999994635581
1621849161846,9.520000457763674,-31.53300094604492,-8.616999626159668,0.1180000007152557,-9.494000434875488,0.0790000036358833
1621849161856,9.59000015258789,-33.8120002746582,-8.592000007629395,0.1959999948740005,-9.33199977874756,0.06700000166893
1621849161866,9.59000015258789,-36.2239990234375,-9.017000198364256,0.2349999994039535,-9.592000007629396,0.1809999942779541
1621849161876,9.274999618530272,-36.4370002746582,-7.810999870300293,0.2750000059604644,-9.829999923706056,0.1790000051259994
1621849161886,8.960000038146973,-36.650001525878906,-6.605000019073486,0.3919999897480011,-9.763999938964846,0.0309999994933605
1621849161896,9.729999542236328,-40.55799865722656,-3.384000062942505,0.2349999994039535,-9.991000175476074,0.1899999976158142
1621849161906,6.860000133514404,-39.804000854492195,-2.825000047683716,0.3140000104904174,-10.11400032043457,0.2080000042915344
1621849161916,3.1500000953674316,-37.301998138427734,-2.0989999771118164,0.2750000059604644,-10.076000213623049,0.2150000035762786
1621849161926,1.2599999904632568,-36.678001403808594,-2.4159998893737793,-0.0390000008046627,-9.807000160217283,-0.1759999990463256
1621849161936,0.9100000262260436,-34.321998596191406,-0.8629999756813049,0.3140000104904174,-9.711999893188477,-0.0399999991059303
1621849161946,2.5899999141693115,-33.88199996948242,8.73900032043457,0.2750000059604644,-9.95699977874756,-0.003000000026077
1621849161956,3.1500000953674316,-37.7760009765625,5.422999858856201,0.0,-10.029999732971191,0.1829999983310699
1621849161966,3.430000066757202,-41.84400177001953,-7.377999782562256,-0.0390000008046627,-9.862000465393066,0.1330000013113021
1621849161976,4.619999885559082,-43.81700134277344,-17.961999893188477,0.1180000007152557,-9.73900032043457,0.1150000020861625
1621849161986,5.880000114440918,-43.18000030517578,-15.93000030517578,0.2750000059604644,-9.746000289916992,0.1539999991655349
1621849161996,5.179999828338623,-41.32500076293945,-7.5,0.0780000016093254,-9.616999626159668,0.0970000028610229
1621849162006,5.179999828338623,-40.70100021362305,-4.190999984741211,0.0,-9.538999557495115,0.1099999994039535
1621849162016,6.159999847412109,-40.63199996948242,-7.80399990081787,0.0390000008046627,-9.592000007629396,0.1809999942779541
1621849162026,7.0,-40.37300109863281,-10.88599967956543,0.1959999948740005,-9.592000007629396,0.1809999942779541
1621849162036,6.929999828338623,-39.992000579833984,-8.614999771118164,0.1959999948740005,-9.597999572753906,0.2189999967813491
1621849162046,6.860000133514404,-39.229000091552734,-5.2820000648498535,0.1959999948740005,-9.5600004196167,0.2259999960660934
1621849162056,7.280000209808349,-39.301998138427734,-4.86899995803833,0.1180000007152557,-9.53499984741211,0.3100000023841857
1621849162066,8.1899995803833,-39.53300094604492,-5.97599983215332,0.1180000007152557,-9.503000259399414,0.356000006198883
1621849162076,9.029999732971191,-39.152000427246094,-6.122000217437744,0.1180000007152557,-9.510000228881836,0.3939999938011169
1621849162086,9.309999465942385,-38.458499908447266,-5.822000026702881,0.0390000008046627,-9.562000274658203,0.4650000035762786
1621849162096,9.59000015258789,-37.76499938964844,-5.521999835968018,0.0,-9.576000213623049,0.5419999957084655
1621849162106,9.9399995803833,-37.13600158691406,-6.263999938964844,0.0390000008046627,-9.666000366210936,0.606000006198883
1621849162116,10.220000267028809,-36.58100128173828,-7.801000118255616,0.0,-9.711999893188477,0.6380000114440918
1621849162126,9.520000457763674,-36.018001556396484,-8.980999946594238,0.0390000008046627,-9.814000129699709,0.5400000214576721
1621849162136,8.819999694824219,-35.19900131225586,-9.19200038909912,0.2349999994039535,-9.96399974822998,0.7129999995231628
1621849162146,6.929999828338623,-34.11199951171875,-9.711000442504885,0.0390000008046627,-10.04800033569336,0.7379999756813049
1621849162156,6.579999923706055,-31.6299991607666,-4.440000057220459,0.1959999948740005,-9.652999877929688,0.5289999842643737
1621849162166,3.009999990463257,-30.857999801635746,0.4580000042915344,0.0390000008046627,-9.96399974822998,0.7129999995231628
1621849162176,2.940000057220459,-30.972000122070312,-3.3289999961853027,-0.0390000008046627,-9.96399974822998,0.7129999995231628
1621849162186,4.340000152587891,-32.21799850463867,-7.954999923706055,0.3529999852180481,-10.178000450134276,0.7940000295639038
1621849162196,3.7799999713897705,-34.823001861572266,-19.788000106811523,0.2750000059604644,-9.821000099182127,0.5789999961853027
1621849162206,-0.4199999868869781,-33.97100067138672,-18.570999145507812,0.5099999904632568,-9.95699977874756,0.6740000247955322
1621849162216,-1.4700000286102295,-32.64400100708008,-12.79300022125244,0.4709999859333038,-9.93000030517578,0.5189999938011169
1621849162225,-2.5899999141693115,-32.34400177001953,-9.25699996948242,0.3140000104904174,-9.852999687194824,0.5329999923706054
1621849162235,-4.130000114440918,-32.88800048828125,-11.413999557495115,0.3919999897480011,-9.904999732971191,0.6039999723434448
1621849162245,-3.990000009536743,-33.034000396728516,-11.795000076293944,0.4309999942779541,-9.781999588012695,0.5849999785423278
1621849162255,-3.1500000953674316,-33.612998962402344,-11.32900047302246,0.4309999942779541,-9.776000022888184,0.5469999909400939
1621849162265,-2.7300000190734863,-33.922000885009766,-11.597000122070312,0.5099999904632568,-9.776000022888184,0.5469999909400939
1621849162275,-2.869999885559082,-34.54999923706055,-12.062999725341797,0.5099999904632568,-9.729999542236328,0.5149999856948853
1621849162285,-2.940000057220459,-34.935001373291016,-11.491000175476074,0.5099999904632568,-9.737000465393066,0.5540000200271606
1621849162295,-2.450000047683716,-35.4630012512207,-11.72599983215332,0.5490000247955322,-9.807000160217283,0.5009999871253967
1621849162305,-2.450000047683716,-35.813499450683594,-11.14799976348877,0.5879999995231628,-9.729999542236328,0.5149999856948853
1621849162315,-2.450000047683716,-36.16400146484375,-10.56999969482422,0.5879999995231628,-9.793999671936035,0.4239999949932098
1621849162325,-2.5199999809265137,-36.67499923706055,-8.883000373840332,0.7059999704360961,-10.0,0.4670000076293945
1621849162335,0.2800000011920929,-36.90900039672851,-3.5230000019073486,0.7059999704360961,-10.053000450134276,0.5379999876022338
1621849162345,-1.9600000381469729,-35.777000427246094,4.566999912261963,0.7059999704360961,-10.038999557495115,0.4600000083446502
1621849162355,-2.5899999141693115,-36.527000427246094,5.998000144958496,0.8240000009536743,-9.975000381469728,0.5509999990463256
1621849162365,-2.799999952316284,-37.89699935913086,7.320000171661377,0.8629999756813049,-9.98900032043457,0.6290000081062316
1621849162375,-1.6100000143051147,-39.209999084472656,11.140000343322754,0.7450000047683715,-9.911999702453612,0.6420000195503234
1621849162385,-0.8399999737739563,-41.926998138427734,8.812999725341797,0.8629999756813049,-10.034999847412108,0.6600000262260437
1621849162395,-4.619999885559082,-47.12699890136719,2.4230000972747803,0.8629999756813049,-10.072999954223633,0.6539999842643737
1621849162405,-6.860000133514404,-51.073001861572266,-0.19200000166893,0.9409999847412108,-9.975000381469728,0.5509999990463256
1621849162415,-8.470000267028809,-53.334999084472656,1.7549999952316284,0.9409999847412108,-9.982000350952148,0.5899999737739563
1621849162425,-9.800000190734863,-55.9010009765625,5.425000190734863,0.8629999756813049,-10.020999908447266,0.5830000042915344
1621849162435,-10.989999771118164,-59.24300003051758,5.830999851226807,0.8240000009536743,-10.027999877929688,0.621999979019165
1621849162445,-11.970000267028809,-62.957000732421875,4.322999954223633,0.7850000262260437,-10.0600004196167,0.5759999752044677
1621849162455,-13.090000152587892,-66.96299743652344,4.46999979019165,0.8629999756813049,-10.090999603271484,0.531000018119812
1621849162465,-15.260000228881836,-71.37899780273438,6.533999919891357,0.8629999756813049,-10.13700008392334,0.5630000233650208
1621849162475,-17.850000381469727,-76.19999694824219,8.883000373840332,0.981000006198883,-10.175000190734863,0.5559999942779541
1621849162485,-20.09000015258789,-81.76699829101562,11.029000282287598,0.981000006198883,-10.149999618530272,0.6399999856948853
1621849162495,-21.979999542236328,-86.8280029296875,11.913000106811523,1.0199999809265137,-10.144000053405762,0.6010000109672546
1621849162505,-22.88999938964844,-89.62800598144531,12.272500038146973,0.981000006198883,-10.144000053405762,0.6010000109672546
1621849162515,-23.799999237060547,-92.4280014038086,12.631999969482422,0.9409999847412108,-10.065999984741213,0.615000009536743
1621849162525,-24.989999771118164,-97.77200317382812,11.902999877929688,0.9409999847412108,-9.982000350952148,0.5899999737739563
1621849162535,-25.6200008392334,-103.22599792480467,10.586000442504885,0.9409999847412108,-9.897999763488768,0.5649999976158142
1621849162545,-25.969999313354492,-108.9810028076172,9.357999801635742,0.981000006198883,-9.82800006866455,0.6169999837875366
1621849162555,-25.760000228881836,-115.18900299072266,8.6899995803833,0.9020000100135804,-9.75100040435791,0.6309999823570251
1621849162565,-25.549999237060547,-121.65200042724608,9.468999862670898,0.7850000262260437,-9.635000228881836,0.6510000228881835
1621849162575,-25.40999984741211,-126.88700103759766,10.53600025177002,0.5490000247955322,-9.4350004196167,0.6470000147819519
1621849162585,-24.56999969482422,-131.30299377441406,10.184000015258787,0.3140000104904174,-9.248000144958496,0.7189999818801879
1621849162595,-23.3799991607666,-134.36099243164062,8.579000473022461,0.0390000008046627,-9.017000198364256,0.7599999904632568
1621849162605,-22.1200008392334,-134.93699645996094,6.203000068664551,-0.2349999994039535,-8.932000160217285,0.7350000143051147
1621849162615,-21.420000076293945,-134.21200561523435,3.700999975204468,-0.4309999942779541,-8.817000389099121,0.7559999823570251
1621849162625,-21.420000076293945,-132.4759979248047,1.5190000534057615,-0.5490000247955322,-8.687000274658203,0.6990000009536743
1621849162635,-21.979999542236328,-131.06500244140625,-0.4359999895095825,-0.6280000209808348,-8.64799976348877,0.7059999704360961
1621849162645,-23.520000457763672,-129.08700561523435,-0.3709999918937683,-0.6669999957084655,-8.642000198364258,0.6669999957084655
1621849162655,-24.920000076293945,-127.2490005493164,1.3029999732971191,-0.7450000047683715,-8.595999717712402,0.6349999904632568
1621849162665,-26.18000030517578,-124.86100006103516,3.075000047683716,-0.7450000047683715,-8.562000274658203,0.44200000166893
1621849162675,-25.690000534057617,-122.04199981689452,4.425000190734863,-0.8629999756813049,-8.60099983215332,0.4350000023841857
1621849162685,-23.520000457763672,-118.79399871826172,5.353000164031982,-0.9409999847412108,-8.748000144958496,0.3689999878406524
1621849162695,-18.6200008392334,-115.44100189208984,6.085999965667725,-0.981000006198883,-9.01900005340576,0.3219999969005584
1621849162705,-11.6899995803833,-112.43199920654295,5.551000118255615,-0.9409999847412108,-9.303000450134276,0.3510000109672546
1621849162715,-7.734999656677246,-111.02099609375,4.804500102996826,-0.981000006198883,-9.439000129699709,0.4469999969005584
1621849162725,-3.7799999713897705,-109.61000061035156,4.058000087738037,-0.9409999847412108,-9.522999763488768,0.4720000028610229
1621849162735,4.550000190734863,-106.98300170898436,1.2519999742507937,-0.8629999756813049,-9.607000350952148,0.4970000088214874
1621849162745,11.199999809265137,-105.15799713134766,0.578000009059906,-0.7850000262260437,-9.781999588012695,0.5849999785423278
1621849162755,15.609999656677246,-103.54799652099608,1.9279999732971191,-0.7850000262260437,-10.0,0.4670000076293945
1621849162765,18.270000457763672,-101.93399810791016,4.060999870300293,-0.8629999756813049,-10.375,0.5600000023841857
1621849162775,19.670000076293945,-100.65599822998048,5.281000137329102,-0.9409999847412108,-10.428000450134276,0.6309999823570251
1621849162785,20.09000015258789,-99.14800262451172,3.9839999675750737,-0.9409999847412108,-10.440999984741213,0.7080000042915344
1621849162795,19.950000762939453,-96.71900177001952,2.7060000896453857,-0.9409999847412108,-10.33199977874756,0.7670000195503234
1621849162805,19.600000381469727,-94.03500366210936,2.3970000743865967,-0.981000006198883,-10.08199977874756,0.930999994277954
1621849162815,19.31999969482422,-90.88400268554688,2.6689999103546143,-1.0980000495910645,-9.819000244140623,1.0169999599456787
1621849162825,19.11000061035156,-88.14700317382812,1.659000039100647,-1.0980000495910645,-9.619000434875488,1.0130000114440918
1621849162835,18.6200008392334,-85.02899932861328,0.5019999742507933,-1.1380000114440918,-9.48900032043457,0.955999970436096
1621849162845,18.1299991607666,-81.85800170898438,1.062000036239624,-1.1380000114440918,-9.366000175476074,0.9380000233650208
1621849162855,18.34000015258789,-78.54499816894531,2.427999973297119,-1.1770000457763672,-9.314000129699709,0.8669999837875366
1621849162865,18.200000762939453,-75.8759994506836,3.822000026702881,-1.2549999952316284,-9.1850004196167,0.8100000023841857
1621849162875,19.040000915527344,-73.06999969482422,4.0329999923706055,-1.3339999914169312,-9.20300006866455,0.6880000233650208
1621849162885,19.38999938964844,-70.48300170898438,4.276000022888184,-1.2940000295639038,-9.279999732971191,0.6740000247955322
1621849162895,20.3700008392334,-67.23500061035156,5.203999996185303,-1.3730000257492063,-9.279999732971191,0.6740000247955322
1621849162905,21.770000457763672,-65.14299774169922,5.431000232696533,-1.4119999408721924,-9.119000434875488,0.6629999876022338
1621849162915,22.71500015258789,-64.35199737548828,5.179500102996826,-1.4509999752044678,-9.003000259399414,0.6830000281333923
1621849162925,23.65999984741211,-63.56100082397461,4.927999973297119,-1.491000056266785,-8.847999572753906,0.7099999785423278
1621849162935,25.549999237060547,-61.78900146484375,3.746999979019165,-1.569000005722046,-8.817000389099121,0.7559999823570251
1621849162945,27.3700008392334,-59.757999420166016,1.9019999504089355,-1.6480000019073486,-8.829999923706055,0.8330000042915344
1621849162955,29.540000915527344,-56.4900016784668,-0.5070000290870667,-1.7649999856948853,-8.928000450134277,0.9350000023841856
1621849162965,31.219999313354492,-52.76399993896485,-3.901999950408935,-1.843999981880188,-9.057000160217283,0.9919999837875366
1621849162975,32.689998626708984,-48.404998779296875,-7.256000041961671,-1.9220000505447388,-9.201000213623049,1.1260000467300415
1621849162985,34.09000015258789,-43.369998931884766,-10.418999671936035,-1.8830000162124632,-9.336999893188477,1.2220000028610227
1621849162995,34.790000915527344,-38.14300155639648,-13.052000045776367,-1.8040000200271609,-9.460000038146973,1.2400000095367432
1621849163005,35.70000076293945,-33.9630012512207,-14.58899974822998,-1.687000036239624,-9.428000450134276,1.2849999666213987
1621849163015,36.61000061035156,-29.77400016784668,-15.770000457763672,-1.5299999713897705,-9.402999877929688,1.36899995803833
1621849163025,37.79999923706055,-25.83300018310547,-16.354000091552734,-1.4509999752044678,-9.402999877929688,1.36899995803833
1621849163035,38.9900016784668,-22.179000854492188,-16.917999267578125,-1.3730000257492063,-9.40999984741211,1.4079999923706057
1621849163045,39.83000183105469,-18.358999252319336,-18.02199935913086,-1.3730000257492063,-9.454999923706056,1.440000057220459
1621849163055,40.810001373291016,-14.718000411987305,-18.517000198364254,-1.4119999408721924,-9.494000434875488,1.4329999685287476
1621849163065,41.439998626708984,-10.98799991607666,-18.711999893188477,-1.3730000257492063,-9.524999618530272,1.3869999647140503
1621849163075,42.279998779296875,-6.883999824523926,-18.20199966430664,-1.3339999914169312,-9.440999984741213,1.3619999885559082
1621849163085,43.540000915527344,-2.6989998817443848,-16.540000915527344,-1.2549999952316284,-9.416000366210936,1.4470000267028809
1621849163095,45.220001220703125,0.5170000195503234,-15.831000328063965,-1.1770000457763672,-9.385000228881836,1.4919999837875366
1621849163105,46.54999923706055,4.004000186920166,-15.855999946594238,-1.0980000495910645,-9.366000175476074,1.6150000095367432
1621849163115,47.28499984741211,5.416999816894531,-16.211000442504883,-1.0199999809265137,-9.399999618530272,1.8079999685287476
1621849163125,48.02000045776367,6.829999923706055,-16.56599998474121,-0.9020000100135804,-9.512000083923342,1.986999988555908
1621849163135,48.93000030517578,9.32800006866455,-17.83099937438965,-0.8629999756813049,-9.54599952697754,2.180000066757202
1621849163145,49.84000015258789,11.201000213623049,-18.780000686645508,-0.8240000009536743,-9.625,2.4049999713897705
1621849163155,50.75,13.38700008392334,-19.88800048828125,-0.8629999756813049,-9.58899974822998,2.6510000228881836
1621849163165,51.029998779296875,15.989999771118164,-21.347999572753903,-0.8629999756813049,-9.666000366210936,2.63700008392334
1621849163175,49.70000076293945,18.597000122070312,-22.024999618530273,-0.8629999756813049,-9.802000045776367,2.7330000400543213
1621849163185,47.25,21.743999481201172,-22.53700065612793,-0.9409999847412108,-9.970999717712402,2.7829999923706055
1621849163195,44.029998779296875,24.51300048828125,-22.118999481201172,-1.0199999809265137,-10.145999908447266,2.871000051498413
1621849163205,40.25,27.566999435424805,-22.5049991607666,-1.0199999809265137,-10.32699966430664,2.999000072479248
1621849163215,36.2599983215332,30.777999877929688,-22.57799911499023,-1.1380000114440918,-10.288999557495115,3.005000114440918
1621849163225,32.20000076293945,34.55699920654297,-23.048999786376953,-1.215999960899353,-10.288999557495115,3.005000114440918
1621849163235,27.719999313354492,38.279998779296875,-22.39299964904785,-1.2940000295639038,-10.392999649047852,3.1459999084472656
1621849163245,23.65999984741211,43.64099884033203,-20.950000762939453,-1.4509999752044678,-10.529999732971191,3.2420001029968266
1621849163255,18.969999313354492,50.27899932861328,-20.70400047302246,-1.6480000019073486,-10.54300022125244,3.319000005722046
1621849163265,14.489999771118164,58.66899871826172,-21.924999237060547,-1.8040000200271609,-10.486000061035156,3.4489998817443848
1621849163275,10.220000267028809,67.86900329589844,-24.92300033569336,-1.843999981880188,-10.416000366210936,3.500999927520752
1621849163285,6.440000057220459,77.41000366210938,-27.434999465942383,-1.8040000200271609,-10.307000160217283,3.559999942779541
1621849163295,3.2899999618530273,86.33100128173828,-27.638999938964844,-1.7649999856948853,-10.229999542236328,3.5739998817443848
1621849163305,0.0,95.78299713134764,-25.617000579833984,-1.8040000200271609,-10.256999969482422,3.7279999256134033
1621849163315,-3.009999990463257,105.81600189208984,-24.06100082397461,-2.0399999618530273,-10.333999633789062,3.71399998664856
1621849163325,-6.789999961853027,116.5780029296875,-24.225000381469727,-2.313999891281128,-10.41100025177002,3.700999975204468
1621849163335,-8.680000305175781,122.87950134277344,-24.2864990234375,-2.510999917984009,-10.501999855041504,3.763999938964844
1621849163345,-10.56999969482422,129.18099975585935,-24.347999572753903,-2.6670000553131104,-10.439000129699709,3.8550000190734863
1621849163355,-14.630000114440918,142.68800354003906,-23.95599937438965,-2.5889999866485596,-10.23900032043457,3.8510000705718994
1621849163365,-18.34000015258789,156.02099609375,-23.382999420166016,-2.549999952316284,-10.083999633789062,3.878000020980835
1621849163375,-21.6299991607666,168.94000244140625,-21.67300033569336,-2.628000020980835,-9.883999824523924,3.872999906539917
1621849163385,-24.010000228881836,180.8820037841797,-18.85700035095215,-2.6670000553131104,-9.767999649047852,3.8940000534057617
1621849163395,-25.1299991607666,193.6840057373047,-15.675000190734863,-2.746000051498413,-9.54300022125244,3.973000049591065
1621849163405,-25.479999542236328,206.3769989013672,-14.289999961853027,-2.7850000858306885,-9.472999572753906,4.026000022888184
1621849163415,-25.200000762939453,219.1540069580078,-14.595999717712402,-2.6670000553131104,-9.395999908447264,4.039000034332275
1621849163425,-24.780000686645508,231.56199645996097,-16.033000946044922,-2.431999921798706,-9.36400032043457,4.085000038146973
1621849163435,-23.940000534057617,241.906005859375,-18.26099967956543,-2.236000061035156,-9.427000045776367,3.9939999580383305
1621849163445,-24.010000228881836,249.9510040283203,-18.334999084472656,-2.1570000648498535,-9.434000015258787,4.0320000648498535
1621849163455,-24.56999969482422,258.0169982910156,-15.70400047302246,-2.118000030517578,-9.38199996948242,3.961999893188477
1621849163465,-25.270000457763672,265.9280090332031,-13.812000274658203,-2.0399999618530273,-9.38199996948242,3.961999893188477
1621849163475,-24.780000686645508,272.5299987792969,-14.56700038909912,-1.843999981880188,-9.336000442504885,3.9300000667572026
1621849163485,-24.079999923706055,277.322998046875,-15.142999649047852,-1.687000036239624,-9.20699977874756,3.872999906539917
1621849163495,-22.88999938964844,281.50299072265625,-15.472000122070312,-1.491000056266785,-9.123000144958496,3.848000049591065
1621849163505,-21.90999984741211,284.114990234375,-14.159000396728516,-1.2549999952316284,-9.10200023651123,3.73200011253357
1621849163515,-20.229999542236328,284.52099609375,-12.026000022888184,-1.0980000495910645,-8.991000175476074,3.552999973297119
1621849163525,-18.059999465942383,283.64898681640625,-11.11400032043457,-0.9020000100135804,-9.003000259399414,3.3919999599456787
1621849163535,-15.68000030517578,281.2569885253906,-10.04300022125244,-0.8240000009536743,-8.982000350952148,3.2760000228881836
1621849163545,-13.020000457763672,278.0820007324219,-8.968000411987305,-0.7059999704360961,-8.993000030517578,3.114000082015991
1621849163555,-11.829999923706056,276.3320007324219,-8.920999526977539,-0.6280000209808348,-8.998000144958496,2.9140000343322754
1621849163565,-10.640000343322754,274.5820007324219,-8.87399959564209,-0.5879999995231628,-9.079999923706056,2.700999975204468
1621849163575,-8.539999961853027,270.47900390625,-10.593000411987305,-0.5879999995231628,-9.031999588012695,2.430000066757202
1621849163585,-6.860000133514404,265.3529968261719,-12.562999725341797,-0.4709999859333038,-9.08199977874756,2.26200008392334
1621849163595,-5.53000020980835,259.885986328125,-15.019000053405762,-0.4309999942779541,-9.119000434875488,2.0169999599456787
1621849163605,-5.110000133514404,253.0570068359375,-18.214000701904297,-0.3140000104904174,-9.085000038146973,1.8240000009536743
1621849163615,-4.550000190734863,246.1840057373047,-21.558000564575195,-0.1959999948740005,-9.050000190734863,1.63100004196167
1621849163625,-3.9200000762939458,239.2169952392578,-24.777000427246097,-0.0780000016093254,-8.977999687194824,1.444000005722046
1621849163635,-3.0799999237060547,231.2689971923828,-27.67099952697754,0.0,-8.951000213623047,1.2899999618530271
1621849163645,-2.0999999046325684,222.8260040283203,-30.58099937438965,0.0390000008046627,-8.942000389099121,1.0119999647140503
1621849163655,-0.7699999809265136,214.1230010986328,-32.82699966430664,0.1570000052452087,-8.967000007629395,0.9279999732971193
1621849163665,0.9800000190734864,204.84500122070312,-35.03099822998047,0.1570000052452087,-8.894000053405762,0.7419999837875366
1621849163675,2.869999885559082,195.2389984130859,-36.58300018310547,0.1959999948740005,-8.911999702453613,0.6190000176429749
1621849163685,5.320000171661377,185.89999389648435,-38.44300079345703,0.2349999994039535,-8.892000198364258,0.5030000209808348
1621849163695,7.630000114440918,176.48800659179688,-39.88899993896485,0.2349999994039535,-8.90999984741211,0.3810000121593475
1621849163705,9.449999809265137,167.15699768066406,-41.391998291015625,0.1570000052452087,-8.928000450134277,0.2579999864101409
1621849163715,11.550000190734863,158.42300415039062,-42.64799880981445,0.2349999994039535,-8.991999626159668,0.1669999957084655
1621849163725,13.649999618530272,150.19900512695312,-44.382999420166016,0.3529999852180481,-9.086999893188477,0.0309999994933605
1621849163735,15.329999923706056,142.09300231933594,-46.380001068115234,0.3919999897480011,-9.119000434875488,-0.0149999996647238
1621849163745,16.729999542236328,133.73500061035156,-47.35699844360352,0.5490000247955322,-9.234999656677246,-0.0350000001490116
1621849163755,16.940000534057617,124.74099731445312,-46.73899841308594,0.7450000047683715,-9.369000434875488,-0.1780000030994415
1621849163765,16.8700008392334,115.8730010986328,-44.81999969482422,0.8240000009536743,-9.477999687194824,-0.2370000034570694
1621849163775,16.55500030517578,111.54850006103516,-43.87649917602539,0.8629999756813049,-9.710000038146973,-0.277999997138977
1621849163785,16.239999771118164,107.2239990234375,-42.93299865722656,0.8629999756813049,-9.748000144958496,-0.2849999964237213
1621849163795,14.909999847412108,99.41500091552734,-40.96900177001953,0.8629999756813049,-9.786999702453612,-0.2919999957084655
1621849163805,13.720000267028809,91.8769989013672,-39.7400016784668,0.8629999756813049,-9.826000213623049,-0.2989999949932098
1621849163815,12.039999961853027,84.75199890136719,-37.229000091552734,0.7850000262260437,-9.871000289916992,-0.2669999897480011
1621849163825,10.289999961853027,78.98600006103516,-34.762001037597656,0.7450000047683715,-9.86400032043457,-0.3050000071525573
1621849163835,8.470000267028809,73.11499786376953,-33.310001373291016,0.7059999704360961,-9.826000213623049,-0.2989999949932098
1621849163845,7.070000171661377,67.90899658203125,-31.597999572753903,0.7059999704360961,-9.86400032043457,-0.3050000071525573
1621849163855,5.53000020980835,62.79600143432618,-28.80299949645996,0.6669999957084655,-9.86400032043457,-0.3050000071525573
1621849163864,4.059999942779541,57.95800018310547,-25.959999084472656,0.5879999995231628,-9.857000350952148,-0.3440000116825103
1621849163874,2.6600000858306885,53.59099960327149,-24.17099952697754,0.5490000247955322,-9.92099952697754,-0.4350000023841857
1621849163884,0.9100000262260436,49.39500045776367,-23.347000122070312,0.6280000209808348,-9.979999542236328,-0.3260000050067901
1621849163895,-1.2599999904632568,45.55899810791016,-22.95800018310547,0.6280000209808348,-9.979999542236328,-0.3260000050067901
1621849163904,-3.2200000286102295,41.44300079345703,-23.39900016784668,0.6280000209808348,-9.928000450134276,-0.3959999978542327
1621849163914,-5.25,38.1619987487793,-23.33799934387207,0.6280000209808348,-9.843999862670898,-0.4210000038146972
1621849163924,-6.929999828338623,33.847999572753906,-22.25,0.6280000209808348,-9.829999923706056,-0.4990000128746032
1621849163934,-8.609999656677246,30.231000900268555,-20.684999465942383,0.5490000247955322,-9.78499984741211,-0.5299999713897705
1621849163944,-10.289999961853027,27.343999862670895,-19.6299991607666,0.4709999859333038,-9.862000465393066,-0.5440000295639038
1621849163954,-11.829999923706056,24.52199935913086,-19.34600067138672,0.3529999852180481,-9.901000022888184,-0.5509999990463256
1621849163964,-13.579999923706056,22.680999755859375,-19.38599967956543,0.2349999994039535,-9.939000129699709,-0.5580000281333923
1621849163974,-16.100000381469727,21.500999450683594,-18.74099922180176,0.0780000016093254,-10.041999816894531,-0.6549999713897705
1621849163984,-19.11000061035156,21.253999710083008,-18.145000457763672,0.0,-10.06700038909912,-0.7390000224113464
1621849163994,-20.650001525878903,21.45249938964844,-17.861000061035156,-0.0390000008046627,-10.20699977874756,-0.8439999818801879
1621849164004,-22.190000534057617,21.650999069213867,-17.57699966430664,-0.0390000008046627,-10.31700038909912,-0.902999997138977
1621849164014,-25.34000015258789,22.417999267578125,-17.086999893188477,-0.0390000008046627,-10.244000434875488,-1.0889999866485596
1621849164024,-29.399999618530273,22.924999237060547,-15.930999755859377,-0.0390000008046627,-10.121000289916992,-1.1069999933242798
1621849164034,-33.66999816894531,24.027999877929688,-14.527999877929688,-0.0390000008046627,-10.005000114440918,-1.087000012397766
1621849164044,-36.470001220703125,24.66900062561035,-12.92300033569336,-0.0390000008046627,-9.843999862670898,-1.0980000495910645
1621849164054,-38.0099983215332,25.099000930786133,-10.928000450134276,-0.0780000016093254,-9.71399974822998,-1.1549999713897705
1621849164064,-38.5,25.27400016784668,-8.692999839782715,-0.1180000007152557,-9.468999862670898,-1.1920000314712524
1621849164074,-37.2400016784668,25.315000534057617,-5.701000213623047,-0.1570000052452087,-9.345999717712402,-1.2100000381469729
1621849164084,-35.0,25.95599937438965,-2.88700008392334,-0.1959999948740005,-9.262000083923342,-1.2350000143051147
1621849164094,-31.780000686645508,25.875,-1.621999979019165,-0.2750000059604644,-9.255000114440918,-1.2730000019073486
1621849164104,-28.489999771118164,25.93199920654297,-0.3319999873638153,-0.3140000104904174,-9.227999687194824,-1.4279999732971191
1621849164114,-25.6200008392334,26.673999786376953,0.2960000038146972,-0.3919999897480011,-9.220999717712402,-1.4670000076293943
1621849164124,-23.239999771118164,27.343000411987305,0.1299999952316284,-0.3919999897480011,-9.130000114440918,-1.5299999713897705
1621849164134,-20.719999313354492,28.18199920654297,-1.0010000467300415,-0.3919999897480011,-9.032999992370604,-1.6330000162124634
1621849164144,-18.479999542236328,28.58300018310547,-2.068000078201294,-0.3140000104904174,-8.980999946594238,-1.7029999494552612
1621849164154,-16.239999771118164,28.652000427246097,-2.055999994277954,-0.2349999994039535,-8.928000450134277,-1.7730000019073486
1621849164164,-14.489999771118164,28.413000106811523,-1.1030000448226929,-0.2349999994039535,-8.960000038146973,-1.819000005722046
1621849164174,-12.529999732971191,27.72800064086914,-0.44200000166893,-0.1959999948740005,-9.107999801635742,-1.8849999904632568
1621849164184,-10.079999923706056,26.597000122070312,-0.0729999989271163,-0.1959999948740005,-9.255000114440918,-1.950999975204468
1621849164194,-8.819999694824219,26.14699935913086,0.0609999969601631,-0.1959999948740005,-9.326000213623049,-2.003000020980835
1621849164204,-7.559999942779541,25.69700050354004,0.1949999928474426,-0.1959999948740005,-9.319000244140623,-2.0420000553131104
1621849164214,-5.599999904632568,24.954999923706055,0.774999976158142,-0.2750000059604644,-9.326000213623049,-2.003000020980835
1621849164224,-3.569999933242798,23.64900016784668,1.3270000219345093,-0.2349999994039535,-9.364999771118164,-2.009999990463257
1621849164234,-1.4700000286102295,21.589000701904297,1.319000005722046,-0.2349999994039535,-9.402999877929688,-2.0169999599456787
1621849164244,0.6299999952316284,20.170000076293945,1.7079999446868896,-0.1959999948740005,-9.40999984741211,-1.9780000448226929
1621849164254,2.380000114440918,18.499000549316406,1.9110000133514404,-0.1570000052452087,-9.449000358581545,-1.9850000143051147
1621849164264,3.6400001049041744,16.150999069213867,1.924000024795532,-0.1570000052452087,-9.526000022888184,-1.9980000257492063
1621849164274,3.849999904632568,13.352999687194824,2.069999933242798,-0.1180000007152557,-9.532999992370604,-1.9600000381469729
1621849164284,4.059999942779541,10.446000099182127,2.836999893188477,-0.1570000052452087,-9.532999992370604,-1.9600000381469729
1621849164294,4.059999942779541,7.668000221252441,3.2709999084472656,-0.1570000052452087,-9.616999626159668,-1.934999942779541
1621849164304,4.059999942779541,5.060999870300293,2.740000009536743,-0.1959999948740005,-9.616999626159668,-1.934999942779541
1621849164314,3.9200000762939458,2.3519999980926514,1.9789999723434448,-0.1959999948740005,-9.585000038146973,-1.8890000581741333
1621849164324,3.7100000381469727,0.2269999980926513,1.5329999923706057,-0.2349999994039535,-9.57800006866455,-1.9279999732971191
1621849164334,3.7799999713897705,-1.975000023841858,0.7179999947547911,-0.2750000059604644,-9.630000114440918,-1.85699999332428
1621849164344,3.990000009536743,-3.98200011253357,0.0089999996125698,-0.3529999852180481,-9.637000083923342,-1.819000005722046
1621849164354,4.340000152587891,-5.559000015258789,0.0860000029206275,-0.4309999942779541,-9.720999717712402,-1.7940000295639038
1621849164364,5.110000133514404,-6.776000022888184,-0.2709999978542327,-0.4709999859333038,-9.767000198364256,-1.7619999647140503
1621849164374,5.599999904632568,-7.817999839782715,-0.8100000023841857,-0.5490000247955322,-9.779999732971191,-1.684999942779541
1621849164384,5.949999809265137,-8.38599967956543,-1.6210000514984133,-0.6280000209808348,-9.74899959564209,-1.6390000581741333
1621849164394,5.880000114440918,-8.642000198364258,-2.5899999141693115,-0.5879999995231628,-9.741999626159668,-1.6779999732971191
1621849164404,5.704999923706055,-8.708499908447266,-2.815000057220459,-0.5879999995231628,-9.786999702453612,-1.6460000276565552
1621849164414,5.53000020980835,-8.774999618530273,-3.0399999618530273,-0.5490000247955322,-9.734999656677246,-1.7170000076293943
1621849164424,4.760000228881836,-9.071000099182127,-3.377000093460083,-0.5490000247955322,-9.70300006866455,-1.6710000038146973
1621849164434,3.990000009536743,-9.270000457763674,-4.264999866485596,-0.4709999859333038,-9.678000450134276,-1.587000012397766
1621849164444,2.869999885559082,-9.23799991607666,-5.254000186920166,-0.4309999942779541,-9.593999862670898,-1.6119999885559082
1621849164454,1.9600000381469729,-9.46500015258789,-5.578000068664551,-0.4309999942779541,-9.484999656677246,-1.5529999732971191
1621849164464,0.9100000262260436,-9.368000030517578,-6.130000114440918,-0.3919999897480011,-9.413999557495115,-1.5010000467300415
1621849164474,0.2800000011920929,-9.437000274658203,-6.142000198364258,-0.3529999852180481,-9.45300006866455,-1.5080000162124634
1621849164484,0.209999993443489,-9.468999862670898,-6.361000061035156,-0.3529999852180481,-9.45300006866455,-1.5080000162124634
1621849164494,-0.0700000002980232,-9.595000267028809,-6.453999996185303,-0.3529999852180481,-9.52400016784668,-1.559999942779541
1621849164504,-0.4199999868869781,-9.630999565124512,-6.247000217437744,-0.3529999852180481,-9.60099983215332,-1.5729999542236328
1621849164514,-0.9100000262260436,-9.802000045776367,-5.2820000648498535,-0.3529999852180481,-9.652999877929688,-1.503000020980835
1621849164524,-1.399999976158142,-10.149999618530272,-4.916999816894531,-0.3140000104904174,-9.710000038146973,-1.631999969482422
1621849164534,-2.5199999809265137,-10.394000053405762,-4.747000217437744,-0.3140000104904174,-9.755000114440918,-1.60099995136261
1621849164544,-3.2899999618530273,-10.446000099182127,-4.045000076293945,-0.3529999852180481,-9.696000099182127,-1.7100000381469729
1621849164554,-3.7799999713897705,-10.8149995803833,-3.9679999351501465,-0.3140000104904174,-9.663999557495115,-1.6640000343322754
1621849164564,-4.269999980926514,-10.685999870300291,-4.301000118255615,-0.2349999994039535,-9.62600040435791,-1.656999945640564
1621849164574,-4.130000114440918,-10.868000030517578,-4.474999904632568,-0.3140000104904174,-9.619000434875488,-1.6959999799728394
1621849164584,-3.430000066757202,-10.925000190734863,-4.556000232696533,-0.3919999897480011,-9.548999786376951,-1.6440000534057615
1621849164594,-2.5899999141693115,-11.083000183105469,-4.86899995803833,-0.3919999897480011,-9.46500015258789,-1.6690000295639038
1621849164604,-2.0299999713897705,-10.828000068664553,-5.107999801635742,-0.3919999897480011,-9.470999717712402,-1.6299999952316284
1621849164614,-1.5399999618530271,-10.734499931335447,-5.233500003814697,-0.4309999942779541,-9.548999786376951,-1.6440000534057615
1621849164624,-1.0499999523162842,-10.640999794006348,-5.359000205993652,-0.4709999859333038,-9.586999893188477,-1.6510000228881836
1621849164634,-0.1400000005960464,-10.057000160217283,-6.250999927520752,-0.5490000247955322,-9.633000373840332,-1.61899995803833
1621849164644,-0.3499999940395355,-8.991000175476074,-7.058000087738037,-0.4709999859333038,-9.67099952697754,-1.6260000467300415
1621849164654,-0.3499999940395355,-7.689000129699707,-8.392999649047852,-0.4709999859333038,-9.663999557495115,-1.6640000343322754
1621849164664,-0.3499999940395355,-6.107999801635742,-8.895999908447266,-0.3919999897480011,-9.663999557495115,-1.6640000343322754
1621849164674,-0.9100000262260436,-4.554999828338623,-8.835000038146973,-0.3529999852180481,-9.67099952697754,-1.6260000467300415
1621849164684,-1.5399999618530271,-3.2980000972747803,-7.902999877929688,-0.2750000059604644,-9.6850004196167,-1.5479999780654907
1621849164694,-2.1700000762939453,-2.263999938964844,-6.51200008392334,-0.3140000104904174,-9.717000007629396,-1.593999981880188
1621849164704,-3.2200000286102295,-2.1500000953674316,-5.140999794006348,-0.2349999994039535,-9.723999977111816,-1.5549999475479126
1621849164714,-3.849999904632568,-1.4639999866485596,-4.593999862670898,-0.3140000104904174,-9.6850004196167,-1.5479999780654907
1621849164724,-4.199999809265137,-0.6169999837875366,-5.36899995803833,-0.2750000059604644,-9.645999908447264,-1.5420000553131104
1621849164734,-4.690000057220459,0.335999995470047,-7.546000003814697,-0.2750000059604644,-9.61400032043457,-1.4960000514984133
1621849164744,-4.829999923706055,1.6529999971389773,-9.375,-0.2750000059604644,-9.61400032043457,-1.4960000514984133
1621849164754,-5.039999961853027,2.703000068664551,-10.895999908447266,-0.3140000104904174,-9.652999877929688,-1.503000020980835
1621849164764,-5.460000038146973,3.546999931335449,-11.244999885559082,-0.3140000104904174,-9.652999877929688,-1.503000020980835
1621849164774,-5.599999904632568,3.571000099182129,-11.383000373840332,-0.3140000104904174,-9.69200038909912,-1.5099999904632568
1621849164784,-5.53000020980835,3.76200008392334,-10.85200023651123,-0.3140000104904174,-9.729999542236328,-1.5169999599456787
1621849164794,-4.829999923706055,3.6760001182556152,-10.369000434875488,-0.3140000104904174,-9.645999908447264,-1.5420000553131104
1621849164804,-3.359999895095825,3.6809999942779545,-9.586999893188477,-0.3140000104904174,-9.576000213623049,-1.4889999628067017
1621849164814,-1.6799999475479126,3.660000085830689,-9.87399959564209,-0.3140000104904174,-9.428000450134276,-1.4229999780654907
1621849164824,-0.6299999952316284,3.50600004196167,-10.007999420166016,-0.2349999994039535,-9.392000198364256,-1.1779999732971191
1621849164834,0.4199999868869781,3.3519999980926514,-10.142000198364258,-0.2750000059604644,-9.300999641418455,-1.2419999837875366
1621849164844,2.240000009536743,3.375999927520752,-10.279999732971191,-0.2750000059604644,-9.378000259399414,-1.2549999952316284
1621849164854,3.569999933242798,3.364000082015991,-10.211000442504885,-0.2750000059604644,-9.378000259399414,-1.2549999952316284
1621849164864,4.550000190734863,3.1449999809265137,-10.178000450134276,-0.2349999994039535,-9.532999992370604,-1.2829999923706057
1621849164874,4.900000095367432,2.865999937057495,-9.800999641418455,-0.2349999994039535,-9.609999656677246,-1.2960000038146973
1621849164884,4.690000057220459,3.075999975204468,-10.190999984741213,-0.2349999994039535,-9.68000030517578,-1.3480000495910645
1621849164894,4.059999942779541,3.60700011253357,-10.380999565124512,-0.2750000059604644,-9.79599952697754,-1.36899995803833
1621849164904,3.6400001049041744,4.081999778747559,-10.652999877929688,-0.3140000104904174,-9.79599952697754,-1.36899995803833
1621849164914,3.0799999237060547,5.0960001945495605,-10.758999824523926,-0.2750000059604644,-9.763999938964846,-1.3229999542236328
1621849164924,2.5899999141693115,5.684000015258789,-10.868000030517578,-0.3140000104904174,-9.72599983215332,-1.3170000314712524
1621849164934,2.380000114440918,6.210999965667725,-10.633000373840332,-0.2750000059604644,-9.68000030517578,-1.3480000495910645
1621849164944,2.309999942779541,6.539000034332275,-10.078000068664553,-0.2750000059604644,-9.609999656677246,-1.2960000038146973
1621849164954,3.0799999237060547,6.701000213623047,-10.190999984741213,-0.2349999994039535,-9.57800006866455,-1.2510000467300415
1621849164964,4.130000114440918,7.135000228881836,-11.038999557495115,-0.1959999948740005,-9.487000465393066,-1.3140000104904177
1621849164974,5.320000171661377,7.605000019073486,-12.093000411987305,-0.1570000052452087,-9.416999816894531,-1.2619999647140503
1621849164984,6.090000152587891,8.038999557495117,-12.940999984741213,-0.1180000007152557,-9.423999786376951,-1.2230000495910645
1621849164994,7.0,9.397000312805178,-14.194000244140623,-0.0780000016093254,-9.538999557495115,-1.24399995803833
1621849165004,7.105000019073486,10.052000045776367,-14.682499885559082,0.0,-9.592000007629396,-1.1729999780654907
1621849165014,7.210000038146973,10.70699977874756,-15.17099952697754,0.0,-9.661999702453612,-1.22599995136261
1621849165024,6.510000228881836,11.541999816894531,-15.876999855041504,0.0,-9.694000244140623,-1.2710000276565552
1621849165034,5.179999828338623,12.19499969482422,-15.548999786376951,0.0780000016093254,-9.770999908447264,-1.2849999666213987
1621849165044,3.2899999618530273,12.581000328063965,-13.70400047302246,0.0780000016093254,-9.72599983215332,-1.3170000314712524
1621849165054,2.1700000762939453,13.213000297546388,-12.454999923706056,0.0780000016093254,-9.64900016784668,-1.3029999732971191
1621849165064,1.9600000381469729,13.404000282287598,-10.715000152587892,0.0780000016093254,-9.494000434875488,-1.2760000228881836
1621849165074,2.799999952316284,13.33199977874756,-9.093000411987305,0.0780000016093254,-9.392000198364256,-1.1779999732971191
1621849165084,4.059999942779541,12.99899959564209,-6.806000232696533,0.0390000008046627,-9.282999992370604,-1.11899995803833
1621849165094,5.809999942779541,13.612000465393066,-4.63700008392334,-0.0390000008046627,-9.218999862670898,-1.0279999971389773
1621849165104,7.630000114440918,14.338000297546388,-3.513999938964844,-0.1959999948740005,-9.335000038146973,-1.0490000247955322
1621849165114,9.029999732971191,16.110000610351562,-3.484999895095825,-0.4309999942779541,-9.48900032043457,-1.0759999752044678
1621849165124,9.59000015258789,19.3700008392334,-2.625999927520752,-0.7450000047683715,-9.651000022888184,-1.0640000104904177
1621849165134,9.869999885559082,24.775999069213867,-2.2420001029968266,-1.0199999809265137,-9.734999656677246,-1.0390000343322754
1621849165144,10.149999618530272,31.56399917602539,-2.0399999618530273,-1.215999960899353,-9.767000198364256,-1.0850000381469729
1621849165154,10.010000228881836,39.479000091552734,-1.781999945640564,-1.3339999914169312,-9.772999763488768,-1.0460000038146973
1621849165164,9.800000190734863,47.65399932861328,-0.9800000190734864,-1.4119999408721924,-9.812000274658203,-1.0529999732971191
1621849165174,9.55500030517578,51.71299743652344,-0.6195000410079956,-1.4119999408721924,-9.819000244140623,-1.0140000581741333
1621849165184,9.3100004196167,55.77199935913086,-0.2590000033378601,-1.3339999914169312,-9.819000244140623,-1.0140000581741333
1621849165194,8.609999656677246,63.38800048828125,0.0879999995231628,-1.215999960899353,-9.767000198364256,-1.0850000381469729
1621849165204,8.1899995803833,70.08599853515625,-0.0099999997764825,-1.0980000495910645,-9.727999687194824,-1.0779999494552612
1621849165214,8.050000190734863,75.44300079345702,0.649999976158142,-0.9409999847412108,-9.651000022888184,-1.0640000104904177
1621849165224,8.260000228881836,80.4469985961914,0.8930000066757202,-0.7850000262260437,-9.612000465393066,-1.0579999685287476
1621849165234,9.029999732971191,84.4010009765625,0.2399999946355819,-0.5879999995231628,-9.579999923706056,-1.0119999647140503
1621849165244,10.359999656677246,87.16999816894531,-0.5509999990463256,-0.3919999897480011,-9.503000259399414,-0.9990000128746032
1621849165254,11.199999809265137,89.3030014038086,-0.9570000171661376,-0.2750000059604644,-9.55500030517578,-0.9279999732971193
1621849165264,12.600000381469728,90.26799774169922,-0.787000000476837,-0.1570000052452087,-9.586999893188477,-0.9729999899864196
1621849165274,13.649999618530272,90.08599853515624,-0.9610000252723692,0.0,-9.633000373840332,-0.9419999718666076
1621849165284,14.420000076293944,89.42900085449219,-0.8640000224113464,0.0780000016093254,-9.663999557495115,-0.9869999885559082
1621849165294,14.699999809265137,88.08699798583984,-0.1059999987483024,0.1570000052452087,-9.710000038146973,-0.9549999833106994
1621849165304,14.630000114440918,86.322998046875,1.4320000410079956,0.1959999948740005,-9.755000114440918,-0.9229999780654908
1621849165314,13.720000267028809,84.80999755859375,1.9470000267028809,0.2349999994039535,-9.826000213623049,-0.9760000109672546
1621849165324,12.880000114440918,82.81900024414062,1.950999975204468,0.2750000059604644,-9.90999984741211,-0.9509999752044676
1621849165334,12.215000152587892,81.8479995727539,1.815500020980835,0.2750000059604644,-9.947999954223633,-0.9580000042915344
1621849165344,11.550000190734863,80.87699890136719,1.6799999475479126,0.3529999852180481,-9.954999923706056,-0.9190000295639038
1621849165354,10.289999961853027,78.72799682617188,1.371999979019165,0.3919999897480011,-9.961999893188477,-0.8799999952316284
1621849165364,8.680000305175781,76.25399780273438,1.2910000085830688,0.4309999942779541,-10.00100040435791,-0.887000024318695
1621849165374,6.789999961853027,73.54100036621094,0.9549999833106994,0.3529999852180481,-10.038999557495115,-0.8939999938011169
1621849165384,4.760000228881836,71.00700378417969,0.0099999997764825,0.3529999852180481,-10.078000068664553,-0.9010000228881836
1621849165394,2.240000009536743,68.56999969482422,-0.2770000100135803,0.3140000104904174,-10.116999626159668,-0.9079999923706054
1621849165404,-0.5600000023841857,66.80599975585938,-1.156999945640564,0.3140000104904174,-10.154999732971191,-0.9139999747276306
1621849165414,-3.430000066757202,64.78199768066406,-2.5799999237060547,0.3529999852180481,-10.135000228881836,-1.0299999713897705
1621849165424,-5.739999771118164,62.50299835205078,-3.763999938964844,0.3919999897480011,-10.095999717712402,-1.0230000019073486
1621849165434,-7.699999809265136,59.680999755859375,-4.688000202178955,0.4709999859333038,-10.050999641418455,-1.0549999475479126
1621849165444,-9.800000190734863,56.810001373291016,-5.335999965667725,0.5099999904632568,-9.998000144958496,-1.1260000467300415
1621849165454,-10.850000381469728,53.5620002746582,-6.263999938964844,0.5490000247955322,-9.946000099182127,-1.1959999799728394
1621849165464,-11.619999885559082,50.55699920654297,-7.362999916076661,0.5490000247955322,-9.907999992370604,-1.1890000104904177
1621849165474,-12.670000076293944,47.3129997253418,-7.507999897003175,0.5879999995231628,-9.81700038909912,-1.253000020980835
1621849165484,-13.300000190734863,44.07699966430664,-7.296999931335449,0.6280000209808348,-9.770999908447264,-1.2849999666213987
1621849165494,-13.300000190734863,42.39399719238281,-7.024999618530273,0.6669999957084655,-9.694000244140623,-1.2710000276565552
1621849165503,-13.300000190734863,40.71099853515625,-6.752999782562256,0.6669999957084655,-9.616999626159668,-1.2580000162124634
1621849165513,-12.8100004196167,36.81399917602539,-6.019000053405762,0.6669999957084655,-9.54599952697754,-1.2050000429153442
1621849165523,-11.760000228881836,33.29899978637695,-5.429999828338623,0.7059999704360961,-9.454999923706056,-1.2690000534057615
1621849165533,-10.5,30.090999603271484,-4.573999881744385,0.7850000262260437,-9.44200038909912,-1.3459999561309814
1621849165543,-9.170000076293944,26.645000457763672,-3.973999977111816,0.6669999957084655,-9.395999908447264,-1.378000020980835
1621849165553,-7.280000209808349,23.25900077819824,-3.7179999351501465,0.6669999957084655,-9.36400032043457,-1.3329999446868896
1621849165563,-5.389999866485596,19.763999938964844,-2.8410000801086426,0.6280000209808348,-9.36400032043457,-1.3329999446868896
1621849165573,-3.9200000762939458,16.72599983215332,-2.950000047683716,0.6280000209808348,-9.402999877929688,-1.3389999866485596
1621849165583,-2.5899999141693115,13.640999794006348,-2.7839999198913574,0.5879999995231628,-9.395999908447264,-1.378000020980835
1621849165593,-1.6799999475479126,10.895000457763672,-3.3389999866485596,0.5099999904632568,-9.395999908447264,-1.378000020980835
1621849165603,-0.4199999868869781,7.939000129699707,-3.505000114440918,0.5490000247955322,-9.395999908447264,-1.378000020980835
1621849165613,0.5600000023841857,5.0970001220703125,-3.5079998970031734,0.5099999904632568,-9.395999908447264,-1.378000020980835
1621849165623,1.190000057220459,2.8949999809265137,-3.115000009536743,0.4709999859333038,-9.402999877929688,-1.3389999866485596
1621849165633,1.6100000143051147,0.7979999780654907,-2.9159998893737793,0.3919999897480011,-9.40999984741211,-1.3009999990463257
1621849165643,2.240000009536743,-0.8029999732971191,-2.700999975204468,0.2349999994039535,-9.449000358581545,-1.3079999685287476
1621849165653,2.554999828338623,-1.4294999837875366,-2.7754998207092285,0.2750000059604644,-9.538999557495115,-1.24399995803833
1621849165663,2.869999885559082,-2.055999994277954,-2.8499999046325684,0.1959999948740005,-9.532999992370604,-1.2829999923706057
1621849165673,3.1500000953674316,-3.450999975204468,-2.5989999771118164,0.1959999948740005,-9.585000038146973,-1.212000012397766
1621849165683,2.7300000190734863,-4.432000160217285,-2.2739999294281006,0.1180000007152557,-9.661999702453612,-1.22599995136261
1621849165693,2.7300000190734863,-5.060999870300293,-2.740000009536743,0.0390000008046627,-9.73900032043457,-1.2389999628067017
1621849165703,2.309999942779541,-4.861999988555908,-3.061000108718872,0.0,-9.81700038909912,-1.253000020980835
1621849165713,1.9600000381469729,-4.942999839782715,-3.003999948501587,-0.0390000008046627,-9.887000083923342,-1.3049999475479126
1621849165723,1.8899999856948853,-4.769000053405762,-3.187000036239624,-0.1180000007152557,-9.93299961090088,-1.2730000019073486
1621849165733,1.75,-4.395999908447266,-3.688999891281128,-0.1570000052452087,-10.010000228881836,-1.2869999408721924
1621849165743,1.8200000524520872,-3.9059998989105225,-4.455999851226807,-0.1959999948740005,-9.977999687194824,-1.2419999837875366
1621849165753,1.75,-3.5079998970031734,-5.0970001220703125,-0.2349999994039535,-9.93299961090088,-1.2730000019073486
1621849165763,1.6100000143051147,-2.7869999408721924,-5.965000152587891,-0.1959999948740005,-9.854999542236328,-1.2599999904632568
1621849165773,1.6100000143051147,-2.312000036239624,-6.236000061035156,-0.2349999994039535,-9.777999877929688,-1.2460000514984133
1621849165783,1.1200000047683716,-1.9839999675750732,-6.888999938964844,-0.1959999948740005,-9.701000213623049,-1.2330000400543213
1621849165793,0.3499999940395355,-1.7489999532699585,-7.415999889373779,-0.1570000052452087,-9.72599983215332,-1.3170000314712524
1621849165803,-0.4199999868869781,-0.4469999969005584,-8.75100040435791,-0.1959999948740005,-9.72599983215332,-1.3170000314712524
1621849165813,-0.7699999809265136,0.0495000034570693,-9.55150032043457,-0.1959999948740005,-9.73900032043457,-1.2389999628067017
1621849165823,-1.1200000047683716,0.5460000038146972,-10.35200023651123,-0.1570000052452087,-9.701000213623049,-1.2330000400543213
1621849165833,-1.5399999618530271,1.1299999952316284,-11.244999885559082,-0.1180000007152557,-9.661999702453612,-1.22599995136261
1621849165843,-2.5199999809265137,1.9119999408721924,-11.24899959564209,-0.0780000016093254,-9.694000244140623,-1.2710000276565552
1621849165853,-2.7300000190734863,1.9730000495910645,-10.385000228881836,-0.0780000016093254,-9.64900016784668,-1.3029999732971191
1621849165863,-3.0799999237060547,1.7100000381469729,-9.293999671936035,-0.0390000008046627,-9.609999656677246,-1.2960000038146973
1621849165873,-3.359999895095825,1.4830000400543213,-8.40999984741211,-0.0780000016093254,-9.571000099182127,-1.2890000343322754
1621849165883,-3.009999990463257,1.5889999866485596,-7.396999835968018,-0.0780000016093254,-9.571000099182127,-1.2890000343322754
1621849165893,-3.009999990463257,1.6169999837875366,-6.751999855041504,-0.0780000016093254,-9.526000022888184,-1.3209999799728394
1621849165903,-2.380000114440918,1.5520000457763672,-5.980999946594238,-0.0780000016093254,-9.494000434875488,-1.2760000228881836
1621849165913,-2.0299999713897705,2.177000045776367,-6.297999858856201,-0.1180000007152557,-9.494000434875488,-1.2760000228881836
1621849165923,-1.1200000047683716,2.684000015258789,-6.349999904632568,-0.1180000007152557,-9.538999557495115,-1.24399995803833
1621849165933,-0.5600000023841857,2.947000026702881,-6.232999801635742,-0.1180000007152557,-9.57800006866455,-1.2510000467300415
1621849165943,-0.1400000005960464,3.0850000381469727,-6.209000110626221,-0.0780000016093254,-9.571000099182127,-1.2890000343322754
1621849165953,-0.0700000002980232,3.0810000896453857,-6.991000175476074,-0.0780000016093254,-9.571000099182127,-1.2890000343322754
1621849165963,-0.2800000011920929,3.061000108718872,-7.27899980545044,-0.0390000008046627,-9.654999732971191,-1.2640000581741333
1621849165973,-0.2800000011920929,2.7320001125335693,-7.835000038146973,-0.0780000016093254,-9.694000244140623,-1.2710000276565552
1621849165983,-0.4549999833106994,2.5230000019073486,-8.262499809265137,-0.0390000008046627,-9.694000244140623,-1.2710000276565552
1621849165993,-0.6299999952316284,2.313999891281128,-8.6899995803833,0.0,-9.732999801635742,-1.2779999971389773
1621849166003,-0.8399999737739563,2.0950000286102295,-8.657999992370605,0.0,-9.694000244140623,-1.2710000276565552
1621849166013,-1.1200000047683716,1.9490000009536743,-9.038999557495115,0.0,-9.694000244140623,-1.2710000276565552
1621849166023,-1.2599999904632568,1.4670000076293943,-9.12399959564209,0.0,-9.694000244140623,-1.2710000276565552
1621849166033,-1.4700000286102295,1.2070000171661377,-9.666999816894531,-0.0390000008046627,-9.72599983215332,-1.3170000314712524
1621849166043,-1.6799999475479126,1.1380000114440918,-9.678999900817873,0.0,-9.73900032043457,-1.2389999628067017
1621849166053,-1.6100000143051147,1.5190000534057615,-9.824999809265137,-0.0390000008046627,-9.701000213623049,-1.2330000400543213
1621849166063,-1.4700000286102295,1.6369999647140503,-10.08899974822998,-0.0390000008046627,-9.661999702453612,-1.22599995136261
1621849166073,-1.2599999904632568,1.8109999895095823,-10.272000312805176,-0.0780000016093254,-9.585000038146973,-1.212000012397766
1621849166083,-1.190000057220459,2.3340001106262207,-10.819000244140623,-0.0390000008046627,-9.585000038146973,-1.212000012397766
1621849166093,-1.2599999904632568,2.5859999656677246,-10.633000373840332,-0.0390000008046627,-9.630000114440918,-1.1799999475479126
1621849166103,-0.8399999737739563,2.881999969482422,-10.29599952697754,0.0,-9.661999702453612,-1.22599995136261
1621849166113,-0.6299999952316284,3.2829999923706055,-10.154000282287598,0.0,-9.661999702453612,-1.22599995136261
1621849166123,-0.4900000095367431,3.1659998893737793,-9.89099979400635,0.0780000016093254,-9.701000213623049,-1.2330000400543213
1621849166133,-0.209999993443489,2.878000020980835,-9.869999885559082,0.1180000007152557,-9.73900032043457,-1.2389999628067017
1621849166143,-0.2800000011920929,2.2980000972747803,-9.404000282287598,0.1959999948740005,-9.701000213623049,-1.2330000400543213
1621849166153,-0.2800000011920929,1.7020000219345093,-9.651000022888184,0.2349999994039535,-9.73900032043457,-1.2389999628067017
1621849166163,-0.3149999976158142,1.2864999771118164,-9.51099967956543,0.3140000104904174,-9.770999908447264,-1.2849999666213987
1621849166173,-0.3499999940395355,0.8709999918937683,-9.371000289916992,0.2750000059604644,-9.73900032043457,-1.2389999628067017
1621849166183,-0.5600000023841857,-0.4510000050067901,-9.532999992370604,0.2750000059604644,-9.777999877929688,-1.2460000514984133
1621849166193,-0.7699999809265136,-2.434000015258789,-9.171999931335447,0.2349999994039535,-9.701000213623049,-1.2330000400543213
1621849166203,-0.8399999737739563,-3.436000108718872,-9.135000228881836,0.1959999948740005,-9.701000213623049,-1.2330000400543213
1621849166213,-1.190000057220459,-4.604000091552734,-8.559000015258789,0.1570000052452087,-9.701000213623049,-1.2330000400543213
1621849166223,-1.6799999475479126,-5.90500020980835,-8.434000015258789,0.0780000016093254,-9.701000213623049,-1.2330000400543213
1621849166233,-1.8899999856948853,-6.53000020980835,-8.116999626159668,0.0390000008046627,-9.708000183105469,-1.194000005722046
1621849166243,-1.6799999475479126,-7.1539998054504395,-7.801000118255616,-0.0390000008046627,-9.64900016784668,-1.3029999732971191
1621849166253,-1.75,-6.801000118255615,-7.382999897003175,-0.1180000007152557,-9.62399959564209,-1.218999981880188
1621849166263,-1.5399999618530271,-5.99399995803833,-7.525000095367432,-0.1570000052452087,-9.592000007629396,-1.1729999780654907
1621849166273,-1.399999976158142,-4.6479997634887695,-7.500999927520752,-0.1570000052452087,-9.585000038146973,-1.212000012397766
1621849166283,-0.9100000262260436,-3.4519999027252197,-7.432000160217285,-0.1959999948740005,-9.54599952697754,-1.2050000429153442
1621849166293,-0.7699999809265136,-2.6080000400543213,-7.781000137329101,-0.1959999948740005,-9.54599952697754,-1.2050000429153442
1621849166303,-0.0700000002980232,-1.5140000581741333,-7.943999767303467,-0.1570000052452087,-9.585000038146973,-1.212000012397766
1621849166313,0.209999993443489,-1.399999976158142,-7.781000137329101,-0.1180000007152557,-9.585000038146973,-1.212000012397766
1621849166323,0.6299999952316284,-0.8610000014305114,-7.614999771118165,-0.0780000016093254,-9.585000038146973,-1.212000012397766
1621849166333,1.1200000047683716,-1.2860000133514404,-7.618999958038329,-0.0390000008046627,-9.585000038146973,-1.212000012397766
1621849166343,1.75,-1.3760000467300415,-7.919000148773193,-0.0390000008046627,-9.585000038146973,-1.212000012397766
1621849166353,2.380000114440918,-1.0759999752044678,-8.008000373840332,-0.0390000008046627,-9.62399959564209,-1.218999981880188
1621849166363,2.3450000286102295,-1.1549999713897705,-8.16450023651123,-0.0780000016093254,-9.592000007629396,-1.1729999780654907
1621849166373,2.309999942779541,-1.2339999675750732,-8.321000099182129,0.0,-9.62399959564209,-1.218999981880188
1621849166383,2.380000114440918,-1.14900004863739,-8.803000450134277,-0.0390000008046627,-9.630000114440918,-1.1799999475479126
1621849166393,2.6600000858306885,-1.2710000276565552,-9.321999549865724,0.0,-9.668999671936035,-1.187000036239624
1621849166403,2.5199999809265137,-1.5460000038146973,-9.371000289916992,0.0,-9.71399974822998,-1.1549999713897705
1621849166413,2.5899999141693115,-1.1039999723434448,-9.862000465393066,0.0390000008046627,-9.746000289916992,-1.2009999752044678
1621849166423,2.6600000858306885,-1.1529999971389773,-9.586000442504885,0.0,-9.746000289916992,-1.2009999752044678
1621849166433,2.309999942779541,-1.7330000400543213,-9.119000434875488,0.0,-9.753000259399414,-1.1619999408721924
1621849166443,2.0999999046325684,-2.309000015258789,-9.07900047302246,0.0390000008046627,-9.720999717712402,-1.1169999837875366
1621849166453,2.0999999046325684,-2.9649999141693115,-8.980999946594238,0.0390000008046627,-9.68299961090088,-1.1100000143051147
1621849166463,2.240000009536743,-3.236999988555908,-9.456000328063965,0.0390000008046627,-9.720999717712402,-1.1169999837875366
1621849166473,2.380000114440918,-3.901999950408935,-9.71500015258789,0.0780000016093254,-9.720999717712402,-1.1169999837875366
1621849166483,2.380000114440918,-4.785999774932861,-9.94200038909912,0.0780000016093254,-9.767000198364256,-1.0850000381469729
1621849166493,2.309999942779541,-5.241000175476074,-10.590999603271484,0.1180000007152557,-9.772999763488768,-1.0460000038146973
1621849166503,2.0299999713897705,-6.0229997634887695,-10.586999893188477,0.0390000008046627,-9.734999656677246,-1.0390000343322754
1621849166513,1.8200000524520872,-6.769000053405762,-10.788999557495115,0.0780000016093254,-9.720999717712402,-1.1169999837875366
1621849166523,1.5399999618530271,-6.910999774932861,-10.387999534606934,0.0390000008046627,-9.720999717712402,-1.1169999837875366
1621849166533,1.2599999904632568,-7.567999839782715,-10.291000366210936,0.0390000008046627,-9.68299961090088,-1.1100000143051147
1621849166543,0.8399999737739563,-7.5229997634887695,-10.140000343322754,0.0390000008046627,-9.689000129699709,-1.0709999799728394
1621849166553,0.4900000095367431,-7.690000057220459,-9.60099983215332,0.0390000008046627,-9.612000465393066,-1.0579999685287476
1621849166563,0.5600000023841857,-7.795000076293945,-9.406000137329102,0.0,-9.651000022888184,-1.0640000104904177
1621849166573,0.5600000023841857,-7.75,-9.255999565124512,0.0,-9.657999992370604,-1.0260000228881836
1621849166583,0.8399999737739563,-7.702000141143799,-9.531999588012695,0.0,-9.651000022888184,-1.0640000104904177
1621849166593,0.9100000262260436,-7.361000061035157,-9.04599952697754,-0.0780000016093254,-9.657999992370604,-1.0260000228881836
1621849166603,0.9800000190734864,-6.984000205993652,-8.765999794006348,-0.0780000016093254,-9.612000465393066,-1.0579999685287476
1621849166613,0.9099999666213988,-6.767000198364258,-8.58549976348877,-0.1180000007152557,-9.619000434875488,-1.0190000534057615
1621849166623,0.8399999737739563,-6.550000190734863,-8.404999732971191,-0.0780000016093254,-9.689000129699709,-1.0709999799728394
1621849166633,0.9800000190734864,-6.002999782562256,-9.09000015258789,-0.1180000007152557,-9.696000099182127,-1.0329999923706057
1621849166643,0.9100000262260436,-5.138999938964844,-9.151000022888184,-0.1180000007152557,-9.734999656677246,-1.0390000343322754
1621849166653,1.2599999904632568,-4.559000015258789,-9.618000030517578,-0.0780000016093254,-9.734999656677246,-1.0390000343322754
1621849166663,1.6100000143051147,-3.950999975204468,-9.439000129699709,-0.0780000016093254,-9.734999656677246,-1.0390000343322754
1621849166673,1.75,-3.9830000400543217,-8.449999809265137,-0.0780000016093254,-9.741999626159668,-1.0010000467300415
1621849166683,1.6799999475479126,-3.7030000686645503,-7.618999958038329,-0.0390000008046627,-9.741999626159668,-1.0010000467300415
1621849166693,1.5399999618530271,-3.6019999980926514,-7.388000011444091,-0.0390000008046627,-9.741999626159668,-1.0010000467300415
1621849166703,1.5399999618530271,-3.447999954223633,-7.857999801635742,-0.0780000016093254,-9.70300006866455,-0.9940000176429749
1621849166713,1.4700000286102295,-3.424000024795532,-7.995999813079834,-0.0390000008046627,-9.710000038146973,-0.9549999833106994
1621849166723,1.190000057220459,-3.6180000305175786,-8.10099983215332,-0.0780000016093254,-9.70300006866455,-0.9940000176429749
1621849166733,0.699999988079071,-3.444000005722046,-8.284000396728516,-0.0780000016093254,-9.748000144958496,-0.962000012397766
1621849166743,0.6299999952316284,-3.0989999771118164,-8.222999572753906,-0.0780000016093254,-9.717000007629396,-0.9169999957084656
1621849166753,0.209999993443489,-2.8320000171661377,-8.531000137329102,-0.0780000016093254,-9.710000038146973,-0.9549999833106994
1621849166763,-0.209999993443489,-2.61299991607666,-8.564000129699707,-0.0390000008046627,-9.70300006866455,-0.9940000176429749
1621849166773,-0.6299999952316284,-2.2109999656677246,-8.42199993133545,-0.0780000016093254,-9.748000144958496,-0.962000012397766
1621849166783,-0.8399999737739563,-1.656000018119812,-8.75,-0.0780000016093254,-9.800999641418455,-0.8920000195503234
1621849166793,-1.0499999523162842,-0.9580000042915344,-9.479999542236328,-0.0780000016093254,-9.793999671936035,-0.9300000071525572
1621849166803,-1.75,-0.8080000281333923,-9.524999618530272,-0.0390000008046627,-9.826000213623049,-0.9760000109672546
1621849166813,-2.5199999809265137,-0.1959999948740005,-9.772999763488768,-0.0390000008046627,-9.786999702453612,-0.968999981880188
1621849166823,-2.7300000190734863,0.3799999952316284,-9.812999725341797,-0.0780000016093254,-9.826000213623049,-0.9760000109672546
1621849166833,-3.430000066757202,0.8539999723434448,-8.87600040435791,-0.0390000008046627,-9.826000213623049,-0.9760000109672546
1621849166843,-3.849999904632568,1.2280000448226929,-8.170999526977539,-0.0390000008046627,-9.786999702453612,-0.968999981880188
1621849166853,-3.7100000381469727,1.1460000276565552,-8.11400032043457,0.0,-9.70300006866455,-0.9940000176429749
1621849166863,-3.7100000381469727,1.2799999713897705,-7.664000034332275,0.0,-9.70300006866455,-0.9940000176429749
1621849166873,-3.6050000190734863,1.31850004196167,-7.479499816894531,-0.0390000008046627,-9.657999992370604,-1.0260000228881836
1621849166883,-3.5,1.3569999933242798,-7.295000076293945,0.0390000008046627,-9.619000434875488,-1.0190000534057615
1621849166893,-3.1500000953674316,1.5800000429153442,-7.752999782562256,0.0390000008046627,-9.657999992370604,-1.0260000228881836
1621849166903,-2.5899999141693115,1.8070000410079956,-8.63700008392334,0.1180000007152557,-9.678000450134276,-0.9100000262260436
1621849166913,-2.380000114440918,1.6820000410079956,-8.730999946594238,0.1180000007152557,-9.70300006866455,-0.9940000176429749
1621849166923,-2.0299999713897705,1.2719999551773071,-8.020999908447266,0.0780000016093254,-9.696000099182127,-1.0329999923706057
1621849166933,-1.9600000381469729,1.3289999961853027,-7.940000057220459,0.0780000016093254,-9.689000129699709,-1.0709999799728394
1621849166943,-2.1700000762939453,0.8790000081062316,-7.806000232696533,0.0780000016093254,-9.727999687194824,-1.0779999494552612
1621849166953,-2.0999999046325684,0.6359999775886535,-7.636000156402587,0.0390000008046627,-9.689000129699709,-1.0709999799728394
1621849166963,-1.9600000381469729,0.4729999899864196,-7.521999835968018,0.0390000008046627,-9.689000129699709,-1.0709999799728394
1621849166973,-1.8899999856948853,0.2460000067949295,-7.84600019454956,0.0390000008046627,-9.651000022888184,-1.0640000104904177
1621849166983,-2.0999999046325684,0.5379999876022338,-8.293000221252441,0.0390000008046627,-9.651000022888184,-1.0640000104904177
1621849166993,-1.5399999618530271,0.5870000123977661,-8.567999839782715,0.0,-9.64400005340576,-1.1030000448226929
1621849167003,-1.8899999856948853,0.615000009536743,-9.13199996948242,0.0390000008046627,-9.637000083923342,-1.1419999599456787
1621849167013,-1.6799999475479126,0.781000018119812,-9.67099952697754,0.0780000016093254,-9.637000083923342,-1.1419999599456787
1621849167023,-1.399999976158142,0.9760000109672546,-9.565999984741213,0.0390000008046627,-9.654999732971191,-1.2640000581741333
1621849167033,-1.190000057220459,0.9390000104904174,-9.359000205993652,0.0,-9.661999702453612,-1.22599995136261
1621849167043,-1.399999976158142,1.2109999656677246,-8.885000228881836,0.0,-9.708000183105469,-1.194000005722046
1621849167053,-1.5399999618530271,1.758999943733215,-8.362000465393066,0.0390000008046627,-9.71399974822998,-1.1549999713897705
1621849167063,-1.5399999618530271,2.0989999771118164,-7.875,0.0390000008046627,-9.71399974822998,-1.1549999713897705
1621849167073,-1.75,2.691999912261963,-7.202000141143799,0.0390000008046627,-9.746000289916992,-1.2009999752044678
1621849167083,-2.0999999046325684,2.881999969482422,-6.671000003814697,0.0780000016093254,-9.746000289916992,-1.2009999752044678
1621849167093,-2.380000114440918,2.9110000133514404,-6.026000022888184,0.0780000016093254,-9.668999671936035,-1.187000036239624
1621849167103,-1.8899999856948853,2.9549999237060547,-5.875999927520752,0.0390000008046627,-9.675999641418455,-1.1480000019073486
1621849167113,-1.8899999856948853,3.263000011444092,-5.609000205993652,0.0780000016093254,-9.675999641418455,-1.1480000019073486
1621849167123,-1.6100000143051147,3.11299991607666,-5.564000129699707,0.0780000016093254,-9.668999671936035,-1.187000036239624
1621849167133,-1.4700000286102295,3.0199999809265137,-5.438000202178955,0.0780000016093254,-9.668999671936035,-1.187000036239624
1621849167142,-1.399999976158142,3.2149999141693115,-5.333000183105469,0.0390000008046627,-9.675999641418455,-1.1480000019073486
1621849167152,-1.3300000429153442,3.0320000648498535,-5.506999969482422,0.0390000008046627,-9.668999671936035,-1.187000036239624
1621849167162,-1.2599999904632568,2.975500106811523,-5.588000297546387,0.0,-9.71399974822998,-1.1549999713897705
1621849167172,-1.190000057220459,2.9189999103546143,-5.669000148773193,0.0,-9.68299961090088,-1.1100000143051147
1621849167182,-1.399999976158142,2.9189999103546143,-5.669000148773193,-0.0390000008046627,-9.767000198364256,-1.0850000381469729
1621849167192,-1.5399999618530271,3.2960000038146973,-5.389999866485596,-0.0390000008046627,-9.720999717712402,-1.1169999837875366
1621849167202,-1.5399999618530271,3.1700000762939453,-5.482999801635742,-0.0390000008046627,-9.720999717712402,-1.1169999837875366
1621849167212,-1.8899999856948853,3.434000015258789,-5.364999771118164,0.0390000008046627,-9.727999687194824,-1.0779999494552612
1621849167222,-2.0999999046325684,3.7339999675750737,-5.453999996185303,0.0,-9.720999717712402,-1.1169999837875366
1621849167232,-2.450000047683716,3.9079999923706055,-5.63700008392334,-0.0390000008046627,-9.708000183105469,-1.194000005722046
1621849167242,-2.6600000858306885,4.184000015258789,-5.5879998207092285,0.0,-9.668999671936035,-1.187000036239624
1621849167252,-2.799999952316284,4.439000129699707,-5.828000068664551,0.0,-9.668999671936035,-1.187000036239624
1621849167262,-2.5899999141693115,4.3379998207092285,-6.059000015258789,0.0,-9.708000183105469,-1.194000005722046
1621849167272,-2.869999885559082,4.51200008392334,-6.241000175476074,0.0,-9.701000213623049,-1.2330000400543213
1621849167282,-3.009999990463257,4.675000190734863,-6.355000019073486,-0.0390000008046627,-9.661999702453612,-1.22599995136261
1621849167292,-3.2899999618530273,4.548999786376953,-6.447999954223633,-0.0390000008046627,-9.661999702453612,-1.22599995136261
1621849167302,-3.2200000286102295,4.75600004196167,-6.4120001792907715,-0.0390000008046627,-9.661999702453612,-1.22599995136261
1621849167312,-3.0799999237060547,4.791999816894531,-6.618000030517578,0.0,-9.661999702453612,-1.22599995136261
1621849167322,-3.009999990463257,4.710999965667725,-6.561999797821045,0.0,-9.661999702453612,-1.22599995136261
1621849167332,-2.869999885559082,4.918000221252441,-6.525000095367432,-0.0390000008046627,-9.661999702453612,-1.22599995136261
1621849167342,-2.940000057220459,4.966000080108643,-6.801000118255615,0.0,-9.654999732971191,-1.2640000581741333
1621849167352,-2.6600000858306885,4.841000080108643,-6.894000053405762,0.0390000008046627,-9.675999641418455,-1.1480000019073486
1621849167362,-2.380000114440918,5.254000186920166,-6.821000099182129,0.0390000008046627,-9.661999702453612,-1.22599995136261
1621849167372,-2.0999999046325684,5.2179999351501465,-6.613999843597412,0.0,-9.637000083923342,-1.1419999599456787
1621849167382,-1.6799999475479126,4.953999996185303,-6.73199987411499,0.0,-9.57800006866455,-1.2510000467300415
1621849167392,-1.1200000047683716,4.999000072479248,-6.581999778747559,0.0,-9.571000099182127,-1.2890000343322754
1621849167402,-0.8399999737739563,5.210000038146973,-6.9710001945495605,0.0390000008046627,-9.571000099182127,-1.2890000343322754
1621849167412,-0.6299999952316284,5.614999771118164,-7.255000114440918,0.0390000008046627,-9.609999656677246,-1.2960000038146973
1621849167422,-0.3499999940395355,5.611000061035156,-7.433500289916992,0.0390000008046627,-9.64900016784668,-1.3029999732971191
1621849167432,-0.0700000002980232,5.60699987411499,-7.611999988555909,0.0390000008046627,-9.687000274658203,-1.309999942779541
1621849167442,0.4900000095367431,5.61899995803833,-7.681000232696533,0.1180000007152557,-9.687000274658203,-1.309999942779541
1621849167452,0.4199999868869781,5.553999900817871,-6.909999847412109,0.0780000016093254,-9.687000274658203,-1.309999942779541
1621849167462,0.2800000011920929,4.953999996185303,-5.52400016784668,0.0780000016093254,-9.687000274658203,-1.309999942779541
1621849167472,-0.1400000005960464,5.173999786376953,-4.3480000495910645,0.0390000008046627,-9.687000274658203,-1.309999942779541
1621849167482,-0.0700000002980232,4.9629998207092285,-3.9579999446868896,0.0780000016093254,-9.694000244140623,-1.2710000276565552
1621849167492,0.2800000011920929,4.690999984741211,-4.433000087738037,0.0780000016093254,-9.654999732971191,-1.2640000581741333
1621849167502,0.1400000005960464,4.610000133514404,-4.375999927520752,0.0780000016093254,-9.654999732971191,-1.2640000581741333
1621849167512,0.4199999868869781,3.9449999332427974,-4.635000228881836,0.0780000016093254,-9.654999732971191,-1.2640000581741333
1621849167522,0.6299999952316284,3.486999988555908,-4.857999801635742,0.0390000008046627,-9.62399959564209,-1.218999981880188
1621849167532,0.8399999737739563,3.203000068664551,-5.263999938964844,0.0,-9.661999702453612,-1.22599995136261
1621849167542,1.0499999523162842,2.753000020980835,-5.130000114440918,0.0,-9.661999702453612,-1.22599995136261
1621849167552,0.699999988079071,2.538000106811523,-5.5229997634887695,0.0390000008046627,-9.661999702453612,-1.22599995136261
1621849167562,0.4900000095367431,2.8420000076293945,-6.038000106811523,0.0,-9.701000213623049,-1.2330000400543213
1621849167572,0.699999988079071,2.622999906539917,-6.00600004196167,0.0390000008046627,-9.661999702453612,-1.22599995136261
1621849167582,0.6299999952316284,2.7850000858306885,-6.11899995803833,-0.0390000008046627,-9.668999671936035,-1.187000036239624
1621849167592,0.6299999952316284,3.1579999923706055,-6.622000217437744,-0.0390000008046627,-9.661999702453612,-1.22599995136261
1621849167602,0.7699999809265136,3.1659998893737793,-6.264999866485596,-0.0390000008046627,-9.668999671936035,-1.187000036239624
1621849167612,0.5600000023841857,3.5920000076293945,-6.261000156402588,-0.0390000008046627,-9.661999702453612,-1.22599995136261
1621849167622,1.0499999523162842,3.697000026702881,-6.455999851226807,-0.0780000016093254,-9.62399959564209,-1.218999981880188
1621849167632,1.2599999904632568,4.053999900817871,-6.464000225067139,-0.0780000016093254,-9.668999671936035,-1.187000036239624
1621849167642,1.0499999523162842,4.419000148773193,-6.116000175476074,-0.1180000007152557,-9.694000244140623,-1.2710000276565552
1621849167652,1.0499999523162842,4.557000160217285,-6.091000080108643,-0.0780000016093254,-9.701000213623049,-1.2330000400543213
1621849167662,1.0149999856948853,4.390500068664551,-6.156000137329102,-0.0780000016093254,-9.661999702453612,-1.22599995136261
1621849167672,0.9800000190734864,4.223999977111816,-6.2210001945495605,-0.0390000008046627,-9.668999671936035,-1.187000036239624
1621849167682,1.190000057220459,4.447000026702881,-6.678999900817871,0.0,-9.701000213623049,-1.2330000400543213
1621849167692,0.8399999737739563,4.519999980926514,-7.0929999351501465,0.0,-9.708000183105469,-1.194000005722046
1621849167702,0.2800000011920929,4.334000110626221,-6.841000080108643,0.0,-9.708000183105469,-1.194000005722046
1621849167712,-0.1400000005960464,4.4679999351501465,-6.390999794006348,-0.0390000008046627,-9.708000183105469,-1.194000005722046
1621849167722,-0.209999993443489,4.329999923706055,-6.415999889373779,-0.0390000008046627,-9.708000183105469,-1.194000005722046
1621849167732,-0.3499999940395355,4.135000228881836,-6.520999908447266,-0.0390000008046627,-9.675999641418455,-1.1480000019073486
1621849167742,-0.3499999940395355,4.199999809265137,-6.083000183105469,-0.0390000008046627,-9.668999671936035,-1.187000036239624
1621849167752,-0.209999993443489,4.47599983215332,-6.033999919891357,-0.0780000016093254,-9.675999641418455,-1.1480000019073486
1621849167762,-0.0700000002980232,4.5279998779296875,-6.736000061035156,-0.0780000016093254,-9.68299961090088,-1.1100000143051147
1621849167772,0.2800000011920929,4.264999866485596,-6.854000091552734,-0.0780000016093254,-9.668999671936035,-1.187000036239624
1621849167782,0.0,4.921999931335449,-6.951000213623047,-0.0780000016093254,-9.630000114440918,-1.1799999475479126
1621849167792,0.699999988079071,4.610000133514404,-6.793000221252441,-0.0780000016093254,-9.668999671936035,-1.187000036239624
1621849167802,0.8399999737739563,4.833000183105469,-7.250999927520752,-0.0780000016093254,-9.668999671936035,-1.187000036239624
1621849167812,0.8399999737739563,4.885000228881836,-6.74399995803833,-0.0390000008046627,-9.661999702453612,-1.22599995136261
1621849167822,0.9100000262260436,4.686999797821045,-6.423999786376953,-0.0390000008046627,-9.675999641418455,-1.1480000019073486
1621849167832,1.4700000286102295,4.548999786376953,-6.447999954223633,-0.0390000008046627,-9.675999641418455,-1.1480000019073486
1621849167842,1.399999976158142,4.211999893188477,-6.1519999504089355,0.0,-9.675999641418455,-1.1480000019073486
1621849167852,0.9800000190734864,3.9690001010894775,-5.98199987411499,0.0,-9.68299961090088,-1.1100000143051147
1621849167862,1.3300000429153442,3.7179999351501465,-6.168000221252441,-0.0390000008046627,-9.675999641418455,-1.1480000019073486
1621849167872,1.190000057220459,3.3239998817443848,-5.953000068664551,-0.0390000008046627,-9.675999641418455,-1.1480000019073486
1621849167882,1.0499999523162842,2.878000020980835,-6.244999885559082,-0.0780000016093254,-9.68299961090088,-1.1100000143051147
1621849167892,1.1549999713897705,2.7339999675750732,-6.234999656677246,-0.0780000016093254,-9.71399974822998,-1.1549999713897705
1621849167902,1.2599999904632568,2.5899999141693115,-6.224999904632568,-0.0780000016093254,-9.720999717712402,-1.1169999837875366
1621849167912,1.2599999904632568,2.4769999980926514,-6.38700008392334,-0.0780000016093254,-9.668999671936035,-1.187000036239624
1621849167922,1.190000057220459,2.1559998989105225,-6.585999965667725,-0.0780000016093254,-9.71399974822998,-1.1549999713897705
1621849167932,1.3300000429153442,2.171999931335449,-7.079999923706055,-0.0780000016093254,-9.720999717712402,-1.1169999837875366
1621849167942,1.190000057220459,1.950000047683716,-6.622000217437744,-0.0780000016093254,-9.727999687194824,-1.0779999494552612
1621849167952,0.8399999737739563,2.0429999828338623,-6.748000144958496,-0.0780000016093254,-9.720999717712402,-1.1169999837875366
1621849167962,0.7699999809265136,1.9450000524520872,-7.405000209808349,-0.0780000016093254,-9.767000198364256,-1.0850000381469729
1621849167972,0.209999993443489,1.72599995136261,-7.372000217437744,-0.1180000007152557,-9.772999763488768,-1.0460000038146973
1621849167982,-0.3499999940395355,2.1080000400543213,-7.51800012588501,-0.1180000007152557,-9.772999763488768,-1.0460000038146973
1621849167992,-0.7699999809265136,2.0950000286102295,-7.448999881744384,-0.1180000007152557,-9.772999763488768,-1.0460000038146973
1621849168002,-1.3300000429153442,2.131999969482422,-7.656000137329101,-0.1180000007152557,-9.772999763488768,-1.0460000038146973
1621849168012,-1.6100000143051147,2.2780001163482666,-7.275000095367432,-0.1180000007152557,-9.720999717712402,-1.1169999837875366
1621849168022,-1.75,2.2330000400543213,-7.425000190734864,-0.1570000052452087,-9.727999687194824,-1.0779999494552612
1621849168032,-2.309999942779541,2.6470000743865967,-7.3520002365112305,-0.1570000052452087,-9.767000198364256,-1.0850000381469729
1621849168042,-2.380000114440918,2.9790000915527344,-7.222000122070312,-0.1570000052452087,-9.727999687194824,-1.0779999494552612
1621849168052,-2.7300000190734863,3.3359999656677246,-7.230999946594238,-0.1570000052452087,-9.767000198364256,-1.0850000381469729
1621849168062,-2.799999952316284,3.624000072479248,-7.250999927520752,-0.1180000007152557,-9.812000274658203,-1.0529999732971191
1621849168072,-2.799999952316284,3.6480000019073486,-7.388999938964843,-0.1570000052452087,-9.734999656677246,-1.0390000343322754
1621849168082,-2.940000057220459,3.8310000896453857,-7.21400022506714,-0.1570000052452087,-9.689000129699709,-1.0709999799728394
1621849168092,-2.940000057220459,4.199999809265137,-7.290999889373779,-0.0780000016093254,-9.68299961090088,-1.1100000143051147
1621849168102,-2.8000001907348633,4.222499847412109,-7.215999603271484,-0.1180000007152557,-9.68299961090088,-1.1100000143051147
1621849168112,-2.6600000858306885,4.244999885559082,-7.140999794006348,-0.1180000007152557,-9.675999641418455,-1.1480000019073486
1621849168122,-2.450000047683716,4.070000171661377,-6.959000110626221,-0.1570000052452087,-9.637000083923342,-1.1419999599456787
1621849168132,-2.5199999809265137,4.126999855041504,-6.877999782562256,-0.1570000052452087,-9.637000083923342,-1.1419999599456787
1621849168142,-2.240000009536743,4.326000213623047,-7.197999954223633,-0.1180000007152557,-9.598999977111816,-1.1349999904632568
1621849168152,-1.75,4.070000171661377,-6.959000110626221,-0.1180000007152557,-9.598999977111816,-1.1349999904632568
1621849168162,-1.4700000286102295,4.394999980926514,-7.185999870300293,-0.1180000007152557,-9.598999977111816,-1.1349999904632568
1621849168172,-1.190000057220459,4.545000076293945,-7.230999946594238,-0.1180000007152557,-9.675999641418455,-1.1480000019073486
1621849168182,-1.1200000047683716,4.552999973297119,-6.874000072479248,-0.0780000016093254,-9.668999671936035,-1.187000036239624
1621849168192,-1.3300000429153442,4.861000061035156,-6.605999946594238,-0.0780000016093254,-9.668999671936035,-1.187000036239624
1621849168202,-1.3300000429153442,5.011000156402588,-6.651000022888184,-0.1180000007152557,-9.654999732971191,-1.2640000581741333
1621849168212,-1.2599999904632568,5.043000221252441,-7.639999866485595,-0.1180000007152557,-9.668999671936035,-1.187000036239624
1621849168222,-0.699999988079071,5.257999897003174,-8.454999923706055,-0.1180000007152557,-9.668999671936035,-1.187000036239624
1621849168232,-0.5600000023841857,5.578999996185303,-8.256999969482422,-0.0780000016093254,-9.668999671936035,-1.187000036239624
1621849168242,-0.9100000262260436,5.97599983215332,-7.689000129699707,-0.1180000007152557,-9.753000259399414,-1.1619999408721924
1621849168252,-1.190000057220459,5.806000232696533,-6.723999977111816,-0.0780000016093254,-9.753000259399414,-1.1619999408721924
1621849168262,-1.2599999904632568,5.468999862670898,-6.427999973297119,-0.0780000016093254,-9.746000289916992,-1.2009999752044678
1621849168272,-1.3300000429153442,5.684000015258789,-6.034999847412109,-0.0780000016093254,-9.708000183105469,-1.194000005722046
1621849168282,-1.399999976158142,5.826000213623047,-6.435999870300293,-0.0780000016093254,-9.668999671936035,-1.187000036239624
1621849168292,-1.4700000286102295,5.563000202178955,-6.553999900817871,-0.1180000007152557,-9.630000114440918,-1.1799999475479126
1621849168302,-1.2599999904632568,5.498000144958496,-6.992000102996826,-0.0780000016093254,-9.668999671936035,-1.187000036239624
1621849168312,-1.190000057220459,5.481500148773193,-7.101500034332275,-0.0780000016093254,-9.668999671936035,-1.187000036239624
1621849168322,-1.1200000047683716,5.465000152587891,-7.210999965667725,-0.1180000007152557,-9.668999671936035,-1.187000036239624
1621849168332,-1.190000057220459,5.360000133514404,-7.015999794006348,-0.0780000016093254,-9.637000083923342,-1.1419999599456787
1621849168342,-1.5399999618530271,4.966000080108643,-6.801000118255615,-0.0780000016093254,-9.637000083923342,-1.1419999599456787
1621849168352,-1.399999976158142,5.002999782562256,-7.007999897003174,-0.0780000016093254,-9.668999671936035,-1.187000036239624
1621849168362,-1.6100000143051147,5.014999866485596,-7.077000141143799,-0.1180000007152557,-9.668999671936035,-1.187000036239624
1621849168372,-1.6799999475479126,5.210000038146973,-6.9710001945495605,-0.1180000007152557,-9.661999702453612,-1.22599995136261
1621849168382,-1.2599999904632568,5.214000225067139,-7.396999835968018,-0.1180000007152557,-9.661999702453612,-1.22599995136261
1621849168392,-0.699999988079071,5.116000175476074,-6.8460001945495605,-0.1180000007152557,-9.630000114440918,-1.1799999475479126
1621849168402,-0.5600000023841857,5.6479997634887695,-7.035999774932861,-0.1180000007152557,-9.630000114440918,-1.1799999475479126
1621849168412,-0.0700000002980232,5.550000190734863,-6.485000133514404,-0.1180000007152557,-9.630000114440918,-1.1799999475479126
1621849168422,0.4900000095367431,5.205999851226807,-6.545000076293945,-0.1180000007152557,-9.630000114440918,-1.1799999475479126
1621849168432,0.8399999737739563,5.421000003814697,-6.1519999504089355,-0.1180000007152557,-9.661999702453612,-1.22599995136261
1621849168442,1.0499999523162842,5.578999996185303,-5.840000152587891,-0.0780000016093254,-9.630000114440918,-1.1799999475479126
1621849168452,0.8399999737739563,5.578999996185303,-5.840000152587891,-0.0780000016093254,-9.708000183105469,-1.194000005722046
1621849168462,0.7699999809265136,5.664000034332275,-6.322999954223633,-0.0780000016093254,-9.708000183105469,-1.194000005722046
1621849168472,0.7699999809265136,5.943999767303467,-6.699999809265137,-0.1180000007152557,-9.708000183105469,-1.194000005722046
1621849168482,0.209999993443489,5.879000186920166,-7.138000011444092,-0.0780000016093254,-9.708000183105469,-1.194000005722046
1621849168492,-0.0700000002980232,6.186999797821045,-6.869999885559082,-0.0780000016093254,-9.708000183105469,-1.194000005722046
1621849168502,-0.7699999809265136,6.239999771118164,-6.36299991607666,-0.1570000052452087,-9.708000183105469,-1.194000005722046
1621849168512,-0.4199999868869781,6.081999778747559,-6.675000190734863,-0.1180000007152557,-9.701000213623049,-1.2330000400543213
1621849168522,-0.4199999868869781,5.933499813079834,-6.843500137329102,-0.1180000007152557,-9.708000183105469,-1.194000005722046
1621849168532,-0.4199999868869781,5.784999847412109,-7.01200008392334,-0.1180000007152557,-9.668999671936035,-1.187000036239624
1621849168542,-0.4900000095367431,5.794000148773193,-6.65500020980835,-0.0780000016093254,-9.668999671936035,-1.187000036239624
1621849168552,-0.209999993443489,5.363999843597412,-6.232999801635742,-0.0780000016093254,-9.637000083923342,-1.1419999599456787
1621849168562,-0.209999993443489,5.067999839782715,-6.570000171661377,-0.1180000007152557,-9.630000114440918,-1.1799999475479126
1621849168572,0.0700000002980232,4.841000080108643,-6.894000053405762,-0.0390000008046627,-9.592000007629396,-1.1729999780654907
1621849168582,0.0700000002980232,4.439000129699707,-7.035999774932861,-0.0390000008046627,-9.585000038146973,-1.212000012397766
1621849168592,0.9100000262260436,3.989000082015991,-6.9019999504089355,-0.0780000016093254,-9.62399959564209,-1.218999981880188
1621849168602,1.3300000429153442,3.372999906539917,-7.436999797821045,0.0,-9.661999702453612,-1.22599995136261
1621849168612,1.0499999523162842,2.7279999256134033,-7.4089999198913565,0.0390000008046627,-9.675999641418455,-1.1480000019073486
1621849168622,0.9100000262260436,2.0429999828338623,-6.748000144958496,0.0390000008046627,-9.675999641418455,-1.1480000019073486
1621849168632,0.9800000190734864,0.8909999728202819,-6.666999816894531,0.0390000008046627,-9.71399974822998,-1.1549999713897705
1621849168642,0.2800000011920929,-0.0410000011324882,-6.618000030517578,0.0390000008046627,-9.753000259399414,-1.1619999408721924
1621849168652,-0.2800000011920929,-0.4670000076293945,-6.622000217437744,0.0390000008046627,-9.746000289916992,-1.2009999752044678
1621849168662,-0.7699999809265136,-0.9459999799728392,-5.923999786376953,0.0,-9.753000259399414,-1.1619999408721924
1621849168672,-0.8399999737739563,-1.9839999675750732,-5.681000232696533,0.0,-9.760000228881836,-1.1230000257492063
1621849168682,-1.2599999904632568,-2.3410000801086426,-5.672999858856201,0.0,-9.760000228881836,-1.1230000257492063
1621849168692,-1.5399999618530271,-1.950999975204468,-5.461999893188477,-0.0390000008046627,-9.720999717712402,-1.1169999837875366
1621849168702,-1.4700000286102295,-2.069000005722046,-5.197999954223633,-0.0780000016093254,-9.71399974822998,-1.1549999713897705
1621849168712,-1.4700000286102295,-2.288000106811523,-5.165999889373779,-0.0780000016093254,-9.668999671936035,-1.187000036239624
1621849168722,-1.6100000143051147,-2.294000148773194,-5.131500244140625,-0.0780000016093254,-9.675999641418455,-1.1480000019073486
1621849168732,-1.75,-2.299999952316284,-5.0970001220703125,-0.1180000007152557,-9.64400005340576,-1.1030000448226929
1621849168742,-1.75,-2.3239998817443848,-4.959000110626221,-0.1180000007152557,-9.637000083923342,-1.1419999599456787
1621849168752,-1.8899999856948853,-2.246999979019165,-4.590000152587891,-0.1570000052452087,-9.675999641418455,-1.1480000019073486
1621849168762,-1.5399999618530271,-2.5230000019073486,-4.638999938964844,-0.1570000052452087,-9.637000083923342,-1.1419999599456787
1621849168772,-1.399999976158142,-2.197999954223633,-4.866000175476074,-0.1959999948740005,-9.68299961090088,-1.1100000143051147
1621849168781,-1.2599999904632568,-1.8049999475479128,-5.080999851226807,-0.1570000052452087,-9.675999641418455,-1.1480000019073486
1621849168792,-1.0499999523162842,-1.5980000495910645,-5.044000148773193,-0.1570000052452087,-9.64900016784668,-1.3029999732971191
1621849168802,-0.699999988079071,-1.3309999704360962,-5.3520002365112305,-0.1959999948740005,-9.616999626159668,-1.2580000162124634
1621849168811,-0.4199999868869781,-1.3309999704360962,-5.3520002365112305,-0.1959999948740005,-9.585000038146973,-1.212000012397766
1621849168821,-0.2800000011920929,-1.3710000514984133,-5.927999973297119,-0.1959999948740005,-9.637000083923342,-1.1419999599456787
1621849168831,-0.1400000005960464,-1.4160000085830688,-6.078000068664551,-0.1570000052452087,-9.630000114440918,-1.1799999475479126
1621849168841,0.1400000005960464,-1.3919999599456787,-6.216000080108643,-0.1959999948740005,-9.630000114440918,-1.1799999475479126
1621849168851,0.3499999940395355,-1.3350000381469729,-6.135000228881836,-0.2349999994039535,-9.630000114440918,-1.1799999475479126
1621849168861,0.3499999940395355,-0.828000009059906,-6.188000202178955,-0.1959999948740005,-9.668999671936035,-1.187000036239624
1621849168871,0.1400000005960464,-1.0670000314712524,-6.442999839782715,-0.2349999994039535,-9.64400005340576,-1.1030000448226929
1621849168881,0.209999993443489,-0.5809999704360961,-6.783999919891357,-0.2349999994039535,-9.675999641418455,-1.1480000019073486
1621849168891,-0.1400000005960464,-0.2240000069141387,-6.791999816894531,-0.1570000052452087,-9.708000183105469,-1.194000005722046
1621849168901,0.0700000002980232,0.0759999975562095,-6.88100004196167,-0.2349999994039535,-9.71399974822998,-1.1549999713897705
1621849168911,-0.4900000095367431,0.4000000059604644,-7.107999801635742,-0.3140000104904174,-9.668999671936035,-1.187000036239624
1621849168921,-0.4900000095367431,0.5785000324249266,-7.112500190734863,-0.2349999994039535,-9.71399974822998,-1.1549999713897705
1621849168931,-0.4900000095367431,0.7570000290870667,-7.117000102996826,-0.2349999994039535,-9.720999717712402,-1.1169999837875366
1621849168941,-0.2800000011920929,1.287999987602234,-7.307000160217285,-0.2349999994039535,-9.720999717712402,-1.1169999837875366
1621849168951,-0.5600000023841857,1.5279999971389773,-7.052000045776367,-0.2349999994039535,-9.727999687194824,-1.0779999494552612
1621849168961,-1.0499999523162842,1.6169999837875366,-6.751999855041504,-0.1959999948740005,-9.727999687194824,-1.0779999494552612
1621849168971,-1.3300000429153442,1.8159999847412107,-7.072000026702881,-0.1959999948740005,-9.720999717712402,-1.1169999837875366
1621849168981,-1.1200000047683716,1.72599995136261,-7.372000217437744,-0.1959999948740005,-9.760000228881836,-1.1230000257492063
1621849168991,-1.5399999618530271,1.7350000143051147,-7.014999866485596,-0.1959999948740005,-9.760000228881836,-1.1230000257492063
1621849169001,-1.75,1.4220000505447388,-6.85699987411499,-0.1570000052452087,-9.71399974822998,-1.1549999713897705
1621849169011,-1.9600000381469729,1.3530000448226929,-6.86899995803833,-0.1180000007152557,-9.720999717712402,-1.1169999837875366
1621849169021,-2.380000114440918,0.8550000190734863,-6.460000038146973,-0.1570000052452087,-9.675999641418455,-1.1480000019073486
1621849169031,-2.450000047683716,0.859000027179718,-6.885000228881836,-0.2349999994039535,-9.668999671936035,-1.187000036239624
1621849169041,-2.309999942779541,0.6919999718666076,-7.554999828338623,-0.2349999994039535,-9.668999671936035,-1.187000036239624
1621849169051,-2.240000009536743,0.8909999728202819,-7.875,-0.1959999948740005,-9.663999557495115,-0.9869999885559082
1621849169061,-2.309999942779541,0.7170000076293945,-7.691999912261963,-0.1959999948740005,-9.689000129699709,-1.0709999799728394
1621849169071,-2.450000047683716,0.944000005722046,-7.368000030517577,-0.1959999948740005,-9.689000129699709,-1.0709999799728394
1621849169081,-2.309999942779541,0.1979999989271163,-6.361999988555908,-0.1959999948740005,-9.68299961090088,-1.1100000143051147
1621849169091,-2.309999942779541,-0.3330000042915344,-6.171999931335449,-0.1959999948740005,-9.71399974822998,-1.1549999713897705
1621849169101,-2.240000009536743,-0.4959999918937683,-6.058000087738037,-0.1959999948740005,-9.675999641418455,-1.1480000019073486
1621849169111,-2.1700000762939453,-0.6395000219345092,-6.048000335693359,-0.1959999948740005,-9.675999641418455,-1.1480000019073486
1621849169121,-2.0999999046325684,-0.7829999923706054,-6.038000106811523,-0.1959999948740005,-9.675999641418455,-1.1480000019073486
1621849169131,-1.9600000381469729,-1.2170000076293943,-6.39900016784668,-0.2349999994039535,-9.68299961090088,-1.1100000143051147
1621849169141,-1.8899999856948853,-1.4199999570846558,-6.861000061035156,-0.2349999994039535,-9.637000083923342,-1.1419999599456787
1621849169151,-1.8200000524520872,-1.2009999752044678,-6.89300012588501,-0.2349999994039535,-9.668999671936035,-1.187000036239624
1621849169161,-1.5399999618530271,-1.4650000333786013,-7.011000156402588,-0.2750000059604644,-9.668999671936035,-1.187000036239624
1621849169171,-1.6100000143051147,-1.2460000514984133,-7.043000221252441,-0.2349999994039535,-9.68299961090088,-1.1100000143051147
1621849169181,-1.8899999856948853,-1.1399999856948853,-7.237999916076661,-0.2750000059604644,-9.675999641418455,-1.1480000019073486
1621849169191,-1.5399999618530271,-0.7149999737739563,-7.234000205993653,-0.2750000059604644,-9.675999641418455,-1.1480000019073486
1621849169201,-1.75,-0.5400000214576721,-7.416999816894531,-0.3140000104904174,-9.637000083923342,-1.1419999599456787
1621849169211,-1.75,-0.2039999961853027,-7.7129998207092285,-0.3140000104904174,-9.64400005340576,-1.1030000448226929
1621849169221,-1.5399999618530271,-0.0089999996125698,-7.60699987411499,-0.3140000104904174,-9.64400005340576,-1.1030000448226929
1621849169231,-1.2599999904632568,0.460999995470047,-7.453000068664551,-0.3140000104904174,-9.637000083923342,-1.1419999599456787
1621849169241,-0.9800000190734864,0.8140000104904174,-7.035999774932861,-0.2750000059604644,-9.68299961090088,-1.1100000143051147
1621849169251,-0.9100000262260436,1.215999960899353,-6.894000053405762,-0.2750000059604644,-9.720999717712402,-1.1169999837875366
1621849169261,-0.6299999952316284,1.4869999885559082,-6.419000148773193,-0.2750000059604644,-9.68299961090088,-1.1100000143051147
1621849169271,-0.6299999952316284,1.6820000410079956,-6.314000129699707,-0.2750000059604644,-9.689000129699709,-1.0709999799728394
1621849169281,-0.6299999952316284,2.0350000858306885,-5.895999908447266,-0.2349999994039535,-9.720999717712402,-1.1169999837875366
1621849169291,-0.7699999809265136,2.002000093460083,-6.114999771118164,-0.2750000059604644,-9.64400005340576,-1.1030000448226929
1621849169301,-0.7699999809265136,2.3589999675750732,-6.123000144958496,-0.2349999994039535,-9.68299961090088,-1.1100000143051147
1621849169311,-0.840000033378601,2.622499942779541,-6.005499839782715,-0.2750000059604644,-9.68299961090088,-1.1100000143051147
1621849169321,-0.9100000262260436,2.885999917984009,-5.888000011444092,-0.3140000104904174,-9.689000129699709,-1.0709999799728394
1621849169331,-0.9800000190734864,3.121999979019165,-5.206999778747559,-0.3140000104904174,-9.71399974822998,-1.1549999713897705
1621849169341,-1.6100000143051147,2.890000104904175,-5.105999946594238,-0.2750000059604644,-9.71399974822998,-1.1549999713897705
1621849169351,-1.6799999475479126,2.822000026702881,-5.118000030517578,-0.2349999994039535,-9.708000183105469,-1.194000005722046
1621849169361,-1.6799999475479126,2.818000078201294,-4.691999912261963,-0.2750000059604644,-9.675999641418455,-1.1480000019073486
1621849169371,-1.6799999475479126,2.805000066757202,-4.623000144958496,-0.2750000059604644,-9.71399974822998,-1.1549999713897705
1621849169381,-1.6799999475479126,2.9590001106262207,-5.0929999351501465,-0.2750000059604644,-9.668999671936035,-1.187000036239624
1621849169391,-1.9600000381469729,2.4769999980926514,-5.178999900817871,-0.2750000059604644,-9.668999671936035,-1.187000036239624
1621849169401,-2.1700000762939453,2.634999990463257,-4.866000175476074,-0.3140000104904174,-9.668999671936035,-1.187000036239624
1621849169411,-2.0999999046325684,3.0199999809265137,-5.438000202178955,-0.3140000104904174,-9.668999671936035,-1.187000036239624
1621849169421,-2.0299999713897705,2.9110000133514404,-6.026000022888184,-0.3140000104904174,-9.701000213623049,-1.2330000400543213
1621849169431,-2.0999999046325684,2.9110000133514404,-6.026000022888184,-0.3919999897480011,-9.616999626159668,-1.2580000162124634
1621849169441,-1.8200000524520872,3.243000030517578,-5.895999908447266,-0.3919999897480011,-9.654999732971191,-1.2640000581741333
1621849169451,-2.0999999046325684,3.5230000019073486,-6.27400016784668,-0.3919999897480011,-9.701000213623049,-1.2330000400543213
1621849169461,-2.0999999046325684,3.811000108718872,-6.294000148773193,-0.3919999897480011,-9.708000183105469,-1.194000005722046
1621849169471,-1.8200000524520872,4.317999839782715,-6.3470001220703125,-0.3919999897480011,-9.73900032043457,-1.2389999628067017
1621849169481,-2.1700000762939453,5.006999969482422,-6.224999904632568,-0.3529999852180481,-9.661999702453612,-1.22599995136261
1621849169491,-2.450000047683716,5.63100004196167,-6.540999889373779,-0.3919999897480011,-9.701000213623049,-1.2330000400543213
1621849169501,-2.0999999046325684,5.756999969482422,-6.447999954223633,-0.3919999897480011,-9.694000244140623,-1.2710000276565552
1621849169511,-2.0299999713897705,5.876500129699707,-6.320499897003174,-0.3919999897480011,-9.701000213623049,-1.2330000400543213
1621849169521,-1.9600000381469729,5.995999813079834,-6.192999839782715,-0.3529999852180481,-9.701000213623049,-1.2330000400543213
1621849169531,-2.0299999713897705,6.283999919891357,-6.2129998207092285,-0.3529999852180481,-9.701000213623049,-1.2330000400543213
1621849169541,-2.0299999713897705,6.451000213623047,-6.751999855041504,-0.3529999852180481,-9.694000244140623,-1.2710000276565552
1621849169551,-2.0299999713897705,6.705999851226807,-6.992000102996826,-0.3529999852180481,-9.694000244140623,-1.2710000276565552
1621849169561,-2.450000047683716,6.795000076293945,-6.691999912261963,-0.3140000104904174,-9.694000244140623,-1.2710000276565552
1621849169571,-2.380000114440918,6.660999774932861,-7.142000198364258,-0.3140000104904174,-9.668999671936035,-1.187000036239624
1621849169581,-2.5899999141693115,6.386000156402588,-7.190000057220459,-0.2750000059604644,-9.708000183105469,-1.194000005722046
1621849169591,-2.869999885559082,6.409999847412109,-7.328000068664551,-0.2750000059604644,-9.661999702453612,-1.22599995136261
1621849169601,-2.869999885559082,6.248000144958496,-7.2150001525878915,-0.2349999994039535,-9.661999702453612,-1.22599995136261
1621849169611,-2.6600000858306885,6.1539998054504395,-7.089000225067139,-0.2750000059604644,-9.616999626159668,-1.2580000162124634
1621849169621,-2.450000047683716,6.260000228881836,-7.2839999198913565,-0.2750000059604644,-9.57800006866455,-1.2510000467300415
1621849169631,-2.0999999046325684,6.2230000495910645,-7.077000141143799,-0.2750000059604644,-9.57800006866455,-1.2510000467300415
1621849169641,-2.0999999046325684,6.163000106811523,-6.73199987411499,-0.2750000059604644,-9.538999557495115,-1.24399995803833
1621849169651,-1.399999976158142,6.081999778747559,-6.675000190734863,-0.3140000104904174,-9.57800006866455,-1.2510000467300415
1621849169661,-0.699999988079071,6.186999797821045,-6.869999885559082,-0.2349999994039535,-9.57800006866455,-1.2510000467300415
1621849169671,-0.2800000011920929,5.943999767303467,-6.699999809265137,-0.2349999994039535,-9.57800006866455,-1.2510000467300415
1621849169681,0.3499999940395355,5.485000133514404,-6.922999858856201,-0.2349999994039535,-9.616999626159668,-1.2580000162124634
1621849169691,0.7699999809265136,5.014999866485596,-7.077000141143799,-0.2349999994039535,-9.654999732971191,-1.2640000581741333
1621849169701,0.9800000190734864,4.577000141143799,-7.01200008392334,-0.2349999994039535,-9.64900016784668,-1.3029999732971191
1621849169711,0.840000033378601,4.427000045776367,-6.9670000076293945,-0.2349999994039535,-9.668999671936035,-1.187000036239624
1621849169721,0.699999988079071,4.2769999504089355,-6.921999931335449,-0.2750000059604644,-9.708000183105469,-1.194000005722046
1621849169731,0.4900000095367431,4.244999885559082,-7.140999794006348,-0.3140000104904174,-9.708000183105469,-1.194000005722046
1621849169741,0.209999993443489,4.545000076293945,-7.230999946594238,-0.2750000059604644,-9.708000183105469,-1.194000005722046
1621849169751,0.1400000005960464,4.6579999923706055,-7.067999839782715,-0.3140000104904174,-9.701000213623049,-1.2330000400543213
1621849169761,-0.209999993443489,4.815999984741211,-6.75600004196167,-0.3529999852180481,-9.708000183105469,-1.194000005722046
1621849169771,-0.5600000023841857,5.4039998054504395,-6.866000175476074,-0.3529999852180481,-9.701000213623049,-1.2330000400543213
1621849169781,-0.5600000023841857,5.510000228881836,-7.060999870300293,-0.3529999852180481,-9.668999671936035,-1.187000036239624
1621849169791,-0.7699999809265136,5.752999782562256,-7.230999946594238,-0.3529999852180481,-9.701000213623049,-1.2330000400543213
1621849169801,-0.8399999737739563,6.198999881744385,-6.939000129699707,-0.3140000104904174,-9.701000213623049,-1.2330000400543213
1621849169811,-1.1200000047683716,6.081999778747559,-6.675000190734863,-0.3140000104904174,-9.73900032043457,-1.2389999628067017
1621849169821,-1.3300000429153442,6.210999965667725,-7.007999897003174,-0.2750000059604644,-9.694000244140623,-1.2710000276565552
1621849169831,-1.190000057220459,6.081999778747559,-6.675000190734863,-0.2750000059604644,-9.661999702453612,-1.22599995136261
1621849169841,-1.399999976158142,5.639999866485596,-6.184999942779541,-0.3140000104904174,-9.62399959564209,-1.218999981880188
1621849169851,-1.6799999475479126,5.574999809265137,-6.623000144958496,-0.3140000104904174,-9.62399959564209,-1.218999981880188
1621849169861,-1.5399999618530271,5.696000099182129,-7.311999797821045,-0.2750000059604644,-9.654999732971191,-1.2640000581741333
1621849169871,-1.190000057220459,5.943999767303467,-7.907999992370605,-0.2750000059604644,-9.616999626159668,-1.2580000162124634
1621849169881,-0.7699999809265136,5.943999767303467,-7.907999992370605,-0.3140000104904174,-9.630000114440918,-1.1799999475479126
1621849169891,-0.699999988079071,5.679999828338623,-6.816999912261963,-0.2750000059604644,-9.654999732971191,-1.2640000581741333
1621849169901,-0.7699999809265136,5.120999813079834,-6.063000202178955,-0.2750000059604644,-9.654999732971191,-1.2640000581741333
1621849169911,-0.5600000023841857,5.267000198364258,-5.682000160217285,-0.3140000104904174,-9.654999732971191,-1.2640000581741333
1621849169921,-0.4549999833106994,4.932499885559082,-5.5985002517700195,-0.2750000059604644,-9.661999702453612,-1.22599995136261
1621849169931,-0.3499999940395355,4.5980000495910645,-5.514999866485596,-0.2750000059604644,-9.654999732971191,-1.2640000581741333
1621849169941,-0.209999993443489,4.557000160217285,-6.091000080108643,-0.3140000104904174,-9.62399959564209,-1.218999981880188
1621849169951,0.0700000002980232,4.326000213623047,-5.989999771118164,-0.3140000104904174,-9.62399959564209,-1.218999981880188
1621849169961,0.0700000002980232,4.645999908447266,-7.0,-0.3140000104904174,-9.62399959564209,-1.218999981880188
1621849169971,-0.1400000005960464,4.176000118255615,-7.1539998054504395,-0.3140000104904174,-9.661999702453612,-1.22599995136261
1621849169981,0.0,4.51200008392334,-7.449999809265136,-0.3140000104904174,-9.661999702453612,-1.22599995136261
1621849169991,-0.0700000002980232,4.419000148773193,-7.323999881744384,-0.3140000104904174,-9.661999702453612,-1.22599995136261
1621849170001,-0.4199999868869781,4.349999904632568,-7.335999965667725,-0.3140000104904174,-9.687000274658203,-1.309999942779541
1621849170011,-0.5600000023841857,4.589000225067139,-7.080999851226807,-0.3919999897480011,-9.602999687194824,-1.3350000381469729
1621849170021,-0.699999988079071,4.357999801635742,-6.979000091552734,-0.3919999897480011,-9.616999626159668,-1.2580000162124634
1621849170031,-0.9100000262260436,4.670000076293945,-7.13700008392334,-0.3140000104904174,-9.654999732971191,-1.2640000581741333
1621849170041,-0.8399999737739563,4.565000057220459,-6.942999839782715,-0.3140000104904174,-9.654999732971191,-1.2640000581741333
1621849170051,-0.4199999868869781,4.760000228881836,-6.836999893188477,-0.3140000104904174,-9.616999626159668,-1.2580000162124634
1621849170061,-0.4199999868869781,4.791999816894531,-6.618000030517578,-0.2750000059604644,-9.62399959564209,-1.218999981880188
1621849170071,0.209999993443489,4.783999919891357,-6.974999904632568,-0.3140000104904174,-9.62399959564209,-1.218999981880188
1621849170081,0.209999993443489,4.390999794006348,-6.760000228881836,-0.3140000104904174,-9.62399959564209,-1.218999981880188
1621849170091,0.2800000011920929,4.058000087738037,-6.889999866485596,-0.3140000104904174,-9.616999626159668,-1.2580000162124634
1621849170101,0.699999988079071,4.000999927520752,-6.9710001945495605,-0.3140000104904174,-9.654999732971191,-1.2640000581741333
1621849170111,1.2599999904632568,4.070000171661377,-8.166999816894531,-0.2750000059604644,-9.654999732971191,-1.2640000581741333
1621849170121,1.1200000047683716,3.7460000514984126,-7.940000057220459,-0.2750000059604644,-9.694000244140623,-1.2710000276565552
1621849170131,1.0149999856948853,3.7074999809265137,-7.520500183105469,-0.2750000059604644,-9.64900016784668,-1.3029999732971191
1621849170141,0.9100000262260436,3.6689999103546143,-7.10099983215332,-0.2750000059604644,-9.64900016784668,-1.3029999732971191
1621849170151,0.4900000095367431,3.36899995803833,-7.01200008392334,-0.2750000059604644,-9.642000198364256,-1.3420000076293943
1621849170161,0.209999993443489,3.437999963760376,-6.999000072479248,-0.3140000104904174,-9.668999671936035,-1.187000036239624
1621849170171,0.1400000005960464,3.36899995803833,-7.01200008392334,-0.2750000059604644,-9.661999702453612,-1.22599995136261
1621849170181,-0.0700000002980232,3.4010000228881836,-6.793000221252441,-0.2750000059604644,-9.701000213623049,-1.2330000400543213
1621849170191,-0.4199999868869781,3.4010000228881836,-6.793000221252441,-0.2349999994039535,-9.708000183105469,-1.194000005722046
1621849170201,-0.5600000023841857,3.0320000648498535,-6.715000152587891,-0.1959999948740005,-9.701000213623049,-1.2330000400543213
1621849170211,-0.699999988079071,2.3829998970031734,-6.261000156402588,-0.0780000016093254,-9.73900032043457,-1.2389999628067017
1621849170221,-1.190000057220459,1.2319999933242798,-6.179999828338623,0.0,-9.746000289916992,-1.2009999752044678
1621849170231,-1.6799999475479126,-0.4350000023841857,-6.4029998779296875,0.0780000016093254,-9.777999877929688,-1.2460000514984133
1621849170241,-2.869999885559082,-2.9730000495910645,-6.921000003814697,0.1180000007152557,-9.81700038909912,-1.253000020980835
1621849170251,-3.7100000381469727,-6.395999908447266,-6.459000110626221,0.1570000052452087,-9.81700038909912,-1.253000020980835
1621849170261,-4.760000228881836,-9.404999732971191,-7.13100004196167,0.1570000052452087,-9.81700038909912,-1.253000020980835
1621849170271,-5.739999771118164,-12.713000297546388,-7.7150001525878915,0.1180000007152557,-9.81700038909912,-1.253000020980835
1621849170281,-6.860000133514404,-15.949000358581545,-7.504000186920166,0.1180000007152557,-9.81700038909912,-1.253000020980835
1621849170291,-7.630000114440918,-19.01499938964844,-7.048999786376953,0.0390000008046627,-9.78499984741211,-1.2079999446868896
1621849170301,-8.119999885559082,-21.167999267578125,-6.931000232696533,-0.0390000008046627,-9.746000289916992,-1.2009999752044678
1621849170311,-8.119999885559082,-23.211999893188477,-6.224999904632568,-0.1180000007152557,-9.592000007629396,-1.1729999780654907
1621849170321,-7.8400001525878915,-24.534000396728516,-6.38700008392334,-0.1570000052452087,-9.54599952697754,-1.2050000429153442
1621849170331,-7.630000114440918,-24.813499450683594,-6.61400032043457,-0.2349999994039535,-9.54599952697754,-1.2050000429153442
1621849170341,-7.420000076293945,-25.093000411987305,-6.841000080108643,-0.3140000104904174,-9.50100040435791,-1.2369999885559082
1621849170351,-6.159999847412109,-25.104999542236328,-6.771999835968018,-0.3529999852180481,-9.50100040435791,-1.2369999885559082
1621849170361,-5.110000133514404,-25.104999542236328,-6.771999835968018,-0.3529999852180481,-9.461999893188477,-1.2300000190734863
1621849170371,-4.340000152587891,-25.437999725341797,-6.9019999504089355,-0.3919999897480011,-9.416999816894531,-1.2619999647140503
1621849170381,-3.359999895095825,-25.437999725341797,-6.9019999504089355,-0.4709999859333038,-9.423999786376951,-1.2230000495910645
1621849170391,-2.1700000762939453,-25.61199951171875,-6.71999979019165,-0.4309999942779541,-9.454999923706056,-1.2690000534057615
1621849170401,-0.9100000262260436,-25.551000595092773,-7.064000129699707,-0.4309999942779541,-9.461999893188477,-1.2300000190734863
1621849170410,-0.0700000002980232,-25.795000076293945,-6.894000053405762,-0.4309999942779541,-9.487000465393066,-1.3140000104904177
1621849170420,0.9100000262260436,-26.20400047302246,-7.39300012588501,-0.3919999897480011,-9.526000022888184,-1.3209999799728394
1621849170431,1.9600000381469729,-27.20199966430664,-7.782000064849853,-0.3529999852180481,-9.526000022888184,-1.3209999799728394
1621849170440,2.7300000190734863,-28.58099937438965,-8.024999618530273,-0.3140000104904174,-9.616999626159668,-1.2580000162124634
1621849170450,2.940000057220459,-29.80900001525879,-8.312999725341797,-0.3140000104904174,-9.668999671936035,-1.187000036239624
1621849170460,2.869999885559082,-30.929000854492188,-9.220999717712402,-0.3529999852180481,-9.746000289916992,-1.2009999752044678
1621849170470,2.5899999141693115,-31.90999984741211,-10.104999542236328,-0.4309999942779541,-9.753000259399414,-1.1619999408721924
1621849170480,2.240000009536743,-32.32400131225586,-11.38599967956543,-0.5099999904632568,-9.836999893188477,-1.1369999647140503
1621849170490,1.5399999618530271,-31.760000228881836,-12.565999984741213,-0.5879999995231628,-9.883000373840332,-1.1050000190734863
1621849170500,-0.0700000002980232,-30.65800094604492,-13.579999923706056,-0.6280000209808348,-9.92099952697754,-1.1119999885559082
1621849170510,-1.5399999618530271,-29.128999710083008,-14.590000152587892,-0.7059999704360961,-9.913999557495115,-1.1510000228881836
1621849170520,-3.2899999618530273,-27.402000427246097,-14.711999893188477,-0.7850000262260437,-9.913999557495115,-1.1510000228881836
1621849170530,-5.179999828338623,-25.774999618530273,-13.855999946594238,-0.7850000262260437,-9.913999557495115,-1.1510000228881836
1621849170540,-5.845000267028809,-24.982500076293945,-13.71649932861328,-0.8629999756813049,-9.87600040435791,-1.1440000534057615
1621849170550,-6.510000228881836,-24.190000534057617,-13.57699966430664,-0.9020000100135804,-9.80500030517578,-1.0920000076293943
1621849170560,-7.280000209808349,-22.23500061035156,-13.37399959564209,-0.9020000100135804,-9.746000289916992,-1.2009999752044678
1621849170570,-8.260000228881836,-20.191999435424805,-12.871999740600586,-0.9409999847412108,-9.71399974822998,-1.1549999713897705
1621849170580,-8.539999961853027,-17.437999725341797,-11.960000038146973,-0.981000006198883,-9.637000083923342,-1.1419999599456787
1621849170590,-8.050000190734863,-14.923999786376951,-11.303000450134276,-0.9409999847412108,-9.598999977111816,-1.1349999904632568
1621849170600,-7.699999809265136,-11.979999542236328,-11.067999839782717,-0.9409999847412108,-9.513999938964846,-1.1599999666213987
1621849170610,-7.070000171661377,-9.178000450134276,-10.432000160217283,-0.9409999847412108,-9.508000373840332,-1.1979999542236328
1621849170620,-5.809999942779541,-6.35099983215332,-9.934000015258787,-0.9020000100135804,-9.508000373840332,-1.1979999542236328
1621849170630,-4.550000190734863,-3.1640000343322754,-9.869000434875488,-0.9020000100135804,-9.508000373840332,-1.1979999542236328
1621849170640,-3.5,-1.1449999809265137,-9.229000091552734,-0.8629999756813049,-9.508000373840332,-1.1979999542236328
1621849170650,-2.450000047683716,1.0809999704360962,-8.552000045776367,-0.8240000009536743,-9.423999786376951,-1.2230000495910645
1621849170660,-1.6799999475479126,2.934999942779541,-8.581000328063965,-0.7850000262260437,-9.423999786376951,-1.2230000495910645
1621849170670,-0.4900000095367431,4.811999797821045,-8.746999740600586,-0.7059999704360961,-9.461999893188477,-1.2300000190734863
1621849170680,0.7699999809265136,6.183000087738037,-8.861000061035156,-0.6280000209808348,-9.461999893188477,-1.2300000190734863
1621849170690,2.240000009536743,7.126999855041504,-8.979000091552734,-0.5879999995231628,-9.454999923706056,-1.2690000534057615
1621849170700,3.2899999618530273,7.560999870300293,-8.618000030517578,-0.4709999859333038,-9.487000465393066,-1.3140000104904177
1621849170710,4.340000152587891,7.655000209808349,-7.5349998474121085,-0.4309999942779541,-9.449000358581545,-1.3079999685287476
1621849170720,5.25,7.497000217437744,-6.638999938964844,-0.4309999942779541,-9.40999984741211,-1.3009999990463257
1621849170730,6.090000152587891,6.896999835968018,-6.460999965667725,-0.3529999852180481,-9.416999816894531,-1.2619999647140503
1621849170740,7.0,6.639499664306641,-6.61299991607666,-0.3529999852180481,-9.378000259399414,-1.2549999952316284
