timestamp,gyro_x,gyro_y,gyro_z,acc_x,acc_y,acc_z
1621848616356,30.799999237060547,16.35099983215332,-18.156000137329105,1.491000056266785,-6.466000080108643,7.30399990081787
1621848616366,30.8700008392334,14.899999618530272,-17.986000061035156,1.491000056266785,-6.466000080108643,7.30399990081787
1621848616376,31.079999923706055,14.156999588012695,-18.61400032043457,1.4119999408721924,-6.557000160217285,7.368000030517577
1621848616386,30.65999984741211,14.258999824523926,-19.59199905395508,1.3730000257492063,-6.770999908447266,7.449999809265136
1621848616396,28.84000015258789,15.39799976348877,-20.812000274658203,1.3730000257492063,-6.991000175476074,7.570000171661377
1621848616406,25.829999923706055,16.893999099731445,-22.041000366210938,1.4509999752044678,-7.158999919891357,7.619999885559082
1621848616416,22.540000915527344,18.058000564575195,-22.19099998474121,1.5299999713897705,-7.263999938964843,7.761000156402587
1621848616426,18.969999313354492,18.79599952697754,-21.136999130249023,1.687000036239624,-7.217999935150147,7.729000091552734
1621848616436,15.470000267028809,18.674999237060547,-19.23900032043457,1.8040000200271609,-7.081999778747559,7.633999824523927
1621848616446,12.31999969482422,17.718000411987305,-16.63599967956543,1.8830000162124632,-6.804999828338623,7.64300012588501
1621848616456,9.65999984741211,16.14900016784668,-13.784999847412108,1.9220000505447388,-6.449999809265137,7.664999961853027
1621848616466,9.029999732971191,14.190999984741213,-12.352999687194824,1.8830000162124632,-6.158999919891357,7.597000122070312
1621848616476,9.380000114440918,12.722999572753906,-11.687999725341797,1.8830000162124632,-6.099999904632568,7.487999916076661
1621848616486,9.65999984741211,11.656999588012695,-10.880999565124512,1.843999981880188,-6.131999969482422,7.442999839782715
1621848616496,9.729999542236328,10.973499298095703,-10.43299961090088,1.7649999856948853,-6.047999858856201,7.418000221252441
1621848616506,9.800000190734863,10.289999961853027,-9.984999656677246,1.7649999856948853,-6.015999794006348,7.4629998207092285
1621848616516,9.800000190734863,9.555999755859377,-10.255999565124512,1.7649999856948853,-6.086999893188477,7.41099977493286
1621848616526,10.289999961853027,8.991999626159668,-11.493000030517578,1.7649999856948853,-6.216000080108643,7.467999935150147
1621848616536,10.5,8.541999816894531,-12.567999839782717,1.8040000200271609,-6.300000190734863,7.493000030517577
1621848616546,9.729999542236328,7.7150001525878915,-12.713000297546388,1.8040000200271609,-6.376999855041504,7.479000091552734
1621848616556,8.470000267028809,6.639999866485596,-12.262999534606934,1.8040000200271609,-6.331999778747559,7.447000026702882
1621848616566,7.210000038146973,5.285999774932861,-11.435999870300291,1.8040000200271609,-6.293000221252441,7.453999996185303
1621848616576,6.510000228881836,4.078000068664551,-10.22700023651123,1.8040000200271609,-6.370999813079834,7.440999984741211
1621848616586,5.039999961853027,3.1579999923706055,-9.038999557495115,1.687000036239624,-6.204999923706055,7.629000186920166
1621848616596,3.7799999713897705,1.99399995803833,-7.679999828338623,1.6080000400543213,-5.7870001792907715,7.743000030517577
1621848616606,3.990000009536743,1.7020000219345093,-7.234000205993653,1.6480000019073486,-5.64300012588501,7.609000205993653
1621848616616,7.0,1.4589999914169312,-7.064000129699707,1.6080000400543213,-5.946000099182129,7.514999866485595
1621848616626,8.260000228881836,1.7910000085830688,-6.934000015258789,1.569000005722046,-6.243000030517578,7.622000217437744
1621848616636,6.440000057220459,2.124000072479248,-5.5960001945495605,1.491000056266785,-6.3520002365112305,7.563000202178955
1621848616646,3.990000009536743,2.3510000705718994,-5.271999835968018,1.4119999408721924,-6.366000175476074,7.639999866485595
1621848616656,2.1700000762939453,1.9170000553131104,-6.841000080108643,1.3730000257492063,-6.243000030517578,7.622000217437744
1621848616666,1.190000057220459,1.491000056266785,-9.262000083923342,1.4119999408721924,-6.204999923706055,7.629000186920166
1621848616676,1.0499999523162842,1.4459999799728394,-10.619999885559082,1.4509999752044678,-6.210999965667725,7.668000221252441
1621848616686,0.875,1.7379999160766602,-10.461999893188477,1.491000056266785,-6.197999954223633,7.5900001525878915
1621848616696,0.699999988079071,2.0299999713897705,-10.303999900817873,1.4509999752044678,-6.184000015258789,7.513000011444091
1621848616706,0.2800000011920929,2.378999948501587,-9.461000442504885,1.4509999752044678,-6.230000019073486,7.545000076293945
1621848616716,-0.1400000005960464,2.4760000705718994,-8.803999900817871,1.4509999752044678,-6.248000144958496,7.421999931335449
1621848616726,-0.699999988079071,2.444000005722046,-7.814000129699707,1.4119999408721924,-6.184000015258789,7.513000011444091
1621848616736,-1.6799999475479126,2.5460000038146973,-6.375,1.4119999408721924,-6.03000020980835,7.539999961853027
1621848616746,-1.8200000524520872,2.890000104904175,-5.105999946594238,1.4119999408721924,-6.067999839782715,7.5339999198913565
1621848616756,-1.4700000286102295,3.312000036239624,-4.676000118255615,1.3730000257492063,-6.120999813079834,7.604000091552734
1621848616766,-1.6799999475479126,4.041999816894531,-5.186999797821045,1.3339999914169312,-6.165999889373779,7.636000156402587
1621848616776,-2.450000047683716,5.044000148773193,-6.432000160217285,1.2940000295639038,-6.050000190734863,7.656000137329101
1621848616786,-3.2200000286102295,5.849999904632568,-7.782000064849853,1.3730000257492063,-6.005000114440918,7.625
1621848616796,-3.1500000953674316,6.567999839782715,-8.223999977111816,1.491000056266785,-5.991000175476074,7.546999931335449
1621848616806,-3.2200000286102295,6.7829999923706055,-7.830999851226807,1.5299999713897705,-6.067999839782715,7.5339999198913565
1621848616816,-2.799999952316284,7.168000221252441,-5.986000061035156,1.491000056266785,-6.0229997634887695,7.501999855041504
1621848616826,-2.940000057220459,6.431000232696533,-4.624000072479248,1.491000056266785,-5.921000003814697,7.599999904632568
1621848616836,-2.1700000762939453,5.0320000648498535,-3.946000099182129,1.3339999914169312,-5.7270002365112305,7.633999824523927
1621848616846,-0.699999988079071,4.370999813079834,-3.4230000972747803,1.215999960899353,-5.696000099182129,7.67899990081787
1621848616856,0.7699999809265136,4.103000164031982,-4.322999954223633,1.1380000114440918,-5.804999828338623,7.619999885559082
1621848616866,2.240000009536743,4.671000003814697,-5.928999900817871,1.1770000457763672,-6.0370001792907715,7.578999996185303
1621848616876,2.6600000858306885,5.50600004196167,-7.842999935150147,1.3339999914169312,-6.236999988555908,7.584000110626221
1621848616886,1.8899999856948853,5.784999847412109,-8.220000267028809,1.4119999408721924,-6.359000205993652,7.6020002365112305
1621848616896,1.0499999523162842,5.626999855041504,-7.9280004501342765,1.491000056266785,-6.359000205993652,7.6020002365112305
1621848616906,0.209999993443489,5.468999862670898,-7.636000156402587,1.4509999752044678,-6.236999988555908,7.584000110626221
1621848616916,-1.8200000524520872,4.507999897003174,-5.815000057220459,1.3730000257492063,-6.0370001792907715,7.578999996185303
1621848616926,-3.359999895095825,3.319999933242798,-4.318999767303467,1.1770000457763672,-5.952000141143799,7.55399990081787
1621848616936,-3.9200000762939458,2.493000030517578,-4.465000152587891,1.1380000114440918,-5.875,7.567999839782715
1621848616946,-3.009999990463257,2.943000078201294,-5.807000160217285,1.0980000495910645,-5.836999893188477,7.574999809265136
1621848616956,-2.0999999046325684,3.3559999465942383,-8.151000022888184,1.0980000495910645,-5.829999923706055,7.53599977493286
1621848616966,-1.1200000047683716,3.809999942779541,-9.918999671936035,1.1380000114440918,-5.868000030517578,7.52899980545044
1621848616976,-0.4900000095367431,4.61299991607666,-10.843999862670898,1.0980000495910645,-6.03000020980835,7.539999961853027
1621848616986,-0.2800000011920929,5.565999984741211,-10.604999542236328,1.0590000152587893,-6.190999984741211,7.552000045776368
1621848616996,-0.5600000023841857,6.701000213623047,-10.190999984741213,1.0590000152587893,-6.26200008392334,7.5
1621848617006,-1.6100000143051147,7.565000057220459,-10.251999855041504,1.1380000114440918,-6.293000221252441,7.453999996185303
1621848617016,-3.1500000953674316,8.461000442504883,-10.093999862670898,1.1380000114440918,-6.230000019073486,7.545000076293945
1621848617026,-4.269999980926514,8.310999870300293,-10.048999786376951,1.0980000495910645,-6.067999839782715,7.5339999198913565
1621848617036,-4.760000228881836,8.1899995803833,-9.359999656677246,1.0980000495910645,-5.836999893188477,7.574999809265136
1621848617046,-4.199999809265137,8.928000450134277,-9.513999938964846,1.0980000495910645,-5.734000205993652,7.671999931335449
1621848617056,-3.009999990463257,8.902999877929688,-10.585000038146973,1.0980000495910645,-5.734000205993652,7.671999931335449
1621848617066,-1.4700000286102295,8.89900016784668,-12.576000213623049,1.1380000114440918,-5.748000144958496,7.749000072479248
1621848617076,-0.3499999940395355,8.732999801635742,-13.244999885559082,1.215999960899353,-5.793000221252441,7.781000137329101
1621848617086,0.5600000023841857,8.222000122070312,-12.765999794006348,1.215999960899353,-5.947999954223633,7.754000186920166
1621848617096,0.7699999809265136,8.538000106811523,-12.142000198364258,1.215999960899353,-6.179999828338623,7.7129998207092285
1621848617106,0.6299999952316284,8.822000503540039,-11.736499786376951,1.215999960899353,-6.341000080108643,7.724999904632568
1621848617116,0.4900000095367431,9.105999946594238,-11.331000328063965,1.2549999952316284,-6.456999778747559,7.703999996185303
1621848617126,-1.1200000047683716,9.824000358581545,-10.5649995803833,1.2549999952316284,-6.495999813079834,7.697000026702882
1621848617136,-3.7799999713897705,10.156000137329102,-10.4350004196167,1.3339999914169312,-6.495999813079834,7.697000026702882
1621848617146,-6.019999980926514,10.177000045776367,-10.147000312805176,1.4119999408721924,-6.449999809265137,7.664999961853027
1621848617156,-8.050000190734863,9.576000213623049,-9.968999862670898,1.4509999752044678,-6.327000141143799,7.646999835968018
1621848617166,-9.520000457763674,9.402000427246092,-9.78600025177002,1.4509999752044678,-6.204999923706055,7.629000186920166
1621848617176,-9.729999542236328,9.11400032043457,-9.76599979400635,1.491000056266785,-6.067999839782715,7.5339999198913565
1621848617186,-9.3100004196167,8.696000099182129,-10.621000289916992,1.491000056266785,-6.03000020980835,7.539999961853027
1621848617196,-8.680000305175781,8.668000221252441,-12.473999977111816,1.5299999713897705,-6.015999794006348,7.4629998207092285
1621848617206,-8.1899995803833,8.404000282287598,-13.800000190734863,1.569000005722046,-5.9770002365112305,7.469999790191651
1621848617216,-7.420000076293945,8.038999557495117,-14.14900016784668,1.6080000400543213,-6.008999824523926,7.425000190734864
1621848617226,-6.440000057220459,7.853000164031982,-13.89799976348877,1.6080000400543213,-6.033999919891357,7.3400001525878915
1621848617236,-6.369999885559082,7.208000183105469,-12.66100025177002,1.569000005722046,-6.0980000495910645,7.25
1621848617246,-6.860000133514404,6.195000171661377,-10.137999534606934,1.569000005722046,-6.206999778747559,7.190999984741211
1621848617256,-7.489999771118165,4.999000072479248,-7.789999961853027,1.491000056266785,-6.283999919891357,7.177000045776367
1621848617266,-8.119999885559082,3.4010000228881836,-5.584000110626221,1.3730000257492063,-6.245999813079834,7.184000015258789
1621848617276,-8.609999656677246,2.638999938964844,-4.084000110626221,1.215999960899353,-6.168000221252441,7.197000026702881
1621848617286,-8.470000267028809,2.865999937057495,-3.759000062942505,1.0590000152587893,-6.084000110626221,7.171999931335449
1621848617296,-7.559999942779541,3.9210000038146977,-4.498000144958496,0.9409999847412108,-6.006999969482422,7.185999870300293
1621848617306,-5.949999809265137,6.198999881744385,-6.939000129699707,0.9409999847412108,-5.993000030517578,7.109000205993652
1621848617316,-5.319999694824219,7.07450008392334,-8.277000427246094,0.981000006198883,-5.934000015258789,7.0
1621848617326,-4.690000057220459,7.949999809265136,-9.614999771118164,1.1380000114440918,-5.980000019073486,7.031000137329102
1621848617336,-3.430000066757202,8.817999839782715,-10.10200023651123,1.2940000295639038,-6.025000095367432,7.063000202178955
1621848617346,-2.1700000762939453,9.053000450134276,-9.42099952697754,1.3339999914169312,-6.025000095367432,7.063000202178955
1621848617356,-0.8399999737739563,8.737000465393066,-7.629000186920166,1.2940000295639038,-6.039000034332275,7.140999794006348
1621848617366,0.1400000005960464,8.279000282287598,-6.64300012588501,1.2940000295639038,-6.130000114440918,7.203999996185303
1621848617376,1.1200000047683716,7.480000019073486,-7.353000164031982,1.2940000295639038,-6.182000160217285,7.275000095367432
1621848617386,2.0999999046325684,7.021999835968018,-8.784000396728516,1.2940000295639038,-6.196000099182129,7.3520002365112305
1621848617395,2.240000009536743,5.2779998779296875,-9.37600040435791,1.2940000295639038,-6.209000110626221,7.42899990081787
1621848617405,2.0299999713897705,3.8310000896453857,-9.630999565124512,1.2940000295639038,-6.177000045776367,7.474999904632568
1621848617415,1.8899999856948853,3.364000082015991,-9.003000259399414,1.2549999952316284,-6.26200008392334,7.5
1621848617425,1.5399999618530271,3.3399999141693115,-8.864999771118164,1.215999960899353,-6.3520002365112305,7.563000202178955
1621848617435,0.6299999952316284,3.7090001106262207,-10.149999618530272,1.1770000457763672,-6.390999794006348,7.556000232696533
1621848617445,-0.699999988079071,4.901000022888184,-12.071999549865724,1.2549999952316284,-6.383999824523926,7.51800012588501
1621848617455,-2.0999999046325684,5.192999839782715,-13.72700023651123,1.2940000295639038,-6.339000225067139,7.486000061035157
1621848617465,-3.1500000953674316,5.294000148773193,-14.70400047302246,1.3730000257492063,-6.339000225067139,7.486000061035157
1621848617475,-3.7799999713897705,5.452000141143799,-13.184000015258787,1.4119999408721924,-6.324999809265137,7.4089999198913565
1621848617485,-4.550000190734863,5.1519999504089355,-10.678000450134276,1.3730000257492063,-6.293000221252441,7.453999996185303
1621848617495,-4.96999979019165,4.88100004196167,-8.734999656677246,1.4509999752044678,-6.248000144958496,7.421999931335449
1621848617505,-4.96999979019165,5.22599983215332,-7.4660000801086435,1.4509999752044678,-6.177000045776367,7.474999904632568
1621848617515,-4.829999923706055,5.7769999504089355,-7.368999958038329,1.4119999408721924,-6.171000003814697,7.435999870300293
1621848617525,-4.269999980926514,6.863999843597412,-7.888000011444091,1.3730000257492063,-6.164000034332275,7.396999835968018
1621848617535,-3.849999904632568,7.814999580383301,-8.644499778747559,1.3730000257492063,-6.1570000648498535,7.359000205993653
1621848617545,-3.430000066757202,8.765999794006348,-9.401000022888184,1.4119999408721924,-6.189000129699707,7.313000202178955
1621848617555,-2.940000057220459,10.354999542236328,-10.755000114440918,1.491000056266785,-6.2270002365112305,7.306000232696533
1621848617565,-2.380000114440918,10.954999923706056,-10.934000015258787,1.5299999713897705,-6.311999797821045,7.330999851226807
1621848617575,-2.5899999141693115,10.378999710083008,-9.6850004196167,1.6080000400543213,-6.2729997634887695,7.3379998207092285
1621848617585,-2.869999885559082,8.928000450134277,-7.0970001220703125,1.687000036239624,-6.234000205993652,7.344999790191651
1621848617595,-2.7300000190734863,7.181000232696533,-4.8470001220703125,1.6080000400543213,-6.234000205993652,7.344999790191651
1621848617605,-2.5899999141693115,5.38100004196167,-3.1029999256134033,1.569000005722046,-6.241000175476074,7.383999824523927
1621848617615,-3.009999990463257,4.03000020980835,-2.700999975204468,1.4119999408721924,-6.202000141143799,7.390999794006347
1621848617625,-3.009999990463257,3.061000108718872,-3.6540000438690186,1.2549999952316284,-6.202000141143799,7.390999794006347
1621848617635,-2.940000057220459,2.7809998989105225,-5.693999767303467,1.1380000114440918,-6.164000034332275,7.396999835968018
1621848617645,-2.940000057220459,3.246999979019165,-7.531000137329101,1.0590000152587893,-6.202000141143799,7.390999794006347
1621848617655,-2.940000057220459,4.434999942779541,-9.027000427246092,1.0590000152587893,-6.1570000648498535,7.359000205993653
1621848617665,-2.799999952316284,5.708000183105469,-9.79800033569336,1.0980000495910645,-6.150000095367432,7.320000171661377
1621848617675,-2.309999942779541,6.998000144958496,-9.854999542236328,1.1770000457763672,-6.196000099182129,7.3520002365112305
1621848617685,-2.1700000762939453,7.743999958038329,-9.652000427246092,1.215999960899353,-6.202000141143799,7.390999794006347
1621848617695,-1.8200000524520872,7.710999965667725,-8.663000106811523,1.2549999952316284,-6.209000110626221,7.42899990081787
1621848617705,-1.75,7.326000213623046,-8.090999603271484,1.2549999952316284,-6.241000175476074,7.383999824523927
1621848617715,-1.75,6.579999923706055,-8.293000221252441,1.1770000457763672,-6.2870001792907715,7.415999889373779
1621848617725,-1.8200000524520872,6.105999946594238,-9.229999542236328,1.215999960899353,-6.331999778747559,7.447000026702882
1621848617735,-2.1700000762939453,6.559000015258789,-10.998000144958496,1.2940000295639038,-6.408999919891357,7.434000015258789
1621848617745,-2.3450000286102295,6.496500015258789,-11.64900016784668,1.4119999408721924,-6.525000095367432,7.413000106811523
1621848617755,-2.5199999809265137,6.434000015258789,-12.300000190734863,1.4509999752044678,-6.6020002365112305,7.400000095367432
1621848617765,-3.7799999713897705,6.255000114440918,-12.899999618530272,1.5299999713897705,-6.685999870300293,7.425000190734864
1621848617775,-5.53000020980835,6.574999809265137,-12.701000213623049,1.6080000400543213,-6.679999828338623,7.386000156402587
1621848617785,-7.489999771118165,5.914999961853027,-12.178000450134276,1.72599995136261,-6.672999858856201,7.347000122070312
1621848617795,-9.029999732971191,5.460000038146973,-11.618000030517578,1.843999981880188,-6.672999858856201,7.347000122070312
1621848617805,-10.779999732971191,4.60099983215332,-10.774999618530272,1.9609999656677248,-6.665999889373779,7.309000015258789
1621848617815,-12.25,3.3239998817443848,-9.57800006866455,2.0399999618530273,-6.613999843597412,7.237999916076661
1621848617825,-13.720000267028809,1.7339999675750732,-8.223999977111816,2.0399999618530273,-6.5929999351501465,7.122000217437744
1621848617835,-14.770000457763672,-0.4830000102519989,-6.126999855041504,2.000999927520752,-6.540999889373779,7.052000045776367
1621848617845,-15.399999618530272,-2.361000061035156,-4.751999855041504,1.9609999656677248,-6.48199987411499,6.942999839782715
1621848617855,-15.68000030517578,-3.973999977111816,-3.259999990463257,1.9220000505447388,-6.390999794006348,6.879000186920166
1621848617865,-15.329999923706056,-4.73199987411499,-2.184999942779541,1.843999981880188,-6.3520002365112305,6.886000156402588
1621848617875,-14.770000457763672,-5.499000072479248,-1.4670000076293943,1.7649999856948853,-6.390999794006348,6.879000186920166
1621848617885,-14.140000343322754,-6.613999843597412,-0.3840000033378601,1.6080000400543213,-6.429999828338623,6.872000217437744
1621848617895,-13.579999923706056,-6.961999893188477,1.1890000104904177,1.491000056266785,-6.3979997634887695,6.918000221252441
1621848617905,-13.4399995803833,-6.4070000648498535,2.069000005722046,1.3339999914169312,-6.40500020980835,6.956999778747559
1621848617915,-12.670000076293944,-6.163000106811523,1.89900004863739,1.2549999952316284,-6.359000205993652,6.925000190734863
1621848617925,-12.109999656677246,-5.007999897003174,1.3919999599456787,1.215999960899353,-6.314000129699707,6.89300012588501
1621848617935,-11.270000457763672,-3.125999927520752,0.7990000247955322,1.215999960899353,-6.314000129699707,6.89300012588501
1621848617945,-10.920000076293944,-1.5980000495910645,0.9980000257492064,1.2549999952316284,-6.314000129699707,6.89300012588501
1621848617955,-10.079999923706056,-0.3000000119209289,1.2979999780654907,1.2940000295639038,-6.243000030517578,6.945000171661377
1621848617965,-9.380000114440918,0.5375000238418579,1.587499976158142,1.2549999952316284,-6.25,6.984000205993652
1621848617975,-8.680000305175781,1.375,1.8769999742507937,1.2940000295639038,-6.289000034332275,6.9770002365112305
1621848617985,-7.0,2.371999979019165,2.2660000324249268,1.3339999914169312,-6.3520002365112305,6.886000156402588
1621848617995,-5.670000076293945,3.163000106811523,2.61899995803833,1.4119999408721924,-6.442999839782715,6.949999809265137
1621848618005,-4.619999885559082,3.4670000076293945,2.1040000915527344,1.491000056266785,-6.650000095367432,6.993000030517578
1621848618015,-4.480000019073486,2.9119999408721924,2.433000087738037,1.491000056266785,-6.745999813079834,6.85699987411499
1621848618025,-5.25,1.6349999904632568,3.6289999485015874,1.491000056266785,-6.855000019073486,6.797999858856201
1621848618035,-6.510000228881836,0.4059999883174896,4.550000190734863,1.4119999408721924,-6.9120001792907715,6.668000221252441
1621848618045,-7.699999809265136,-1.2519999742507937,5.892000198364258,1.4119999408721924,-6.873000144958496,6.675000190734863
1621848618055,-8.75,-2.2290000915527344,5.790999889373779,1.2940000295639038,-6.7179999351501465,6.702000141143799
1621848618065,-9.3100004196167,-2.6549999713897705,4.578000068664551,1.215999960899353,-6.6020002365112305,6.7220001220703125
1621848618075,-8.680000305175781,-3.252000093460083,3.122999906539917,1.1770000457763672,-6.5,6.820000171661377
1621848618085,-7.210000038146973,-3.381999969482422,2.246999979019165,1.1380000114440918,-6.422999858856201,6.834000110626221
1621848618095,-5.53000020980835,-3.163000106811523,2.2139999866485596,1.1380000114440918,-6.429999828338623,6.872000217437744
1621848618105,-3.849999904632568,-2.8829998970031734,3.0460000038146973,1.0590000152587893,-6.488999843597412,6.98199987411499
1621848618115,-2.240000009536743,-2.496999979019165,3.6819999217987065,0.981000006198883,-6.565999984741211,6.9679999351501465
1621848618125,-1.8200000524520872,-1.7029999494552612,3.6089999675750737,0.981000006198883,-6.650000095367432,6.993000030517578
1621848618135,-1.6799999475479126,-0.7379999756813049,2.571000099182129,0.981000006198883,-6.689000129699707,6.986000061035156
1621848618145,-1.8899999856948853,0.1539999991655349,0.7379999756813049,1.0590000152587893,-6.7270002365112305,6.979000091552734
1621848618155,-2.5199999809265137,0.3970000147819519,-0.6409999728202819,1.0980000495910645,-6.758999824523926,6.934000015258789
1621848618165,-3.569999933242798,1.2289999723434448,-0.9210000038146972,1.0980000495910645,-6.751999855041504,6.894999980926514
1621848618175,-4.09499979019165,1.5204999446868896,-0.762499988079071,1.0590000152587893,-6.668000221252441,6.869999885559082
1621848618185,-4.619999885559082,1.812000036239624,-0.6039999723434448,1.0980000495910645,-6.623000144958496,6.8379998207092285
1621848618195,-5.599999904632568,2.9679999351501465,-1.1109999418258667,1.0199999809265137,-6.506999969482422,6.859000205993652
1621848618205,-6.369999885559082,3.7669999599456783,-1.6100000143051147,1.0590000152587893,-6.3979997634887695,6.918000221252441
1621848618215,-5.670000076293945,4.394999980926514,-2.3529999256134033,1.0980000495910645,-6.2820000648498535,6.938000202178955
1621848618225,-4.480000019073486,5.425000190734863,-2.953000068664551,1.1770000457763672,-6.211999893188477,6.991000175476074
1621848618235,-2.940000057220459,6.158999919891357,-3.8900001049041744,1.2549999952316284,-6.211999893188477,6.991000175476074
1621848618245,-0.8399999737739563,6.439000129699707,-4.267000198364258,1.2940000295639038,-6.296000003814697,7.015999794006348
1621848618255,0.8399999737739563,6.309000015258789,-3.9340000152587886,1.3730000257492063,-6.373000144958496,7.001999855041504
1621848618265,1.75,5.105000019073486,-3.1510000228881836,1.3730000257492063,-6.5269999504089355,6.974999904632568
1621848618275,2.380000114440918,3.515000104904175,-1.7970000505447388,1.4119999408721924,-6.650000095367432,6.993000030517578
1621848618285,2.5199999809265137,2.413000106811523,0.4250000119209289,1.3730000257492063,-6.804999828338623,6.966000080108643
1621848618295,1.6799999475479126,1.1109999418258667,1.7599999904632568,1.2549999952316284,-6.8429999351501465,6.959000110626221
1621848618305,1.0499999523162842,0.5839999914169312,1.524999976158142,1.1770000457763672,-6.804999828338623,6.966000080108643
1621848618315,0.209999993443489,-0.0570000000298023,-0.0810000002384185,1.1770000457763672,-6.810999870300293,7.004000186920166
1621848618325,-0.209999993443489,-0.163000002503395,-2.302999973297119,1.215999960899353,-6.758999824523926,6.934000015258789
1621848618335,-0.209999993443489,-0.3689999878406524,-3.5480000972747803,1.215999960899353,-6.7270002365112305,6.979000091552734
1621848618345,0.0,0.1539999991655349,-4.0960001945495605,1.2940000295639038,-6.758999824523926,6.934000015258789
1621848618355,-0.209999993443489,0.1899999976158142,-4.302000045776367,1.215999960899353,-6.751999855041504,6.894999980926514
1621848618365,-0.9100000262260436,0.2669999897480011,-5.142000198364258,1.2549999952316284,-6.751999855041504,6.894999980926514
1621848618375,-1.1200000047683716,0.1289999932050705,-5.165999889373779,1.2940000295639038,-6.7769999504089355,6.810999870300293
1621848618385,-2.0999999046325684,-0.0089999996125698,-3.98200011253357,1.2549999952316284,-6.827000141143799,6.64300012588501
1621848618395,-2.625,0.2080000042915344,-3.197500228881836,1.215999960899353,-6.743000030517578,6.618000030517578
1621848618405,-3.1500000953674316,0.4250000119209289,-2.413000106811523,1.1770000457763672,-6.574999809265137,6.567999839782715
1621848618415,-3.6400001049041744,0.5680000185966491,-0.3970000147819519,1.1380000114440918,-6.486999988555908,6.743000030517578
1621848618425,-2.940000057220459,0.7300000190734863,0.6970000267028807,1.0980000495910645,-6.461999893188477,6.827000141143799
1621848618435,-1.190000057220459,1.5080000162124634,-0.0890000015497207,1.0980000495910645,-6.40500020980835,6.956999778747559
1621848618445,0.0700000002980232,1.9099999666213987,-1.156000018119812,1.1380000114440918,-6.474999904632568,6.9039998054504395
1621848618455,1.4700000286102295,2.1449999809265137,-2.8919999599456787,1.2549999952316284,-6.6620001792907715,6.831999778747559
1621848618465,1.5399999618530271,2.0350000858306885,-3.4790000915527344,1.2940000295639038,-6.822999954223633,6.8429999351501465
1621848618475,0.8399999737739563,1.6380000114440918,-2.8389999866485596,1.2940000295639038,-6.822999954223633,6.8429999351501465
1621848618485,-0.3499999940395355,1.6460000276565552,-2.4820001125335693,1.2549999952316284,-6.751999855041504,6.894999980926514
1621848618495,-1.1200000047683716,1.5,-4.071000099182129,1.215999960899353,-6.765999794006348,6.9720001220703125
1621848618505,-0.8399999737739563,1.381999969482422,-5.015999794006348,1.215999960899353,-6.849999904632568,6.997000217437744
1621848618515,-1.1200000047683716,0.9200000166893004,-4.813000202178955,1.2940000295639038,-6.940999984741211,7.060999870300293
1621848618525,-1.6100000143051147,0.4210000038146972,-4.4039998054504395,1.2940000295639038,-7.025000095367432,7.085999965667725
1621848618535,-2.309999942779541,-0.1710000038146972,-3.8680000305175786,1.2549999952316284,-7.035999774932861,6.925000190734863
1621848618545,-3.430000066757202,-0.731000006198883,-4.322999954223633,1.1770000457763672,-7.0960001945495605,7.033999919891357
1621848618555,-4.900000095367432,-0.6330000162124633,-6.081999778747559,1.215999960899353,-7.089000225067139,6.994999885559082
1621848618565,-6.650000095367432,-0.4390000104904174,-8.394000053405762,1.215999960899353,-7.043000221252441,6.9629998207092285
1621848618575,-7.630000114440918,-0.0179999992251396,-10.380999565124512,1.2549999952316284,-6.991000175476074,6.89300012588501
1621848618585,-8.819999694824219,0.0879999995231628,-10.574999809265137,1.2940000295639038,-6.9070000648498535,6.868000030517578
1621848618595,-10.220000267028809,0.0230000000447034,-8.597000122070312,1.2940000295639038,-6.815999984741211,6.803999900817871
1621848618605,-10.850000381469728,-0.4510000050067901,-5.9079999923706055,1.2940000295639038,-6.692999839782715,6.785999774932861
1621848618615,-10.465000152587892,-0.4204999804496765,-4.871999740600586,1.2940000295639038,-6.546000003814697,6.8520002365112305
1621848618625,-10.079999923706056,-0.3899999856948852,-3.8359999656677246,1.215999960899353,-6.3979997634887695,6.918000221252441
1621848618635,-8.539999961853027,-0.5070000290870667,-3.572000026702881,1.215999960899353,-6.359000205993652,6.925000190734863
1621848618645,-7.070000171661377,-0.787000000476837,-4.4039998054504395,1.215999960899353,-6.40500020980835,6.956999778747559
1621848618655,-5.320000171661377,-0.1180000007152557,-5.7779998779296875,1.0980000495910645,-6.520999908447266,6.935999870300293
1621848618665,-4.480000019073486,0.6970000267028807,-6.771999835968018,0.981000006198883,-6.675000190734863,6.908999919891357
1621848618675,-4.480000019073486,2.184000015258789,-8.357999801635742,0.7450000047683715,-6.868000030517578,6.875
1621848618685,-5.110000133514404,4.328999996185303,-10.041000366210936,0.6669999957084655,-6.946000099182129,6.861000061035156
1621848618695,-5.949999809265137,7.01800012588501,-11.982999801635742,0.7450000047683715,-6.9770002365112305,6.815999984741211
1621848618705,-7.070000171661377,9.980999946594238,-13.878000259399414,0.9020000100135804,-7.085999965667725,6.756999969482422
1621848618715,-8.1899995803833,12.357999801635742,-14.45400047302246,1.1380000114440918,-7.171000003814697,6.7820000648498535
1621848618725,-9.100000381469728,14.734000205993652,-13.821000099182127,1.2549999952316284,-7.164000034332275,6.743000030517578
1621848618735,-10.43000030517578,15.833000183105469,-11.993000030517578,1.3730000257492063,-7.040999889373779,6.724999904632568
1621848618745,-11.270000457763672,16.128999710083008,-10.447999954223633,1.491000056266785,-6.918000221252441,6.706999778747559
1621848618755,-11.0600004196167,14.904999732971191,-8.744999885559082,1.6080000400543213,-6.827000141143799,6.64300012588501
1621848618765,-10.220000267028809,12.772000312805176,-5.921999931335449,1.569000005722046,-6.75,6.6570000648498535
1621848618775,-9.239999771118164,10.956000328063965,-2.4749999046325684,1.3730000257492063,-6.75,6.6570000648498535
1621848618785,-8.470000267028809,9.098999977111816,-0.8119999766349792,1.1770000457763672,-6.841000080108643,6.71999979019165
1621848618795,-8.050000190734863,7.380000114440918,-2.75,1.0199999809265137,-6.932000160217285,6.783999919891357
1621848618805,-8.050000190734863,6.409999847412109,-7.328000068664551,0.9409999847412108,-7.0229997634887695,6.8480000495910645
1621848618815,-8.119999885559082,5.683000087738037,-12.07699966430664,0.9020000100135804,-7.047999858856201,6.763000011444092
1621848618825,-8.469999313354492,5.881500244140625,-13.605499267578123,0.9409999847412108,-6.98199987411499,6.616000175476074
1621848618835,-8.819999694824219,6.079999923706055,-15.133999824523926,1.0199999809265137,-6.98199987411499,6.616000175476074
1621848618845,-9.3100004196167,6.7779998779296875,-17.07200050354004,1.0980000495910645,-6.974999904632568,6.577000141143799
1621848618855,-9.520000457763674,8.326000213623047,-17.79400062561035,1.1380000114440918,-6.890999794006348,6.552000045776367
1621848618865,-9.65999984741211,10.288999557495115,-18.444000244140625,1.215999960899353,-6.839000225067139,6.48199987411499
1621848618875,-9.9399995803833,11.246000289916992,-18.6299991607666,1.4119999408721924,-6.814000129699707,6.565999984741211
1621848618885,-9.59000015258789,11.8100004196167,-17.393999099731445,1.5299999713897705,-6.821000099182129,6.604000091552734
1621848618895,-9.029999732971191,11.895000457763672,-14.25100040435791,1.6080000400543213,-6.859000205993652,6.5980000495910645
1621848618905,-7.980000019073486,11.373000144958496,-10.078000068664553,1.6480000019073486,-6.929999828338623,6.545000076293945
1621848618915,-7.9099998474121085,9.95400047302246,-7.271999835968018,1.687000036239624,-7.046000003814697,6.525000095367432
1621848618925,-8.260000228881836,7.711999893188477,-6.245999813079834,1.6080000400543213,-7.109000205993652,6.434000015258789
1621848618935,-9.239999771118164,5.425000190734863,-5.369999885559082,1.491000056266785,-7.133999824523926,6.349999904632568
1621848618945,-9.800000190734863,4.264999866485596,-5.644999980926514,1.3730000257492063,-7.1020002365112305,6.394999980926514
1621848618955,-9.729999542236328,4.078000068664551,-6.6020002365112305,1.2940000295639038,-7.0320000648498535,6.447999954223633
1621848618965,-9.800000190734863,4.5,-8.58899974822998,1.1380000114440918,-6.929999828338623,6.545000076293945
1621848618975,-9.380000114440918,5.60699987411499,-10.029000282287598,1.0980000495910645,-6.821000099182129,6.604000091552734
1621848618985,-8.260000228881836,7.434999942779541,-11.128000259399414,1.0980000495910645,-6.814000129699707,6.565999984741211
1621848618995,-6.929999828338623,9.18299961090088,-10.961999893188477,1.0980000495910645,-6.859000205993652,6.5980000495910645
1621848619005,-6.090000152587891,10.14799976348877,-9.583000183105469,1.215999960899353,-6.942999839782715,6.623000144958496
1621848619015,-5.670000076293945,9.815999984741213,-7.296000003814697,1.4119999408721924,-7.020999908447266,6.609000205993652
1621848619025,-5.179999828338623,8.753999710083008,-4.498000144958496,1.4509999752044678,-7.105000019073486,6.633999824523926
1621848619035,-4.829999923706055,7.510000228881835,-1.8739999532699585,1.4509999752044678,-7.14300012588501,6.626999855041504
1621848619045,-4.829999923706055,6.495999813079834,-1.7690000534057615,1.4119999408721924,-7.136000156402588,6.5879998207092285
1621848619055,-4.934999942779541,5.791999816894531,-2.816999912261963,1.4119999408721924,-7.175000190734863,6.581999778747559
1621848619064,-5.039999961853027,5.0879998207092285,-3.865000009536743,1.3730000257492063,-7.22100019454956,6.613999843597412
1621848619074,-5.110000133514404,3.8589999675750737,-6.570000171661377,1.4119999408721924,-7.322999954223632,6.515999794006348
1621848619084,-5.53000020980835,2.75600004196167,-7.972000122070312,1.3730000257492063,-7.386000156402587,6.425000190734863
1621848619094,-6.71999979019165,2.0390000343322754,-7.530000209808349,1.3339999914169312,-7.348000049591064,6.432000160217285
1621848619104,-7.559999942779541,1.7220000028610227,-6.946000099182129,1.2940000295639038,-7.386000156402587,6.425000190734863
1621848619114,-8.329999923706055,1.2599999904632568,-6.74399995803833,1.3730000257492063,-7.432000160217285,6.456999778747559
1621848619124,-9.869999885559082,0.4289999902248382,-6.464000225067139,1.4119999408721924,-7.39300012588501,6.464000225067139
1621848619134,-10.850000381469728,-0.5770000219345092,-6.000999927520752,1.4509999752044678,-7.276999950408936,6.484000205993652
1621848619144,-11.479999542236328,-1.2860000133514404,-5.202000141143799,1.4509999752044678,-7.186999797821045,6.420000076293945
1621848619154,-11.619999885559082,-2.255000114440918,-4.947000026702881,1.3730000257492063,-7.057000160217285,6.363999843597412
1621848619164,-11.270000457763672,-2.288000106811523,-5.165999889373779,1.3339999914169312,-7.01200008392334,6.331999778747559
1621848619174,-10.850000381469728,-1.7690000534057615,-6.495999813079834,1.2940000295639038,-7.067999839782715,6.202000141143799
1621848619184,-10.710000038146973,-1.687999963760376,-7.761000156402587,1.4119999408721924,-7.131999969482422,6.111000061035156
1621848619194,-10.779999732971191,-2.234999895095825,-8.284000396728516,1.491000056266785,-7.209000110626221,6.0980000495910645
1621848619204,-10.920000076293944,-4.177999973297119,-7.347000122070312,1.569000005722046,-7.255000114440918,6.130000114440918
1621848619214,-10.779999732971191,-5.61299991607666,-6.4629998207092285,1.6080000400543213,-7.145999908447266,6.189000129699707
1621848619224,-10.359999656677246,-7.089000225067139,-6.1539998054504395,1.6080000400543213,-7.0370001792907715,6.248000144958496
1621848619234,-8.75,-8.395000457763672,-6.810999870300293,1.6080000400543213,-6.921000003814697,6.26800012588501
1621848619244,-6.650000095367432,-8.906000137329102,-7.540999889373779,1.5299999713897705,-6.921000003814697,6.26800012588501
1621848619254,-5.039999961853027,-8.29800033569336,-7.362999916076661,1.4509999752044678,-6.998000144958496,6.254000186920166
1621848619264,-4.199999809265137,-7.795000076293945,-6.989999771118164,1.4119999408721924,-7.190999984741211,6.21999979019165
1621848619274,-4.550000190734863,-7.170000076293945,-6.0980000495910645,1.3730000257492063,-7.33900022506714,6.15500020980835
1621848619284,-5.949999809265137,-6.309999942779541,-4.52400016784668,1.2940000295639038,-7.532000064849853,6.119999885559082
1621848619294,-7.069999694824219,-5.802999973297119,-3.973000049591065,1.2549999952316284,-7.655000209808349,6.138999938964844
1621848619304,-8.1899995803833,-5.296000003814697,-3.421999931335449,1.2549999952316284,-7.66099977493286,6.177000045776367
1621848619314,-9.9399995803833,-4.558000087738037,-3.575999975204468,1.2940000295639038,-7.745999813079834,6.202000141143799
1621848619324,-11.409999847412108,-3.7109999656677246,-4.349999904632568,1.3339999914169312,-7.668000221252441,6.216000080108643
1621848619334,-12.529999732971191,-3.7560000419616695,-4.500999927520752,1.4119999408721924,-7.467999935150147,6.210999965667725
1621848619344,-13.020000457763672,-3.561000108718872,-4.394999980926514,1.4509999752044678,-7.300000190734864,6.160999774932861
1621848619354,-11.899999618530272,-3.4189999103546143,-4.796999931335449,1.491000056266785,-7.202000141143799,6.059000015258789
1621848619364,-10.43000030517578,-3.1640000343322754,-5.035999774932861,1.5299999713897705,-7.234000205993653,6.013999938964844
1621848619374,-9.100000381469728,-3.369999885559082,-5.072000026702881,1.6080000400543213,-7.427000045776368,5.980000019073486
1621848619384,-9.170000076293944,-3.2330000400543213,-5.047999858856201,1.6080000400543213,-7.5370001792907715,5.920000076293945
1621848619394,-9.800000190734863,-4.011000156402588,-5.46999979019165,1.6480000019073486,-7.730000019073486,5.886000156402588
1621848619404,-11.550000190734863,-4.190000057220459,-6.070000171661377,1.72599995136261,-7.988999843597413,6.0
1621848619414,-13.859999656677246,-4.6479997634887695,-6.293000221252441,1.7649999856948853,-7.880000114440918,6.059000015258789
1621848619424,-15.329999923706056,-6.201000213623047,-6.353000164031982,1.8040000200271609,-7.717999935150147,6.047999858856201
1621848619434,-16.170000076293945,-7.636000156402587,-5.468999862670898,1.843999981880188,-7.59600019454956,6.03000020980835
1621848619444,-16.309999465942383,-8.909000396728516,-4.697999954223633,1.843999981880188,-7.459000110626221,5.934000015258789
1621848619454,-16.030000686645508,-10.376999855041504,-4.0329999923706055,1.843999981880188,-7.505000114440918,5.966000080108643
1621848619464,-15.68000030517578,-11.840999603271484,-2.5850000381469727,1.843999981880188,-7.543000221252441,5.959000110626221
1621848619474,-15.75,-13.137999534606934,-1.6770000457763672,1.843999981880188,-7.620999813079834,5.945000171661377
1621848619484,-15.960000038146973,-14.277999877929688,-1.6649999618530271,1.72599995136261,-7.710999965667725,6.008999824523926
1621848619494,-16.65999984741211,-15.385000228881836,-2.6419999599456787,1.6080000400543213,-7.710999965667725,6.008999824523926
1621848619504,-16.65999984741211,-15.330499649047852,-3.55649995803833,1.569000005722046,-7.665999889373779,5.9770002365112305
1621848619514,-16.65999984741211,-15.276000022888184,-4.4710001945495605,1.6080000400543213,-7.626999855041504,5.984000205993652
1621848619524,-16.100000381469727,-14.737000465393066,-6.7210001945495605,1.7649999856948853,-7.651999950408936,5.900000095367432
1621848619534,-15.890000343322754,-14.486000061035156,-8.951000213623047,1.9609999656677248,-7.6589999198913565,5.939000129699707
1621848619544,-16.520000457763672,-15.288999557495115,-9.234999656677246,2.197000026702881,-7.58900022506714,5.991000175476074
1621848619554,-16.8700008392334,-17.892000198364258,-6.566999912261963,2.3540000915527344,-7.557000160217285,6.035999774932861
1621848619564,-16.65999984741211,-20.785999298095703,-2.24399995803833,2.3929998874664307,-7.486000061035157,6.089000225067139
1621848619574,-16.100000381469727,-22.915000915527344,1.3619999885559082,2.4709999561309814,-7.486000061035157,6.089000225067139
1621848619584,-15.539999961853027,-25.38800048828125,2.489000082015991,2.628000020980835,-7.679999828338623,6.054999828338623
1621848619594,-15.329999923706056,-28.433000564575195,0.8149999976158142,2.9030001163482666,-7.918000221252441,6.052000045776367
1621848619604,-16.940000534057617,-33.327999114990234,-1.25600004196167,3.2950000762939453,-8.258999824523926,5.952000141143799
1621848619614,-19.38999938964844,-39.96200180053711,-1.9290000200271609,3.8050000667572026,-8.491000175476074,5.9120001792907715
1621848619624,-23.520000457763672,-49.145999908447266,0.574999988079071,4.315000057220459,-8.600000381469727,5.8520002365112305
1621848619634,-28.13999938964844,-60.38199996948242,4.635000228881836,4.824999809265137,-8.670000076293945,5.800000190734863
1621848619644,-33.38999938964844,-75.53099822998047,7.507999897003175,5.296000003814697,-8.793000221252441,5.817999839782715
1621848619654,-38.779998779296875,-93.50299835205078,9.45699977874756,5.492000102996826,-8.774999618530273,5.940999984741211
1621848619664,-44.099998474121094,-112.8000030517578,11.670000076293944,5.570000171661377,-8.67300033569336,6.039000034332275
1621848619674,-48.369998931884766,-130.3979949951172,14.324000358581545,5.492000102996826,-8.434000015258789,6.040999889373779
1621848619684,-51.52000045776367,-145.0570068359375,15.222000122070312,5.177999973297119,-8.220000267028809,5.959000110626221
1621848619694,-52.779998779296875,-157.17799377441406,14.222000122070312,4.745999813079834,-8.13599967956543,5.934000015258789
1621848619704,-53.34000015258789,-165.73399353027344,12.357999801635742,4.4720001220703125,-8.123000144958496,5.85699987411499
1621848619714,-53.724998474121094,-168.83599853515625,11.20699977874756,4.236000061035156,-8.14799976348877,5.7729997634887695
1621848619724,-54.11000061035156,-171.93800354003906,10.055999755859377,3.92300009727478,-8.25,5.675000190734863
1621848619734,-55.29999923706055,-177.16099548339844,9.845999717712402,3.490999937057495,-8.180000305175781,5.7270002365112305
1621848619744,-55.93000030517578,-179.42799377441406,11.010000228881836,3.0199999809265137,-8.043000221252441,5.631999969482422
1621848619754,-54.95000076293945,-177.25799560546875,11.605999946594238,2.5889999866485596,-7.97100019454956,5.446000099182129
1621848619764,-52.5,-171.67100524902344,9.748000144958496,2.3929998874664307,-7.961999893188477,5.168000221252441
1621848619774,-50.2599983215332,-165.55599975585935,6.916999816894531,2.2750000953674316,-7.9660000801086435,4.9679999351501465
1621848619784,-48.439998626708984,-158.81700134277344,7.394000053405762,2.118000030517578,-7.925000190734864,4.736999988555908
1621848619794,-46.40999984741211,-150.0780029296875,10.640999794006348,1.9220000505447388,-7.83900022506714,4.4730000495910645
1621848619804,-44.16999816894531,-140.427001953125,13.550999641418455,1.72599995136261,-7.804999828338623,4.28000020980835
1621848619814,-40.95000076293945,-130.9459991455078,15.010000228881836,1.4119999408721924,-7.809000015258789,4.079999923706055
1621848619824,-37.939998626708984,-119.39299774169922,15.199000358581545,1.1770000457763672,-7.853000164031982,3.872999906539917
1621848619834,-34.86000061035156,-105.87799835205078,13.529999732971191,1.0590000152587893,-7.881999969482423,3.5889999866485596
1621848619844,-31.5,-92.49700164794922,11.41100025177002,1.1380000114440918,-7.97100019454956,3.4140000343322754
1621848619854,-28.13999938964844,-80.74500274658203,11.279999732971191,1.3730000257492063,-8.020999908447266,3.246000051498413
1621848619864,-25.059999465942383,-69.83699798583984,13.913999557495115,1.6080000400543213,-8.116000175476074,3.109999895095825
1621848619874,-23.100000381469727,-60.68399810791016,18.441999435424805,1.843999981880188,-8.166000366210938,2.941999912261963
1621848619884,-21.350000381469727,-52.45199966430664,21.742000579833984,1.9609999656677248,-8.210000038146973,2.734999895095825
1621848619894,-19.530000686645508,-45.01100158691406,22.27199935913086,2.0789999961853027,-8.241000175476074,2.688999891281128
1621848619904,-18.795000076293945,-41.74100112915039,21.462499618530273,2.1570000648498535,-8.350000381469727,2.630000114440918
1621848619914,-18.059999465942383,-38.47100067138672,20.652999877929688,2.3929998874664307,-8.428000450134277,2.6170001029968266
1621848619924,-16.799999237060547,-33.569000244140625,18.24799919128418,2.6670000553131104,-8.51200008392334,2.6419999599456787
1621848619934,-15.75,-30.808000564575195,15.892000198364258,2.9030001163482666,-8.652999877929688,2.5369999408721924
1621848619944,-15.470000267028809,-29.73699951171875,14.659000396728516,3.059999942779541,-8.722999572753906,2.484999895095825
1621848619954,-15.119999885559082,-27.989999771118164,13.616999626159668,3.0989999771118164,-8.793999671936035,2.433000087738037
1621848619964,-14.979999542236328,-26.32699966430664,11.847999572753906,3.138000011444092,-8.824999809265137,2.38700008392334
1621848619974,-14.840000152587892,-24.843999862670895,9.479999542236328,3.0989999771118164,-8.77299976348877,2.316999912261963
1621848619984,-14.840000152587892,-23.46500015258789,6.0980000495910645,3.0989999771118164,-8.720999717712402,2.246000051498413
1621848619994,-14.350000381469728,-22.10700035095215,3.635999917984009,3.177000045776367,-8.654999732971191,2.0989999771118164
1621848620004,-13.159999847412108,-21.576000213623047,3.446000099182129,3.25600004196167,-8.595999717712402,1.9889999628067017
1621848620014,-12.880000114440918,-21.288000106811523,4.633999824523926,3.3340001106262207,-8.581999778747559,1.9119999408721924
1621848620024,-12.109999656677246,-21.920000076293945,7.010000228881836,3.372999906539917,-8.602999687194824,2.0280001163482666
1621848620034,-10.640000343322754,-22.492000579833984,7.833000183105469,3.177000045776367,-8.557000160217285,1.9960000514984133
1621848620044,-8.399999618530273,-21.652999877929688,6.702000141143799,2.9030001163482666,-8.51200008392334,1.9639999866485596
1621848620054,-5.460000038146973,-19.645999908447266,3.78600001335144,2.7070000171661377,-8.557000160217285,1.9960000514984133
1621848620064,-3.1500000953674316,-17.042999267578125,1.1169999837875366,2.628000020980835,-8.666000366210938,1.937000036239624
1621848620074,-2.1700000762939453,-14.375,0.0949999988079071,2.628000020980835,-8.821000099182129,1.9099999666213987
1621848620084,-1.6100000143051147,-11.151000022888184,1.1610000133514404,2.7070000171661377,-8.937000274658203,1.8899999856948853
1621848620094,-1.75,-8.272000312805176,3.375,2.7850000858306885,-9.0600004196167,1.9079999923706057
1621848620104,-2.3450000286102295,-7.406000137329101,4.309499740600586,2.864000082015991,-9.189000129699709,1.9650000333786013
1621848620114,-2.940000057220459,-6.539999961853027,5.24399995803833,2.9030001163482666,-9.227999687194824,1.9579999446868896
1621848620124,-4.199999809265137,-5.0269999504089355,5.936999797821045,2.8239998817443848,-9.182000160217283,1.9259999990463257
1621848620134,-5.179999828338623,-3.628000020980835,6.4679999351501465,2.7850000858306885,-9.0600004196167,1.9079999923706057
1621848620144,-5.320000171661377,-2.1610000133514404,5.802999973297119,2.7850000858306885,-8.930000305175781,1.85099995136261
1621848620154,-5.110000133514404,-1.3250000476837158,5.0970001220703125,2.8239998817443848,-8.814000129699707,1.8710000514984133
1621848620164,-4.409999847412109,-0.1979999989271163,5.1539998054504395,2.864000082015991,-8.729999542236328,1.8459999561309817
1621848620174,-2.799999952316284,0.4950000047683715,4.849999904632568,2.941999912261963,-8.6850004196167,1.815000057220459
1621848620184,-0.4199999868869781,1.1970000267028809,3.6940000057220455,2.9809999465942383,-8.722999572753906,1.8079999685287476
1621848620194,1.9600000381469729,1.35099995136261,2.015000104904175,3.0199999809265137,-8.954999923706055,1.7669999599456787
1621848620204,3.0799999237060547,2.1050000190734863,1.366000056266785,3.0989999771118164,-9.071000099182127,1.7460000514984133
1621848620214,3.5,2.744999885559082,0.5550000071525573,3.138000011444092,-9.194000244140623,1.7649999856948853
1621848620224,2.940000057220459,3.2890000343322754,0.2960000038146972,3.177000045776367,-9.199999809265137,1.8029999732971191
1621848620234,2.1700000762939453,3.163000106811523,1.4110000133514404,3.177000045776367,-9.194000244140623,1.7649999856948853
1621848620244,0.9800000190734864,3.0899999141693115,3.0329999923706055,3.138000011444092,-9.194000244140623,1.7649999856948853
1621848620254,0.0700000002980232,2.9159998893737793,4.423999786376953,3.059999942779541,-9.116000175476074,1.7779999971389773
1621848620264,-0.4199999868869781,2.328000068664551,4.5329999923706055,2.9030001163482666,-9.006999969482422,1.837000012397766
1621848620274,0.2800000011920929,2.3440001010894775,4.038000106811523,2.7850000858306885,-8.878000259399414,1.7799999713897705
1621848620284,1.399999976158142,2.815000057220459,2.9839999675750732,2.746000051498413,-8.807000160217285,1.8329999446868896
1621848620294,2.134999990463257,3.5160000324249268,2.432499885559082,2.7070000171661377,-8.878000259399414,1.7799999713897705
1621848620304,2.869999885559082,4.2170000076293945,1.88100004196167,2.7850000858306885,-9.0,1.7990000247955322
1621848620314,3.7799999713897705,5.710000038146973,1.0779999494552612,2.8239998817443848,-9.123000144958496,1.8170000314712524
1621848620324,4.059999942779541,7.826000213623046,1.1670000553131104,2.941999912261963,-9.246000289916992,1.8350000381469729
1621848620334,3.2899999618530273,8.859999656677246,1.3489999771118164,3.0199999809265137,-9.21399974822998,1.88100004196167
1621848620344,2.380000114440918,9.708000183105469,0.5740000009536743,3.059999942779541,-9.065999984741213,1.9459999799728391
1621848620354,2.309999942779541,8.970000267028809,-0.4799999892711639,3.0989999771118164,-8.925000190734863,2.0510001182556152
1621848620364,3.009999990463257,7.691999912261963,-1.7000000476837158,3.059999942779541,-8.847999572753906,2.065000057220459
1621848620374,4.130000114440918,6.682000160217285,-3.2290000915527344,3.0199999809265137,-8.732000350952148,2.0850000381469727
1621848620384,5.670000076293945,5.546999931335449,-3.6419999599456783,2.941999912261963,-8.815999984741211,2.109999895095825
1621848620394,7.210000038146973,4.848999977111816,-4.120999813079834,2.941999912261963,-8.946000099182129,2.1670000553131104
1621848620404,8.050000190734863,4.464000225067139,-4.756999969482422,2.941999912261963,-9.107000350952148,2.177999973297119
1621848620414,7.9099998474121085,4.126999855041504,-5.669000148773193,2.9809999465942383,-9.274999618530272,2.2279999256134033
1621848620424,7.139999866485596,4.15500020980835,-6.232999801635742,2.9030001163482666,-9.404999732971191,2.2850000858306885
1621848620434,6.090000152587891,4.091000080108643,-6.671000003814697,2.9030001163482666,-9.437000274658203,2.240000009536743
1621848620444,5.110000133514404,4.703000068664551,-6.918000221252441,2.864000082015991,-9.444000244140623,2.2780001163482666
1621848620454,4.480000019073486,6.0289998054504395,-7.182000160217285,2.864000082015991,-9.352999687194824,2.2149999141693115
1621848620464,3.990000009536743,6.933000087738037,-6.666999816894531,2.8239998817443848,-9.293999671936035,2.1050000190734863
1621848620474,3.569999933242798,7.201000213623047,-5.767000198364258,2.9030001163482666,-9.279999732971191,2.0280001163482666
1621848620484,2.5899999141693115,7.217000007629395,-3.8450000286102295,2.9030001163482666,-9.343999862670898,1.937000036239624
1621848620494,1.0499999523162842,7.40399980545044,-1.6799999475479126,2.941999912261963,-9.343999862670898,1.937000036239624
1621848620504,0.1399999856948852,7.519499778747559,-1.1265000104904177,2.941999912261963,-9.26599979400635,1.950999975204468
1621848620514,-0.7699999809265136,7.635000228881835,-0.5730000138282775,2.9030001163482666,-9.182000160217283,1.9259999990463257
1621848620524,-2.380000114440918,7.510000228881835,-0.6660000085830688,2.9030001163482666,-9.14400005340576,1.9329999685287476
1621848620534,-3.1500000953674316,7.603000164031982,-2.0,2.8239998817443848,-8.996000289916992,1.9989999532699585
1621848620544,-2.6600000858306885,7.310999870300293,-2.76200008392334,2.8239998817443848,-8.873000144958496,1.9800000190734863
1621848620554,-0.9800000190734864,7.869999885559082,-3.5169999599456787,2.7850000858306885,-8.82800006866455,1.9490000009536743
1621848620564,1.0499999523162842,7.927000045776368,-3.436000108718872,2.8239998817443848,-8.815999984741211,2.109999895095825
1621848620574,3.569999933242798,8.243000030517578,-2.811000108718872,2.9809999465942383,-8.894000053405762,2.0959999561309814
1621848620584,4.480000019073486,7.144999980926514,-1.0149999856948853,3.0199999809265137,-9.003000259399414,2.0369999408721924
1621848620594,3.7799999713897705,4.934999942779541,1.4390000104904177,2.941999912261963,-9.107000350952148,2.177999973297119
1621848620604,2.0999999046325684,2.3239998817443848,3.750999927520752,2.7070000171661377,-9.121000289916992,2.255000114440918
1621848620614,0.2800000011920929,0.9250000119209288,4.427999973297119,2.4709999561309814,-9.128000259399414,2.2939999103546143
1621848620624,0.1400000005960464,1.1150000095367432,2.5420000553131104,2.197000026702881,-9.17300033569336,2.325999975204468
1621848620634,1.0499999523162842,3.365000009536743,-1.7519999742507937,2.0399999618530273,-9.17300033569336,2.325999975204468
1621848620644,2.5199999809265137,6.198999881744385,-6.939000129699707,2.0789999961853027,-9.159000396728516,2.249000072479248
1621848620654,3.6400001049041744,8.699999809265137,-11.046999931335447,2.2750000953674316,-9.197999954223633,2.2420001029968266
1621848620664,4.059999942779541,10.001999855041504,-11.17300033569336,2.4709999561309814,-9.229999542236328,2.196000099182129
1621848620674,3.7100000381469727,10.708000183105469,-7.921000003814697,2.5889999866485596,-9.26900005340576,2.190000057220459
1621848620684,2.5899999141693115,10.383999824523926,-4.068999767303467,2.628000020980835,-9.300000190734863,2.1440000534057617
1621848620694,1.6100000143051147,10.093000411987305,-2.4140000343322754,2.628000020980835,-9.255000114440918,2.111999988555908
1621848620703,0.699999988079071,9.812999725341797,-3.244999885559082,2.5889999866485596,-9.241000175476074,2.0350000858306885
1621848620713,0.524999976158142,9.923999786376951,-4.078499794006348,2.628000020980835,-9.20300006866455,2.0420000553131104
1621848620724,0.3499999940395355,10.034999847412108,-4.9120001792907715,2.7070000171661377,-9.20300006866455,2.0420000553131104
1621848620734,-0.0700000002980232,10.32699966430664,-6.565999984741211,2.7850000858306885,-9.262000083923342,2.1510000228881836
1621848620743,-0.699999988079071,10.538000106811523,-6.955999851226807,2.941999912261963,-9.300000190734863,2.1440000534057617
1621848620753,-1.75,9.734999656677246,-7.239999771118165,3.0989999771118164,-9.307000160217283,2.183000087738037
1621848620763,-3.1500000953674316,7.420000076293945,-7.007999897003174,3.177000045776367,-9.359000205993652,2.253000020980835
1621848620773,-3.849999904632568,4.357999801635742,-5.770999908447266,3.138000011444092,-9.314000129699709,2.2209999561309814
1621848620783,-4.550000190734863,1.6779999732971191,-4.679999828338623,3.0199999809265137,-9.274999618530272,2.2279999256134033
1621848620793,-5.039999961853027,0.3240000009536743,-5.060999870300293,2.864000082015991,-9.107000350952148,2.177999973297119
1621848620803,-5.110000133514404,-0.0370000004768371,-7.044000148773193,2.6670000553131104,-9.022999763488768,2.1530001163482666
1621848620813,-5.25,0.574999988079071,-8.49899959564209,2.549999952316284,-8.946000099182129,2.1670000553131104
1621848620823,-4.96999979019165,2.930000066757202,-9.36299991607666,2.510999917984009,-9.022999763488768,2.1530001163482666
1621848620833,-4.340000152587891,5.513999938964844,-8.694999694824219,2.549999952316284,-8.95300006866455,2.2049999237060547
1621848620843,-3.569999933242798,7.869999885559082,-7.142000198364258,2.549999952316284,-8.965999603271484,2.2829999923706055
1621848620853,-2.5899999141693115,9.79599952697754,-5.166999816894531,2.6670000553131104,-8.998000144958496,2.236999988555908
1621848620863,-1.190000057220459,10.279000282287598,-2.6659998893737793,2.7850000858306885,-8.913999557495117,2.211999893188477
1621848620873,-0.209999993443489,9.708000183105469,-0.6340000033378601,2.9030001163482666,-8.998000144958496,2.236999988555908
1621848620883,0.2800000011920929,8.255999565124512,0.7450000047683715,2.9809999465942383,-9.166000366210936,2.2869999408721924
1621848620893,-0.2800000011920929,7.084000110626221,0.5379999876022338,2.864000082015991,-9.66800022125244,2.1989998817443848
1621848620903,-2.240000009536743,5.506999969482422,-0.5929999947547911,2.7850000858306885,-9.854999542236328,2.125999927520752
1621848620913,-4.96999979019165,4.317999839782715,-2.7219998836517334,2.6670000553131104,-9.873000144958496,2.003000020980835
1621848620923,-6.579999923706055,3.4584999084472656,-3.6909999847412114,2.5889999866485596,-9.774999618530272,1.9010000228881836
1621848620933,-8.1899995803833,2.5989999771118164,-4.659999847412109,2.510999917984009,-9.678000450134276,1.7990000247955322
1621848620943,-10.56999969482422,1.3289999961853027,-5.5229997634887695,2.4709999561309814,-9.46399974822998,1.7170000076293943
1621848620953,-12.390000343322754,1.3899999856948853,-4.658999919891357,2.431999921798706,-9.225000381469728,1.718999981880188
1621848620963,-12.8100004196167,1.4880000352859497,-2.7939999103546143,2.3929998874664307,-9.01900005340576,1.6759999990463257
1621848620973,-12.039999961853027,2.558000087738037,-2.819000005722046,2.431999921798706,-8.972999572753906,1.6440000534057615
1621848620983,-10.149999618530272,4.65500020980835,-4.22599983215332,2.510999917984009,-8.845999717712402,1.825999975204468
1621848620993,-7.349999904632568,6.747000217437744,-6.415999889373779,2.5889999866485596,-8.807000160217285,1.8329999446868896
1621848621003,-4.619999885559082,8.85099983215332,-8.675000190734863,2.746000051498413,-8.814000129699707,1.8710000514984133
1621848621013,-2.309999942779541,9.961999893188477,-10.539999961853027,2.8239998817443848,-8.852999687194824,1.8650000095367432
1621848621023,-0.6299999952316284,10.33899974822998,-11.468999862670898,2.864000082015991,-8.968999862670898,1.843999981880188
1621848621033,1.1200000047683716,9.940999984741213,-10.828000068664553,2.9030001163482666,-9.0,1.7990000247955322
1621848621043,1.75,9.743000030517578,-9.298999786376951,2.941999912261963,-9.0600004196167,1.9079999923706057
1621848621053,1.5399999618530271,9.946000099182127,-7.629000186920166,2.941999912261963,-9.065999984741213,1.9459999799728391
1621848621063,1.75,10.282999992370604,-6.716000080108643,2.941999912261963,-8.996000289916992,1.9989999532699585
1621848621073,1.8899999856948853,10.399999618530272,-6.980000019073486,3.0199999809265137,-9.010000228881836,2.075999975204468
1621848621083,3.009999990463257,9.548999786376951,-6.98799991607666,3.059999942779541,-9.05500030517578,2.1080000400543213
1621848621093,3.7799999713897705,8.003999710083008,-6.691999912261963,3.059999942779541,-9.100000381469728,2.140000104904175
1621848621103,3.990000009536743,6.5929999351501465,-5.946000099182129,3.059999942779541,-9.184000015258787,2.1649999618530273
1621848621113,3.7799999713897705,5.368000030517578,-5.451000213623047,3.0199999809265137,-9.255000114440918,2.111999988555908
1621848621123,3.0799999237060547,4.223999977111816,-6.2210001945495605,2.9809999465942383,-9.378000259399414,2.130000114440918
1621848621133,1.75,3.288000106811523,-6.954999923706055,2.9030001163482666,-9.494000434875488,2.109999895095825
1621848621143,0.9800000190734864,2.7750000953674316,-6.86750030517578,2.9030001163482666,-9.524999618530272,2.065000057220459
1621848621153,0.209999993443489,2.26200008392334,-6.78000020980835,2.8239998817443848,-9.487000465393066,2.071000099182129
1621848621163,-1.3300000429153442,2.193000078201294,-5.584000110626221,2.746000051498413,-9.395999908447264,2.0079998970031734
1621848621173,-2.0999999046325684,2.436000108718872,-4.546000003814697,2.6670000553131104,-9.279999732971191,2.0280001163482666
1621848621183,-2.0299999713897705,2.9230000972747803,-4.88700008392334,2.7070000171661377,-9.241000175476074,2.0350000858306885
1621848621193,-1.0499999523162842,3.0409998893737793,-5.150000095367432,2.746000051498413,-9.319000244140623,2.0209999084472656
1621848621203,-0.699999988079071,3.125999927520752,-4.423999786376953,2.7850000858306885,-9.272999763488768,1.9900000095367432
1621848621213,-1.0499999523162842,2.7249999046325684,-2.1500000953674316,2.746000051498413,-9.36400032043457,2.052999973297119
1621848621223,-1.1200000047683716,2.61899995803833,-0.7459999918937683,2.6670000553131104,-9.371000289916992,2.0920000076293945
1621848621233,-1.6100000143051147,2.3480000495910645,-1.2209999561309814,2.5889999866485596,-9.357000350952148,2.015000104904175
1621848621243,-1.8200000524520872,2.822000026702881,-2.700999975204468,2.510999917984009,-9.272999763488768,1.9900000095367432
1621848621253,-2.0999999046325684,3.7909998893737793,-4.164999961853027,2.549999952316284,-9.220999717712402,1.919000029563904
1621848621263,-2.5199999809265137,5.144999980926514,-4.992000102996826,2.6670000553131104,-9.182000160217283,1.9259999990463257
1621848621273,-2.5899999141693115,5.631999969482422,-4.125,2.746000051498413,-9.149999618530272,1.9709999561309817
1621848621283,-2.0999999046325684,5.5960001945495605,-2.7100000381469727,2.8239998817443848,-9.05500030517578,2.1080000400543213
1621848621293,-1.399999976158142,4.760000228881836,-2.003999948501587,2.8239998817443848,-9.01599979400635,2.115000009536743
1621848621303,-0.5600000023841857,4.139999866485596,-3.322000026702881,2.7850000858306885,-9.069000244140623,2.184999942779541
1621848621313,0.209999993443489,3.5880000591278076,-4.626999855041504,2.746000051498413,-9.100000381469728,2.140000104904175
1621848621323,1.2599999904632568,3.2230000495910645,-6.184000015258789,2.7070000171661377,-9.215999603271484,2.11899995803833
1621848621333,0.8399999737739563,3.6440000534057617,-6.9629998207092285,2.6670000553131104,-9.279999732971191,2.0280001163482666
1621848621343,0.0700000002980232,3.900000095367432,-5.99399995803833,2.6670000553131104,-9.30500030517578,1.944000005722046
1621848621353,-0.699999988079071,3.8959999084472656,-4.360000133514404,2.628000020980835,-9.413999557495115,1.8849999904632568
1621848621363,-2.380000114440918,3.811000108718872,-2.6689999103546143,2.628000020980835,-9.428000450134276,1.962000012397766
1621848621373,-3.0450000762939453,3.4180002212524414,-1.8494999408721924,2.628000020980835,-9.428000450134276,1.962000012397766
1621848621383,-3.7100000381469727,3.0250000953674316,-1.0299999713897705,2.6670000553131104,-9.350000381469728,1.97599995136261
1621848621393,-4.550000190734863,2.1489999294281006,0.3079999983310699,2.5889999866485596,-9.196000099182127,2.003000020980835
1621848621403,-4.96999979019165,1.508999943733215,1.11899995803833,2.4709999561309814,-9.156999588012695,2.009999990463257
1621848621413,-4.409999847412109,1.3539999723434448,0.3810000121593475,2.3929998874664307,-9.072999954223633,1.9850000143051147
1621848621423,-2.799999952316284,1.950000047683716,-0.5799999833106994,2.236000061035156,-9.041000366210936,2.0299999713897705
1621848621433,-1.6100000143051147,3.0250000953674316,-1.0299999713897705,2.118000030517578,-8.968999862670898,1.843999981880188
1621848621443,-0.6299999952316284,4.394999980926514,-1.1440000534057615,2.0789999961853027,-9.013999938964846,1.8760000467300415
1621848621453,0.209999993443489,6.208000183105469,-1.7489999532699585,2.118000030517578,-9.234000205993652,1.9960000514984133
1621848621463,0.0,7.119999885559082,-2.0850000381469727,2.236000061035156,-9.38199996948242,1.930999994277954
1621848621473,-1.75,7.172999858856201,-1.5779999494552612,2.313999891281128,-9.536999702453612,1.9029999971389773
1621848621483,-3.359999895095825,6.557000160217285,-0.9049999713897704,2.3540000915527344,-9.58199977874756,1.934999942779541
1621848621493,-5.110000133514404,6.188000202178955,-0.828000009059906,2.3540000915527344,-9.536999702453612,1.9029999971389773
1621848621503,-5.599999904632568,5.627999782562256,-2.490999937057495,2.236000061035156,-9.375,1.8919999599456787
1621848621513,-4.619999885559082,7.071000099182129,-5.434999942779541,2.1570000648498535,-9.21399974822998,1.88100004196167
1621848621523,-2.799999952316284,8.559000015258789,-8.229000091552734,2.197000026702881,-9.04599952697754,1.830000042915344
1621848621533,-0.8399999737739563,9.625,-9.03600025177002,2.313999891281128,-8.975000381469727,1.8830000162124632
1621848621543,1.2599999904632568,10.322999954223633,-7.348999977111816,2.4709999561309814,-8.982000350952148,1.9210000038146973
1621848621553,2.0299999713897705,10.145000457763672,-4.323999881744385,2.5889999866485596,-9.027999877929688,1.9529999494552612
1621848621563,2.0299999713897705,8.640999794006348,-1.0349999666213987,2.6670000553131104,-9.119000434875488,2.0169999599456787
1621848621573,1.8899999856948853,7.052000045776367,0.3190000057220459,2.628000020980835,-9.196000099182127,2.003000020980835
1621848621583,1.2599999904632568,5.734000205993652,-0.2680000066757202,2.5889999866485596,-9.215999603271484,2.11899995803833
1621848621593,1.2599999904632568,5.01800012588501,-1.247499942779541,2.510999917984009,-9.145999908447264,2.1710000038146973
1621848621603,1.2599999904632568,4.302000045776367,-2.2269999980926514,2.3929998874664307,-9.069000244140623,2.184999942779541
1621848621613,1.8899999856948853,3.568000078201294,-4.914999961853027,2.2750000953674316,-9.022999763488768,2.1530001163482666
1621848621623,2.450000047683716,3.510999917984009,-7.413000106811523,2.2750000953674316,-9.062000274658203,2.1459999084472656
1621848621633,3.2200000286102295,3.700999975204468,-9.298999786376951,2.313999891281128,-9.138999938964846,2.1329998970031734
1621848621643,3.849999904632568,3.936000108718872,-9.826000213623049,2.2750000953674316,-9.178000450134276,2.125999927520752
1621848621653,3.359999895095825,4.3460001945495605,-8.119000434875488,2.236000061035156,-9.286999702453612,2.066999912261963
1621848621663,3.2899999618530273,5.084000110626221,-5.855999946594238,2.236000061035156,-9.440999984741213,2.0399999618530273
1621848621673,3.430000066757202,6.093999862670898,-4.328000068664551,2.236000061035156,-9.557000160217283,2.0190000534057617
1621848621683,3.009999990463257,6.775000095367432,-3.3540000915527344,2.313999891281128,-9.64099979400635,2.0439999103546143
1621848621693,1.9600000381469729,7.043000221252441,-2.4539999961853027,2.313999891281128,-9.699999809265137,2.1530001163482666
1621848621703,0.0,6.6579999923706055,-1.881999969482422,2.313999891281128,-9.623000144958496,2.1670000553131104
1621848621713,-1.9600000381469729,5.993000030517578,-2.1419999599456787,2.313999891281128,-9.447999954223633,2.078000068664551
1621848621723,-2.7300000190734863,4.853000164031982,-3.3380000591278076,2.313999891281128,-9.286999702453612,2.066999912261963
1621848621733,-2.1700000762939453,3.73799991607666,-5.880000114440918,2.2750000953674316,-9.04800033569336,2.069000005722046
1621848621743,-1.5399999618530271,3.9440000057220455,-8.26099967956543,2.236000061035156,-8.847999572753906,2.065000057220459
1621848621753,-0.1400000005960464,4.632999897003174,-11.763999938964844,2.236000061035156,-8.756999969482422,2.000999927520752
1621848621763,1.5399999618530271,6.421000003814697,-14.64799976348877,2.3540000915527344,-8.82800006866455,1.9490000009536743
1621848621773,2.380000114440918,8.387999534606934,-15.722000122070312,2.4709999561309814,-9.065999984741213,1.9459999799728391
1621848621783,2.7300000190734863,9.260000228881836,-14.218000411987305,2.5889999866485596,-9.26599979400635,1.950999975204468
1621848621793,1.8899999856948853,9.166999816894531,-10.467000007629396,2.7070000171661377,-9.388999938964846,1.968999981880188
1621848621803,1.3300000429153442,7.7729997634887695,-6.590000152587891,2.7070000171661377,-9.388999938964846,1.968999981880188
1621848621813,0.699999988079071,5.785999774932861,-4.59499979019165,2.6670000553131104,-9.36400032043457,2.052999973297119
1621848621823,0.4900000095367431,4.188000202178955,-4.806000232696533,2.549999952316284,-9.324999809265137,2.059999942779541
1621848621833,0.5950000286102294,4.100500106811523,-5.923000335693359,2.4709999561309814,-9.293999671936035,2.1050000190734863
1621848621843,0.699999988079071,4.013000011444092,-7.039999961853027,2.431999921798706,-9.33199977874756,2.0989999771118164
1621848621853,1.1200000047683716,4.324999809265137,-9.614999771118164,2.431999921798706,-9.402999877929688,2.0460000038146973
1621848621863,1.399999976158142,4.933000087738037,-11.852999687194824,2.549999952316284,-9.472999572753906,1.99399995803833
1621848621873,0.7699999809265136,6.328000068664551,-12.104999542236328,2.7070000171661377,-9.458999633789062,1.9170000553131104
1621848621883,-1.0499999523162842,7.050000190734863,-10.555999755859377,2.864000082015991,-9.375,1.8919999599456787
1621848621893,-2.450000047683716,6.925000190734863,-8.232999801635742,2.9030001163482666,-9.182000160217283,1.9259999990463257
1621848621903,-2.6600000858306885,5.88700008392334,-5.572000026702881,2.9030001163482666,-8.98900032043457,1.9600000381469729
1621848621913,-2.309999942779541,3.9609999656677246,-3.9219999313354497,2.7850000858306885,-8.840999603271484,2.0260000228881836
1621848621923,-0.9800000190734864,1.6990000009536743,-3.183000087738037,2.628000020980835,-8.725000381469727,2.0460000038146973
1621848621933,0.7699999809265136,1.0900000333786013,-3.361999988555908,2.4709999561309814,-8.654999732971191,2.0989999771118164
1621848621943,3.0799999237060547,2.2660000324249268,-5.998000144958496,2.3540000915527344,-8.78499984741211,2.1549999713897705
1621848621953,4.619999885559082,3.1619999408721924,-8.255999565124512,2.313999891281128,-8.946000099182129,2.1670000553131104
1621848621963,5.110000133514404,4.474999904632568,-9.65999984741211,2.2750000953674316,-9.022999763488768,2.1530001163482666
1621848621973,4.760000228881836,5.565999984741211,-9.395999908447264,2.3540000915527344,-9.104999542236328,1.940000057220459
1621848621983,4.059999942779541,5.849999904632568,-7.782000064849853,2.4709999561309814,-9.248000144958496,2.0739998817443848
1621848621993,3.430000066757202,5.2870001792907715,-5.394000053405762,2.4709999561309814,-9.262000083923342,2.1510000228881836
1621848622003,3.2200000286102295,4.252999782562256,-3.1589999198913574,2.431999921798706,-9.237000465393066,2.234999895095825
1621848622013,3.1500000953674316,2.9800000190734863,-2.388999938964844,2.3540000915527344,-9.25,2.312000036239624
1621848622023,3.430000066757202,2.744999885559082,-3.069999933242798,2.1570000648498535,-9.411999702453612,2.3239998817443848
1621848622033,3.1500000953674316,2.760999917984009,-4.7729997634887695,1.9220000505447388,-9.572999954223633,2.3350000381469727
1621848622043,1.399999976158142,5.072000026702881,-8.204000473022461,1.843999981880188,-9.661999702453612,2.1600000858306885
1621848622053,-0.8399999737739563,7.427000045776368,-11.484999656677246,1.843999981880188,-9.803000450134276,2.055999994277954
1621848622063,-1.8899999856948853,8.472999572753906,-11.975500106811523,1.9609999656677248,-9.859000205993652,1.9259999990463257
1621848622073,-2.940000057220459,9.51900005340576,-12.465999603271484,2.1570000648498535,-9.76900005340576,1.861999988555908
1621848622083,-5.25,10.626999855041504,-10.281000137329102,2.3540000915527344,-9.55500030517578,1.781000018119812
1621848622093,-6.650000095367432,10.711999893188477,-5.929999828338623,2.4709999561309814,-9.39400005340576,1.7690000534057615
1621848622103,-6.159999847412109,10.359999656677246,-2.7219998836517334,2.3929998874664307,-9.161999702453612,1.809999942779541
1621848622113,-4.199999809265137,10.1899995803833,-2.9660000801086426,2.3929998874664307,-8.937000274658203,1.8899999856948853
1621848622123,-1.75,9.760000228881836,-6.169000148773193,2.431999921798706,-8.788999557495117,1.955000042915344
1621848622133,-0.2800000011920929,9.357999801635742,-8.727999687194824,2.431999921798706,-8.82800006866455,1.9490000009536743
1621848622143,0.4199999868869781,9.569000244140623,-9.116999626159668,2.4709999561309814,-8.821000099182129,1.9099999666213987
1621848622153,0.8399999737739563,9.442999839782717,-8.001999855041504,2.510999917984009,-8.89799976348877,1.8960000276565552
1621848622163,1.4700000286102295,8.543000221252441,-6.526000022888184,2.5889999866485596,-9.072999954223633,1.9850000143051147
1621848622173,2.0299999713897705,7.342999935150147,-6.169000148773193,2.628000020980835,-9.248000144958496,2.0739998817443848
1621848622183,2.380000114440918,5.752999782562256,-6.021999835968018,2.6670000553131104,-9.454999923706056,2.1170001029968266
1621848622193,2.450000047683716,4.281000137329102,-6.139999866485596,2.6670000553131104,-9.553000450134276,2.2190001010894775
1621848622203,2.0999999046325684,3.243000030517578,-5.895999908447266,2.549999952316284,-9.637000083923342,2.24399995803833
1621848622213,1.6100000143051147,2.869999885559082,-5.394000053405762,2.4709999561309814,-9.70699977874756,2.191999912261963
1621848622223,0.8399999737739563,3.7260000705718994,-4.603000164031982,2.3540000915527344,-9.661999702453612,2.1600000858306885
1621848622233,-0.3499999940395355,4.864999771118164,-4.614999771118164,2.313999891281128,-9.661999702453612,2.1600000858306885
1621848622243,-1.2599999904632568,5.380000114440918,-4.310999870300293,2.3540000915527344,-9.553000450134276,2.2190001010894775
1621848622253,-2.380000114440918,5.453000068664551,-3.5160000324249268,2.3540000915527344,-9.43000030517578,2.200999975204468
1621848622263,-2.7300000190734863,4.789000034332275,-1.3589999675750732,2.313999891281128,-9.26900005340576,2.190000057220459
1621848622273,-2.5899999141693115,4.443999767303467,0.996999979019165,2.2750000953674316,-9.215999603271484,2.11899995803833
1621848622283,-2.309999942779541,4.877999782562256,1.3580000400543213,2.197000026702881,-9.215999603271484,2.11899995803833
1621848622293,-1.4700000286102295,4.934999942779541,-2.186000108718872,2.1570000648498535,-9.215999603271484,2.11899995803833
1621848622303,-0.6650000214576721,4.734000205993652,-4.069499969482422,2.236000061035156,-9.178000450134276,2.125999927520752
1621848622313,0.1400000005960464,4.5329999923706055,-5.953000068664551,2.3540000915527344,-9.222999572753906,2.1579999923706055
1621848622323,0.8399999737739563,2.934999942779541,-8.581000328063965,2.431999921798706,-9.300000190734863,2.1440000534057617
1621848622333,0.4199999868869781,1.4789999723434448,-7.984000205993653,2.431999921798706,-9.307000160217283,2.183000087738037
1621848622343,0.5600000023841857,-0.5239999890327453,-6.703000068664551,2.0789999961853027,-9.159000396728516,2.249000072479248
1621848622353,0.1400000005960464,-0.5,-6.841000080108643,1.843999981880188,-9.166000366210936,2.2869999408721924
1621848622363,-0.0700000002980232,1.25600004196167,-8.734999656677246,1.687000036239624,-9.138999938964846,2.1329998970031734
1621848622373,-0.6299999952316284,4.020999908447266,-10.30799961090088,1.72599995136261,-9.178000450134276,2.125999927520752
1621848622382,-1.399999976158142,7.269000053405762,-10.58899974822998,1.843999981880188,-9.222999572753906,2.1579999923706055
1621848622393,-2.799999952316284,10.626999855041504,-7.863999843597413,1.9220000505447388,-9.255000114440918,2.111999988555908
1621848622403,-4.059999942779541,12.432000160217283,-3.9920001029968266,1.9609999656677248,-9.248000144958496,2.0739998817443848
1621848622412,-5.460000038146973,14.244999885559082,-0.9710000157356262,1.9609999656677248,-9.163999557495115,2.049000024795532
1621848622422,-5.53000020980835,15.97700023651123,-0.3100000023841857,1.9609999656677248,-9.010000228881836,2.075999975204468
1621848622432,-4.409999847412109,17.257999420166016,-3.1410000324249268,2.0789999961853027,-8.956999778747559,2.005000114440918
1621848622442,-3.6400001049041744,18.489999771118164,-6.9039998054504395,2.197000026702881,-8.98900032043457,1.9600000381469729
1621848622452,-2.0299999713897705,19.316999435424805,-9.175000190734863,2.3540000915527344,-8.996000289916992,1.9989999532699585
1621848622462,-0.1400000005960464,19.179000854492188,-10.407999992370604,2.510999917984009,-9.072999954223633,1.9850000143051147
1621848622472,0.7699999809265136,17.34600067138672,-11.300000190734863,2.7070000171661377,-9.125,2.055000066757202
1621848622482,1.4700000286102295,14.588000297546388,-11.78600025177002,2.8239998817443848,-9.163999557495115,2.049000024795532
1621848622492,1.8200000524520872,10.29800033569336,-10.836000442504885,2.941999912261963,-9.33899974822998,2.13700008392334
1621848622502,1.4700000286102295,5.822000026702881,-8.427000045776367,2.7850000858306885,-9.39099979400635,2.2079999446868896
1621848622512,0.8399999737739563,2.9670000076293945,-5.945000171661377,2.3929998874664307,-9.397999763488768,2.246000051498413
1621848622522,0.524999976158142,2.513000011444092,-5.385499954223633,1.9609999656677248,-9.404999732971191,2.2850000858306885
1621848622532,0.209999993443489,2.059000015258789,-4.826000213623047,1.4509999752044678,-9.39099979400635,2.2079999446868896
1621848622542,0.2800000011920929,4.4720001220703125,-5.609000205993652,1.0980000495910645,-9.281999588012695,2.2669999599456787
1621848622552,1.2599999904632568,9.272999763488768,-7.0370001792907715,0.9409999847412108,-9.17300033569336,2.325999975204468
1621848622562,2.0299999713897705,15.104000091552734,-9.0649995803833,0.8629999756813049,-9.024999618530272,2.3919999599456787
1621848622572,3.5,21.513999938964844,-10.35099983215332,0.8240000009536743,-8.916000366210938,2.450999975204468
1621848622582,5.880000114440918,27.628999710083008,-10.765999794006348,0.7850000262260437,-8.937000274658203,2.566999912261963
1621848622592,8.539999961853027,33.63100051879883,-10.133999824523926,0.7450000047683715,-8.944000244140625,2.6050000190734863
1621848622602,11.6899995803833,39.250999450683594,-10.5649995803833,0.7450000047683715,-8.82800006866455,2.625999927520752
1621848622612,14.770000457763672,45.16699981689453,-13.076000213623049,0.6669999957084655,-8.821000099182129,2.586999893188477
1621848622622,17.5,50.52299880981445,-16.040000915527344,0.5879999995231628,-8.807000160217285,2.509999990463257
1621848622632,19.739999771118164,56.73099899291992,-16.58099937438965,0.3529999852180481,-8.786999702453613,2.3940000534057617
1621848622642,21.770000457763672,63.92900085449219,-15.880000114440918,0.0780000016093254,-8.612000465393066,2.305000066757202
1621848622652,24.149999618530273,72.45999908447266,-16.295000076293945,-0.1570000052452087,-8.482000350952148,2.249000072479248
1621848622662,27.15999984741211,81.4990005493164,-17.97100067138672,-0.4309999942779541,-8.366000175476074,2.2690000534057617
1621848622672,30.799999237060547,91.76100158691406,-21.350000381469727,-0.6669999957084655,-8.218999862670898,2.3350000381469727
1621848622682,35.209999084472656,103.11900329589844,-26.100000381469727,-0.7059999704360961,-8.045999526977539,2.484999895095825
1621848622692,40.7400016784668,114.65799713134766,-33.09299850463867,-0.7059999704360961,-7.939000129699707,2.7820000648498535
1621848622702,46.619998931884766,126.01499938964844,-40.25899887084961,-0.4709999859333038,-7.85099983215332,2.9570000171661377
1621848622712,51.2400016784668,135.8719940185547,-45.770999908447266,-0.2349999994039535,-7.800000190734864,3.125999927520752
1621848622722,55.15999984741211,143.24000549316406,-48.452999114990234,0.1959999948740005,-7.82100009918213,3.240999937057495
1621848622732,56.55999755859375,145.1925048828125,-48.037498474121094,0.7850000262260437,-7.925000190734864,3.381999969482422
1621848622742,57.959999084472656,147.14500427246094,-47.62200164794922,1.2940000295639038,-7.921000003814697,3.5820000171661377
1621848622752,60.130001068115234,149.1649932861328,-44.564998626708984,1.569000005722046,-7.775000095367432,3.88700008392334
1621848622762,63.06999969482422,148.23699951171875,-41.31700134277344,1.6080000400543213,-7.513999938964843,4.211999893188477
1621848622772,67.9000015258789,146.9550018310547,-42.11100006103515,1.6080000400543213,-7.234000205993653,4.658999919891357
1621848622782,74.62000274658203,145.5030059814453,-46.77399826049805,1.5299999713897705,-6.940999984741211,5.03000020980835
1621848622792,82.45999908447266,144.78799438476562,-52.79999923706055,1.569000005722046,-6.90500020980835,5.275000095367432
1621848622802,89.52999877929688,145.22999572753906,-58.124000549316406,1.843999981880188,-7.21400022506714,5.2210001945495605
1621848622812,92.8199996948242,145.7729949951172,-60.80099868774414,2.2750000953674316,-8.095999717712402,5.025000095367432
1621848622822,89.66999816894531,144.1219940185547,-60.310001373291016,2.7070000171661377,-9.038999557495115,5.177999973297119
1621848622832,80.8499984741211,138.33999633789065,-57.3489990234375,3.059999942779541,-9.718000411987305,5.415999889373779
1621848622842,69.44000244140625,128.9530029296875,-54.0989990234375,3.372999906539917,-9.940999984741213,5.775000095367432
1621848622852,58.72999954223633,116.5780029296875,-52.44300079345703,3.6089999675750737,-9.788000106811523,6.040999889373779
1621848622862,50.470001220703125,102.0,-52.810001373291016,3.687000036239624,-9.468000411987305,6.256999969482422
1621848622872,45.0099983215332,89.11699676513672,-52.310001373291016,3.7269999980926514,-9.050000190734863,6.370999813079834
1621848622882,42.0,79.12200164794922,-50.446998596191406,3.687000036239624,-8.694999694824219,6.39300012588501
1621848622892,39.689998626708984,71.04100036621094,-46.54100036621094,3.5299999713897705,-8.494999885559082,6.388999938964844
1621848622902,37.380001068115234,64.38300323486328,-42.242000579833984,3.25600004196167,-8.418000221252441,6.4019999504089355
1621848622912,34.5099983215332,60.0,-38.75,2.9809999465942383,-8.404000282287598,6.324999809265137
1621848622922,31.010000228881836,56.81700134277344,-36.823001861572266,2.7850000858306885,-8.461000442504883,6.196000099182129
1621848622932,28.63000106811523,55.48750305175781,-36.133499145507805,2.7070000171661377,-8.640999794006348,6.084000110626221
1621848622942,26.25,54.15800094604492,-35.444000244140625,2.549999952316284,-8.795000076293945,6.057000160217285
1621848622952,20.86000061035156,52.11399841308594,-33.529998779296875,2.4709999561309814,-8.802000045776367,6.0960001945495605
1621848622962,15.609999656677246,49.84400177001953,-31.940000534057617,2.3929998874664307,-8.678999900817871,6.077000141143799
1621848622972,11.899999618530272,47.12300109863281,-31.424999237060547,2.2750000953674316,-8.331999778747559,6.138999938964844
1621848622982,9.520000457763674,44.2760009765625,-29.79400062561035,2.236000061035156,-8.041000366210938,6.071000099182129
1621848622992,9.170000076293944,41.54800033569336,-27.218999862670895,2.313999891281128,-7.827000141143799,5.988999843597412
1621848623002,9.520000457763674,38.71799850463867,-23.666000366210938,2.2750000953674316,-7.651999950408936,5.900000095367432
1621848623012,10.289999961853027,36.10699844360352,-20.145999908447266,2.2750000953674316,-7.592999935150147,5.790999889373779
1621848623022,10.710000038146973,33.24800109863281,-18.44700050354004,2.236000061035156,-7.631999969482423,5.783999919891357
1621848623032,10.220000267028809,30.527999877929688,-17.930999755859375,2.236000061035156,-7.748000144958496,5.763999938964844
1621848623042,9.449999809265137,27.766000747680664,-19.200000762939453,2.2750000953674316,-7.947999954223632,5.76800012588501
1621848623052,7.559999942779541,24.315000534057617,-20.590999603271484,2.313999891281128,-8.0,5.839000225067139
1621848623062,5.460000038146973,20.59199905395508,-21.246999740600582,2.313999891281128,-8.020999908447266,5.954999923706055
1621848623072,4.199999809265137,17.069000244140625,-21.01499938964844,2.313999891281128,-7.949999809265136,6.006999969482422
1621848623082,3.569999933242798,13.468000411987305,-19.944000244140625,2.236000061035156,-7.802000045776368,6.072999954223633
1621848623092,3.2899999618530273,10.72700023651123,-18.507999420166016,2.1570000648498535,-7.717999935150147,6.047999858856201
1621848623102,3.569999933242798,8.92300033569336,-17.547000885009766,2.0399999618530273,-7.6479997634887695,6.099999904632568
1621848623112,3.9200000762939458,8.27400016784668,-17.093000411987305,1.9220000505447388,-7.668000221252441,6.216000080108643
1621848623122,3.7799999713897705,8.335000038146973,-17.437999725341797,1.72599995136261,-7.6479997634887695,6.099999904632568
1621848623132,4.025000095367432,8.750499725341797,-17.577999114990234,1.569000005722046,-7.679999828338623,6.054999828338623
1621848623142,4.269999980926514,9.166000366210936,-17.718000411987305,1.5299999713897705,-7.763999938964843,6.079999923706055
1621848623152,3.7799999713897705,10.369999885559082,-17.29199981689453,1.5299999713897705,-7.925000190734864,6.091000080108643
1621848623162,2.240000009536743,11.814000129699709,-16.611000061035156,1.6480000019073486,-8.093000411987305,6.140999794006348
1621848623172,-0.1400000005960464,12.791000366210938,-15.300999641418455,1.6480000019073486,-8.184000015258789,6.204999923706055
1621848623182,-3.1500000953674316,13.12399959564209,-13.963000297546388,1.72599995136261,-8.236000061035156,6.275000095367432
1621848623192,-6.159999847412109,12.770999908447266,-13.171999931335447,1.8040000200271609,-8.229999542236328,6.236000061035156
1621848623202,-9.59000015258789,12.196000099182127,-11.92300033569336,1.8040000200271609,-8.177000045776367,6.165999889373779
1621848623212,-12.18000030517578,11.55500030517578,-9.904000282287598,1.843999981880188,-8.163999557495117,6.089000225067139
1621848623222,-14.06999969482422,11.361000061035156,-8.800999641418457,1.8040000200271609,-8.182000160217285,5.966000080108643
1621848623232,-15.75,10.866000175476074,-8.817000389099121,1.7649999856948853,-8.083999633789062,5.863999843597412
1621848623242,-16.239999771118164,10.383000373840332,-10.111000061035156,1.687000036239624,-7.702000141143799,5.73199987411499
1621848623252,-15.890000343322754,10.317999839782717,-11.756999969482422,1.687000036239624,-7.572999954223632,5.675000190734863
1621848623262,-14.840000152587892,9.998000144958496,-11.956000328063965,1.6480000019073486,-7.436999797821045,5.579999923706055
1621848623272,-13.090000152587892,9.421999931335447,-10.706000328063965,1.6480000019073486,-7.353000164031982,5.554999828338623
1621848623282,-10.850000381469728,9.151000022888184,-9.972000122070312,1.6080000400543213,-7.353000164031982,5.554999828338623
1621848623292,-8.680000305175781,8.83899974822998,-9.814000129699709,1.491000056266785,-7.353000164031982,5.554999828338623
1621848623302,-7.0,9.133999824523924,-10.685999870300291,1.491000056266785,-7.34600019454956,5.515999794006348
1621848623312,-4.619999885559082,9.973999977111816,-11.817999839782717,1.4509999752044678,-7.300000190734864,5.484000205993652
1621848623322,-2.7300000190734863,10.4399995803833,-12.446000099182127,1.491000056266785,-7.331999778747559,5.439000129699707
1621848623332,-1.7849999666213987,10.547499656677246,-12.249500274658203,1.5299999713897705,-7.331999778747559,5.439000129699707
1621848623342,-0.8399999737739563,10.654999732971191,-12.053000450134276,1.569000005722046,-7.363999843597413,5.39300012588501
1621848623352,1.1200000047683716,10.630999565124512,-10.70699977874756,1.569000005722046,-7.395999908447266,5.3480000495910645
1621848623362,2.7300000190734863,11.003999710083008,-10.00100040435791,1.569000005722046,-7.349999904632568,5.315999984741211
1621848623372,4.199999809265137,11.595999717712402,-9.32800006866455,1.5299999713897705,-7.297999858856201,5.245999813079834
1621848623382,5.739999771118164,11.73799991607666,-8.520999908447266,1.491000056266785,-7.258999824523927,5.251999855041504
1621848623392,7.8400001525878915,11.807000160217283,-7.301000118255616,1.4119999408721924,-7.150000095367432,5.310999870300293
1621848623402,10.43000030517578,12.659000396728516,-6.084000110626221,1.4509999752044678,-7.14300012588501,5.2729997634887695
1621848623412,13.510000228881836,13.027999877929688,-4.953000068664551,1.491000056266785,-7.105000019073486,5.28000020980835
1621848623422,16.3799991607666,12.946999549865724,-4.895999908447266,1.491000056266785,-7.079999923706055,5.363999843597412
1621848623432,19.530000686645508,12.512999534606934,-4.048999786376953,1.5299999713897705,-7.0929999351501465,5.440999984741211
1621848623442,21.770000457763672,12.05500030517578,-3.062999963760376,1.569000005722046,-7.171000003814697,5.427000045776367
1621848623452,24.219999313354492,10.82699966430664,-2.1429998874664307,1.6080000400543213,-7.48199987411499,5.611000061035156
1621848623462,25.200000762939453,8.491000175476074,-0.9909999966621398,1.6480000019073486,-7.72100019454956,5.609000205993652
1621848623472,24.709999084472656,6.357999801635742,-0.5849999785423278,1.491000056266785,-7.842999935150147,5.626999855041504
1621848623482,23.729999542236328,5.8470001220703125,-2.5230000019073486,1.2940000295639038,-7.895999908447266,5.697999954223633
1621848623492,22.540000915527344,6.065000057220459,-6.181000232696533,1.215999960899353,-7.947999954223632,5.76800012588501
1621848623502,21.350000381469727,6.198999881744385,-9.355999946594238,1.215999960899353,-7.935999870300293,5.929999828338623
1621848623512,19.600000381469727,6.6570000648498535,-10.340999603271484,1.2940000295639038,-7.84600019454956,5.866000175476074
1621848623522,19.040000915527344,6.685500144958496,-9.696499824523924,1.2549999952316284,-7.789000034332275,5.995999813079834
1621848623532,18.479999542236328,6.714000225067139,-9.052000045776367,1.2549999952316284,-7.756999969482423,6.040999889373779
1621848623542,17.5,6.802999973297119,-6.335000038146973,1.215999960899353,-7.802000045776368,6.072999954223633
1621848623552,15.960000038146973,6.495999813079834,-4.185999870300293,1.1380000114440918,-7.802000045776368,6.072999954223633
1621848623562,13.720000267028809,6.053999900817871,-3.6949999332427974,1.0590000152587893,-7.763999938964843,6.079999923706055
1621848623572,11.899999618530272,6.670000076293945,-5.577000141143799,0.981000006198883,-7.692999839782715,6.131999969482422
1621848623582,10.149999618530272,7.853000164031982,-7.855999946594238,0.9409999847412108,-7.506999969482423,6.204999923706055
1621848623592,9.380000114440918,9.682000160217283,-10.163000106811523,0.9020000100135804,-7.243000030517577,6.290999889373779
1621848623602,9.65999984741211,11.206000328063965,-11.956000328063965,1.0199999809265137,-7.043000221252441,6.285999774932861
1621848623612,11.340000152587892,11.831000328063965,-12.272000312805176,1.1380000114440918,-6.934000015258789,6.34499979019165
1621848623622,13.300000190734863,11.819000244140623,-10.994999885559082,1.3339999914169312,-6.934000015258789,6.34499979019165
1621848623632,14.489999771118164,11.54300022125244,-8.626999855041504,1.4509999752044678,-7.109000205993652,6.434000015258789
1621848623642,14.840000152587892,10.845999717712402,-6.688000202178955,1.5299999713897705,-7.368000030517577,6.547999858856201
1621848623652,13.789999961853027,9.451000213623049,-6.436999797821045,1.569000005722046,-7.684000015258789,6.5320000648498535
1621848623662,11.619999885559082,7.813000202178955,-7.223000049591064,1.6080000400543213,-7.915999889373779,6.491000175476074
1621848623672,8.75,5.691999912261963,-8.095000267028809,1.6080000400543213,-7.954999923706055,6.484000205993652
1621848623682,5.949999809265137,3.7939999103546143,-8.215999603271484,1.5299999713897705,-7.83900022506714,6.505000114440918
1621848623692,4.340000152587891,2.38700008392334,-7.894999980926514,1.4509999752044678,-7.414000034332275,6.578999996185303
1621848623702,4.269999980926514,1.924999952316284,-6.484000205993652,1.3339999914169312,-7.033999919891357,6.685999870300293
1621848623712,6.579999923706055,1.746999979019165,-5.875999927520752,1.215999960899353,-6.724999904632568,6.741000175476074
1621848623722,8.050000190734863,2.133999824523926,-6.05649995803833,1.0590000152587893,-6.65500020980835,6.793000221252441
1621848623732,9.520000457763674,2.5209999084472656,-6.236999988555908,0.9409999847412108,-6.809000015258789,6.765999794006348
1621848623742,11.199999809265137,4.188000202178955,-7.223000049591064,0.8629999756813049,-7.125,6.75
1621848623752,11.199999809265137,5.866000175476074,-9.484999656677246,0.8629999756813049,-7.317999839782715,6.716000080108643
1621848623762,9.170000076293944,6.785999774932861,-11.881999969482422,0.9020000100135804,-7.349999904632568,6.670000076293945
1621848623772,6.159999847412109,7.682000160217285,-12.932000160217283,0.9409999847412108,-7.322999954223632,6.515999794006348
1621848623782,3.6400001049041744,9.470999717712402,-13.39900016784668,0.981000006198883,-7.23199987411499,6.452000141143799
1621848623792,2.5199999809265137,11.546999931335447,-12.678000450134276,1.0199999809265137,-7.160999774932861,6.504000186920166
1621848623802,2.5199999809265137,13.282999992370604,-11.234000205993652,1.0590000152587893,-7.013999938964844,6.570000171661377
1621848623812,2.450000047683716,13.883000373840332,-10.20400047302246,1.215999960899353,-6.855000019073486,6.797999858856201
1621848623822,3.2899999618530273,13.468999862670898,-9.069000244140623,1.4119999408721924,-6.841000080108643,6.71999979019165
1621848623832,4.690000057220459,12.748000144958496,-6.993000030517578,1.491000056266785,-6.918000221252441,6.706999778747559
1621848623842,5.320000171661377,11.640999794006348,-4.34499979019165,1.569000005722046,-7.033999919891357,6.685999870300293
1621848623852,5.25,9.934000015258787,-2.7260000705718994,1.6080000400543213,-7.111000061035156,6.672999858856201
1621848623862,5.110000133514404,7.91099977493286,-1.7330000400543213,1.6080000400543213,-7.290999889373779,6.560999870300293
1621848623872,4.409999847412109,5.9730000495910645,-1.2209999561309814,1.5299999713897705,-7.4770002365112305,6.488999843597412
1621848623882,3.009999990463257,4.540999889373779,-0.7630000114440918,1.4119999408721924,-7.547999858856201,6.435999870300293
1621848623892,1.190000057220459,3.877000093460083,0.1860000044107437,1.2549999952316284,-7.625,6.422999858856201
1621848623902,-0.9100000262260436,4.144000053405762,1.0859999656677246,1.1380000114440918,-7.599999904632568,6.506999969482422
1621848623912,-2.7300000190734863,3.5360000133514404,2.115999937057495,1.1380000114440918,-7.511000156402587,6.682000160217285
1621848623922,-3.3600001335144043,3.053500175476074,2.634999990463257,1.1770000457763672,-7.440999984741211,6.734000205993652
1621848623932,-3.990000009536743,2.571000099182129,3.1540000438690186,1.1770000457763672,-7.33900022506714,6.831999778747559
1621848623942,-4.760000228881836,1.00600004196167,4.370999813079834,1.1380000114440918,-7.223000049591064,6.8520002365112305
1621848623952,-5.389999866485596,0.0170000009238719,4.339000225067139,0.981000006198883,-7.145999908447266,6.866000175476074
1621848623962,-5.670000076293945,-0.3569999933242797,2.424999952316284,0.9409999847412108,-7.067999839782715,6.879000186920166
1621848623972,-5.880000114440918,0.3729999959468841,-1.7109999656677246,1.0199999809265137,-6.984000205993652,6.854000091552734
1621848623982,-5.880000114440918,0.9319999814033508,-6.091000080108643,1.1770000457763672,-6.946000099182129,6.861000061035156
1621848623992,-5.25,1.2280000448226929,-8.170999526977539,1.2940000295639038,-6.939000129699707,6.822999954223633
1621848624002,-4.690000057220459,1.593000054359436,-7.822000026702882,1.3730000257492063,-7.03000020980835,6.886000156402588
1621848624012,-4.409999847412109,1.5399999618530271,-7.120999813079834,1.4509999752044678,-7.190999984741211,6.8979997634887695
1621848624022,-4.900000095367432,0.7369999885559082,-4.98799991607666,1.4509999752044678,-7.3520002365112305,6.908999919891357
1621848624032,-6.230000019073486,-0.4180000126361846,-3.2720000743865967,1.4119999408721924,-7.5,6.8429999351501465
1621848624042,-8.329999923706055,-2.7170000076293945,-2.3269999027252197,1.4119999408721924,-7.532000064849853,6.797999858856201
1621848624051,-10.43000030517578,-4.611000061035156,-1.6660000085830688,1.3339999914169312,-7.498000144958496,6.604000091552734
1621848624061,-12.18000030517578,-5.336999893188477,-1.5809999704360962,1.2549999952316284,-7.290999889373779,6.560999870300293
1621848624071,-13.229999542236328,-5.238999843597412,-2.131999969482422,1.3339999914169312,-7.084000110626221,6.51800012588501
1621848624081,-13.510000228881836,-5.060999870300293,-2.740000009536743,1.2549999952316284,-6.883999824523926,6.513000011444092
1621848624091,-12.739999771118164,-5.239999771118164,-3.3410000801086426,1.2549999952316284,-6.839000225067139,6.48199987411499
1621848624101,-10.920000076293944,-5.572000026702881,-2.26200008392334,1.2549999952316284,-6.915999889373779,6.4679999351501465
1621848624111,-9.729999542236328,-5.734000205993652,-0.9399999976158142,1.215999960899353,-7.039000034332275,6.486000061035156
1621848624121,-9.344999313354492,-6.13100004196167,-0.2989999949932098,1.215999960899353,-7.168000221252441,6.543000221252441
1621848624131,-8.960000038146973,-6.5279998779296875,0.3420000076293945,1.1380000114440918,-7.290999889373779,6.560999870300293
1621848624141,-8.399999618530273,-7.039999961853027,-0.3880000114440918,1.0980000495910645,-7.368000030517577,6.547999858856201
1621848624151,-8.609999656677246,-7.5910000801086435,-1.694000005722046,1.0980000495910645,-7.39300012588501,6.464000225067139
1621848624161,-9.239999771118164,-7.343999862670899,-3.497999906539917,1.0199999809265137,-7.439000129699707,6.494999885559082
1621848624171,-9.800000190734863,-7.0,-4.645999908447266,1.0199999809265137,-7.4770002365112305,6.488999843597412
1621848624181,-10.640000343322754,-6.508999824523926,-5.413000106811523,0.981000006198883,-7.439000129699707,6.494999885559082
1621848624191,-11.199999809265137,-5.730999946594238,-6.198999881744385,0.981000006198883,-7.386000156402587,6.425000190734863
1621848624201,-11.550000190734863,-4.980000019073486,-6.421999931335449,0.8629999756813049,-7.39300012588501,6.464000225067139
1621848624211,-11.270000457763672,-3.872999906539917,-6.6539998054504395,0.9020000100135804,-7.405000209808349,6.302000045776367
1621848624221,-11.270000457763672,-2.069000005722046,-6.4070000648498535,0.8629999756813049,-7.3979997634887695,6.263999938964844
1621848624231,-11.340000152587892,-0.2399999946355819,-6.296999931335449,0.9409999847412108,-7.359000205993653,6.269999980926514
1621848624241,-11.619999885559082,0.9760000109672546,-5.940999984741211,1.0590000152587893,-7.366000175476073,6.309000015258789
1621848624251,-11.6899995803833,1.7350000143051147,-4.598999977111816,1.1380000114440918,-7.366000175476073,6.309000015258789
1621848624261,-12.18000030517578,2.1040000915527344,-3.4670000076293945,1.1770000457763672,-7.366000175476073,6.309000015258789
1621848624271,-12.600000381469728,2.4730000495910645,-2.3359999656677246,1.215999960899353,-7.314000129699707,6.238999843597412
1621848624281,-12.460000038146973,2.2660000324249268,-2.371999979019165,1.215999960899353,-7.314000129699707,6.238999843597412
1621848624291,-11.6899995803833,2.4159998893737793,-2.4170000553131104,1.2549999952316284,-7.26800012588501,6.206999778747559
1621848624301,-11.0600004196167,2.200999975204468,-2.809999942779541,1.2549999952316284,-7.248000144958496,6.091000080108643
1621848624311,-10.710000038146973,2.0269999504089355,-2.628000020980835,1.2940000295639038,-7.311999797821045,6.0
1621848624321,-9.9399995803833,1.3580000400543213,-2.461999893188477,1.2549999952316284,-7.349999904632568,5.993000030517578
1621848624331,-9.69499969482422,1.0985000133514404,-2.4010000228881836,1.2940000295639038,-7.336999893188477,5.915999889373779
1621848624341,-9.449999809265137,0.8389999866485595,-2.3399999141693115,1.2549999952316284,-7.329999923706055,5.876999855041504
1621848624351,-8.539999961853027,-0.0979999974370002,-1.8650000095367432,1.215999960899353,-7.315999984741211,5.800000190734863
1621848624361,-7.559999942779541,-1.2769999504089355,-1.2200000286102295,1.215999960899353,-7.39300012588501,5.785999774932861
1621848624371,-6.650000095367432,-1.85699999332428,-0.7540000081062316,1.2549999952316284,-7.355000019073486,5.793000221252441
1621848624381,-6.019999980926514,-2.1700000762939453,-0.5960000157356262,1.1770000457763672,-7.315999984741211,5.800000190734863
1621848624391,-4.690000057220459,-2.072000026702881,-1.1469999551773071,1.0980000495910645,-7.245999813079834,5.8520002365112305
1621848624401,-3.5,-1.950999975204468,-3.0450000762939453,1.0980000495910645,-7.21400022506714,5.8979997634887695
1621848624411,-1.8899999856948853,-1.1440000534057615,-5.604000091552734,1.0590000152587893,-7.175000190734863,5.90500020980835
1621848624421,0.4199999868869781,-0.746999979019165,-7.453000068664551,1.0980000495910645,-7.22100019454956,5.935999870300293
1621848624431,2.240000009536743,-0.1509999930858612,-8.413999557495117,1.1380000114440918,-7.258999824523927,5.929999828338623
1621848624441,3.6400001049041744,0.5989999771118164,-7.42899990081787,1.0590000152587893,-7.311999797821045,6.0
1621848624451,4.059999942779541,1.25600004196167,-6.317999839782715,1.0590000152587893,-7.480000019073486,6.050000190734863
1621848624461,4.340000152587891,2.200999975204468,-5.2270002365112305,0.9409999847412108,-7.655000209808349,6.138999938964844
1621848624471,3.849999904632568,3.0,-4.51800012588501,0.9409999847412108,-7.763999938964843,6.079999923706055
1621848624481,2.869999885559082,4.058000087738037,-4.4730000495910645,0.9020000100135804,-7.796000003814697,6.033999919891357
1621848624491,1.75,5.53000020980835,-4.355999946594238,0.8629999756813049,-7.736000061035157,5.925000190734863
1621848624501,0.699999988079071,7.330999851226807,-4.890999794006348,0.8629999756813049,-7.645999908447266,5.861000061035156
1621848624511,0.0,9.114999771118164,-6.140999794006348,0.9020000100135804,-7.561999797821045,5.835999965667725
1621848624521,0.0700000002980232,10.286999702453612,-7.142000198364258,0.981000006198883,-7.407000064849853,5.863999843597412
1621848624531,0.699999988079071,10.720000267028809,-7.989999771118165,1.0590000152587893,-7.329999923706055,5.876999855041504
1621848624541,1.3300000429153442,10.738500595092772,-8.093500137329102,1.215999960899353,-7.329999923706055,5.876999855041504
1621848624551,1.9600000381469729,10.756999969482422,-8.196999549865723,1.3339999914169312,-7.375,5.908999919891357
1621848624561,2.7300000190734863,9.803999900817873,-7.2270002365112305,1.4509999752044678,-7.4660000801086435,5.9730000495910645
1621848624571,2.6600000858306885,8.133999824523926,-5.815999984741211,1.491000056266785,-7.679999828338623,6.054999828338623
1621848624581,2.240000009536743,5.9120001792907715,-4.501999855041504,1.4509999752044678,-7.640999794006347,6.060999870300293
1621848624591,1.5399999618530271,3.63700008392334,-4.9029998779296875,1.4509999752044678,-7.6020002365112305,6.067999839782715
1621848624601,0.9100000262260436,1.6619999408721924,-6.6020002365112305,1.4119999408721924,-7.6020002365112305,6.067999839782715
1621848624611,0.699999988079071,0.1159999966621398,-8.722000122070312,1.3730000257492063,-7.59600019454956,6.03000020980835
1621848624621,0.4900000095367431,-0.9990000128746032,-10.055999755859377,1.4509999752044678,-7.58900022506714,5.991000175476074
1621848624631,0.209999993443489,-2.3489999771118164,-9.654999732971191,1.4119999408721924,-7.543000221252441,5.959000110626221
1621848624641,0.4199999868869781,-3.6989998817443848,-8.045000076293945,1.3730000257492063,-7.60699987411499,5.868000030517578
1621848624651,0.4900000095367431,-4.445000171661377,-5.829999923706055,1.2940000295639038,-7.677000045776368,5.815999984741211
1621848624661,0.0700000002980232,-4.817999839782715,-4.11899995803833,1.2549999952316284,-7.748000144958496,5.763999938964844
1621848624671,-0.4900000095367431,-4.879000186920166,-3.775000095367432,1.1380000114440918,-7.7729997634887695,5.679999828338623
1621848624681,-0.8399999737739563,-4.574999809265137,-4.289999961853027,1.1380000114440918,-7.675000190734864,5.577000141143799
1621848624691,-0.9100000262260436,-4.383999824523926,-4.9670000076293945,1.0980000495910645,-7.513999938964843,5.565999984741211
1621848624701,-0.4900000095367431,-3.8159999847412114,-5.363999843597412,1.0590000152587893,-7.230000019073486,5.535999774932861
1621848624711,1.1200000047683716,-3.5290000438690186,-5.385000228881836,1.0980000495910645,-7.081999778747559,5.6020002365112305
1621848624721,3.569999933242798,-2.6080000400543213,-5.363999843597412,1.0980000495910645,-6.927999973297119,5.630000114440918
1621848624731,5.809999942779541,-2.413000106811523,-5.258999824523926,1.0980000495910645,-7.0960001945495605,5.679999828338623
1621848624741,8.539999961853027,-1.97599995136261,-5.323999881744385,1.0590000152587893,-7.179999828338623,5.704999923706055
1621848624751,10.079999923706056,-1.6390000581741333,-5.619999885559082,1.0590000152587893,-7.302000045776368,5.7230000495910645
1621848624761,10.43000030517578,-1.3854999542236328,-6.250499725341797,1.0590000152587893,-7.315999984741211,5.800000190734863
1621848624771,10.779999732971191,-1.131999969482422,-6.88100004196167,0.981000006198883,-7.245999813079834,5.8520002365112305
1621848624781,11.0600004196167,-0.8769999742507933,-8.329000473022461,0.981000006198883,-7.14300012588501,5.949999809265137
1621848624791,11.899999618530272,-1.003000020980835,-9.630000114440918,1.0590000152587893,-7.1570000648498535,6.0269999504089355
1621848624801,12.880000114440918,-0.746999979019165,-9.869999885559082,1.0980000495910645,-7.196000099182129,6.019999980926514
1621848624811,13.720000267028809,-0.703000009059906,-8.51099967956543,1.215999960899353,-7.383999824523927,6.185999870300293
1621848624821,14.0,-0.6169999837875366,-6.577000141143799,1.2940000295639038,-7.526999950408936,6.320000171661377
1621848624831,13.369999885559082,-0.856000006198883,-4.415999889373779,1.2940000295639038,-7.599999904632568,6.506999969482422
1621848624841,12.039999961853027,-1.2940000295639038,-3.1419999599456787,1.215999960899353,-7.626999855041504,6.660999774932861
1621848624851,10.779999732971191,-1.4160000085830688,-3.66100001335144,1.2549999952316284,-7.640999794006347,6.738999843597412
1621848624861,9.239999771118164,-0.8040000200271606,-6.326000213623047,1.2940000295639038,-7.609000205993653,6.783999919891357
1621848624871,7.8400001525878915,-0.0340000018477439,-8.678000450134277,1.3339999914169312,-7.655000209808349,6.815999984741211
1621848624881,6.369999885559082,0.9470000267028807,-10.211000442504885,1.4119999408721924,-7.73199987411499,6.802000045776367
1621848624891,4.760000228881836,2.200000047683716,-10.060999870300291,1.491000056266785,-7.827000141143799,6.665999889373779
1621848624901,1.75,3.2750000953674316,-8.093999862670898,1.6080000400543213,-7.890999794006347,6.574999809265137
1621848624911,-1.3300000429153442,3.5230000019073486,-6.27400016784668,1.6480000019073486,-7.960999965667725,6.5229997634887695
1621848624921,-4.690000057220459,3.336999893188477,-4.814000129699707,1.6480000019073486,-7.894999980926514,6.375
1621848624931,-7.980000019073486,2.4489998817443848,-4.614999771118164,1.6480000019073486,-7.758999824523927,6.28000020980835
1621848624941,-10.149999618530272,1.4550000429153442,-4.2210001945495605,1.6080000400543213,-7.598000049591064,6.26800012588501
1621848624951,-10.850000381469728,0.9520000219345092,-4.593999862670898,1.6080000400543213,-7.467999935150147,6.210999965667725
1621848624961,-10.989999771118164,0.3680000007152557,-4.910999774932861,1.569000005722046,-7.307000160217285,6.199999809265137
1621848624971,-10.850000381469728,-0.3899999856948852,-5.044000148773193,1.569000005722046,-7.158999919891357,6.265999794006348
1621848624981,-9.9399995803833,-0.4709999859333038,-4.98799991607666,1.569000005722046,-7.113999843597412,6.234000205993652
1621848624991,-8.680000305175781,-0.662000000476837,-5.519000053405762,1.569000005722046,-7.236999988555909,6.251999855041504
1621848625001,-8.470000267028809,-0.5119999647140502,-5.563499927520752,1.5299999713897705,-7.359000205993653,6.269999980926514
1621848625011,-8.260000228881836,-0.3619999885559082,-5.607999801635742,1.491000056266785,-7.520999908447266,6.2820000648498535
1621848625021,-8.960000038146973,0.1330000013113021,-5.5920000076293945,1.4509999752044678,-7.611000061035157,6.34499979019165
1621848625031,-9.869999885559082,0.559000015258789,-5.5879998207092285,1.491000056266785,-7.689000129699707,6.331999778747559
1621848625041,-11.6899995803833,0.9480000138282776,-5.376999855041504,1.491000056266785,-7.751999855041504,6.241000175476074
1621848625051,-13.369999885559082,1.1390000581741333,-4.8460001945495605,1.491000056266785,-7.765999794006347,6.317999839782715
1621848625061,-14.840000152587892,1.1269999742507937,-3.569000005722046,1.5299999713897705,-7.835999965667725,6.265999794006348
1621848625071,-16.729999542236328,1.1920000314712524,-3.13100004196167,1.491000056266785,-7.804999828338623,6.310999870300293
1621848625081,-18.6200008392334,0.5109999775886535,-2.8949999809265137,1.4119999408721924,-7.835999965667725,6.265999794006348
1621848625091,-19.670000076293945,0.2960000038146972,-3.2890000343322754,1.2940000295639038,-7.745999813079834,6.202000141143799
1621848625101,-20.649999618530273,0.9200000166893004,-3.6050000190734863,1.215999960899353,-7.66099977493286,6.177000045776367
1621848625111,-21.280000686645508,2.015000104904175,-3.7669999599456783,1.1380000114440918,-7.609000205993653,6.10699987411499
1621848625121,-21.13999938964844,3.7420001029968266,-3.888999938964844,1.0980000495910645,-7.512000083923339,6.005000114440918
1621848625131,-20.3700008392334,5.401000022888184,-4.0229997634887695,1.1770000457763672,-7.498000144958496,5.927000045776367
1621848625141,-19.31999969482422,7.0879998207092285,-3.513000011444092,1.215999960899353,-7.484000205993653,5.849999904632568
1621848625151,-18.1299991607666,7.922999858856201,-3.009999990463257,1.2940000295639038,-7.47100019454956,5.7729997634887695
1621848625161,-16.729999542236328,8.21500015258789,-2.247999906539917,1.3730000257492063,-7.4120001792907715,5.664000034332275
1621848625171,-15.75,8.01200008392334,-1.5010000467300415,1.4509999752044678,-7.4120001792907715,5.664000034332275
1621848625181,-14.350000381469728,7.318999767303467,-1.1970000267028809,1.569000005722046,-7.383999824523927,5.508999824523926
1621848625191,-13.020000457763672,5.810999870300293,-1.1080000400543213,1.6480000019073486,-7.422999858856201,5.501999855041504
1621848625201,-11.6899995803833,4.083000183105469,-0.9860000014305114,1.6080000400543213,-7.454999923706055,5.456999778747559
1621848625211,-10.779999732971191,2.5789999961853027,-1.3220000267028809,1.6080000400543213,-7.461999893188477,5.495999813079834
1621848625221,-9.65999984741211,1.5,-2.86299991607666,1.5299999713897705,-7.467999935150147,5.533999919891357
1621848625231,-8.854999542236328,0.9850000143051147,-3.7714998722076416,1.491000056266785,-7.3979997634887695,5.585999965667725
1621848625241,-8.050000190734863,0.4699999988079071,-4.679999828338623,1.491000056266785,-7.405000209808349,5.625
1621848625251,-6.230000019073486,-0.1309999972581863,-5.709000110626221,1.4509999752044678,-7.327000141143799,5.638999938964844
1621848625261,-4.199999809265137,-0.3899999856948852,-5.044000148773193,1.491000056266785,-7.25,5.6519999504089355
1621848625271,-1.8899999856948853,-0.734000027179718,-3.8970000743865967,1.491000056266785,-7.289000034332275,5.644999980926514
1621848625281,0.6299999952316284,-1.5859999656677246,-2.696000099182129,1.4119999408721924,-7.3410000801086435,5.716000080108643
1621848625291,2.309999942779541,-1.6059999465942385,-1.7760000228881836,1.3339999914169312,-7.366000175476073,5.631999969482422
1621848625301,3.430000066757202,-1.2489999532699585,-1.784000039100647,1.2549999952316284,-7.495999813079834,5.689000129699707
1621848625311,4.059999942779541,-0.3849999904632568,-1.8450000286102295,1.1770000457763672,-7.599999904632568,5.829999923706055
1621848625321,3.9200000762939458,0.5270000100135803,-2.181999921798706,1.1380000114440918,-7.684000015258789,5.855000019073486
1621848625331,3.9200000762939458,0.9890000224113464,-2.384000062942505,1.0980000495910645,-7.690999984741211,5.89300012588501
1621848625341,3.849999904632568,1.6660000085830688,-2.194000005722046,0.981000006198883,-7.690999984741211,5.89300012588501
1621848625351,3.7100000381469727,2.1080000400543213,-1.47599995136261,1.0980000495910645,-7.697999954223632,5.932000160217285
1621848625361,3.849999904632568,2.190000057220459,-0.324999988079071,1.1380000114440918,-7.775000095367432,5.918000221252441
1621848625371,3.7799999713897705,1.6990000009536743,0.44200000166893,1.0980000495910645,-7.814000129699707,5.910999774932861
1621848625381,3.0799999237060547,1.468000054359436,0.5429999828338623,1.0590000152587893,-7.859000205993653,5.942999839782715
1621848625391,2.1700000762939453,1.618000030517578,-0.7099999785423278,1.0980000495910645,-7.922999858856201,5.8520002365112305
1621848625401,0.4900000095367431,1.5609999895095823,-1.9989999532699585,1.0980000495910645,-8.038999557495117,5.831999778747559
1621848625411,-1.190000057220459,1.4429999589920044,-2.944000005722046,1.0590000152587893,-8.006999969482422,5.876999855041504
1621848625421,-2.6600000858306885,1.3459999561309814,-3.6010000705718994,1.0590000152587893,-8.013999938964844,5.915999889373779
1621848625431,-3.9200000762939458,1.8040000200271609,-4.585999965667725,1.0590000152587893,-8.013999938964844,5.915999889373779
1621848625441,-5.110000133514404,2.0269999504089355,-5.045000076293945,1.0590000152587893,-8.027000427246094,5.993000030517578
1621848625451,-6.369999885559082,2.2820000648498535,-5.283999919891357,1.0199999809265137,-7.98199987411499,5.960999965667725
1621848625461,-7.559999942779541,2.7200000286102295,-5.348999977111816,1.0590000152587893,-7.942999839782715,5.9679999351501465
1621848625471,-7.9099998474121085,2.6024999618530273,-5.0854997634887695,1.0590000152587893,-7.935999870300293,5.929999828338623
1621848625481,-8.260000228881836,2.484999895095825,-4.822000026702881,1.1380000114440918,-7.890999794006347,5.8979997634887695
1621848625491,-8.819999694824219,2.184999942779541,-4.73199987411499,1.1770000457763672,-7.83900022506714,5.827000141143799
1621848625501,-8.75,1.9299999475479128,-4.493000030517578,1.1770000457763672,-7.780000209808349,5.7179999351501465
1621848625511,-8.680000305175781,1.2849999666213987,-4.465000152587891,1.215999960899353,-7.811999797821045,5.672999858856201
1621848625521,-8.890000343322754,0.9079999923706054,-4.74399995803833,1.1770000457763672,-7.849999904632568,5.665999889373779
1621848625531,-9.100000381469728,0.6930000185966491,-5.138000011444092,1.1380000114440918,-7.9660000801086435,5.645999908447266
1621848625541,-10.079999923706056,0.7009999752044677,-5.988999843597412,1.1380000114440918,-8.01099967956543,5.677000045776367
1621848625551,-10.920000076293944,0.9720000028610228,-6.7230000495910645,1.0980000495910645,-8.017999649047852,5.716000080108643
1621848625561,-11.270000457763672,1.381999969482422,-7.433000087738037,1.0980000495910645,-7.888999938964843,5.658999919891357
1621848625571,-11.409999847412108,1.774999976158142,-7.6479997634887695,1.0980000495910645,-7.836999893188477,5.589000225067139
1621848625581,-10.920000076293944,2.4560000896453857,-6.675000190734863,1.1770000457763672,-7.790999889373779,5.557000160217285
1621848625591,-10.5,2.8980000019073486,-5.956999778747559,1.1770000457763672,-7.692999839782715,5.454999923706055
1621848625601,-9.65999984741211,3.2269999980926514,-5.4019999504089355,1.215999960899353,-7.73199987411499,5.447999954223633
1621848625611,-8.819999694824219,3.121999979019165,-5.206999778747559,1.2549999952316284,-7.73199987411499,5.447999954223633
1621848625621,-8.119999885559082,3.0280001163482666,-5.080999851226807,1.3339999914169312,-7.776999950408936,5.480000019073486
1621848625631,-7.559999942779541,3.130000114440918,-4.849999904632568,1.3339999914169312,-7.763999938964843,5.4019999504089355
1621848625641,-6.789999961853027,2.8420000076293945,-4.829999923706055,1.3339999914169312,-7.880000114440918,5.381999969482422
1621848625651,-6.579999923706055,2.6029999256134033,-5.085000038146973,1.2940000295639038,-7.873000144958496,5.3429999351501465
1621848625661,-6.860000133514404,1.937999963760376,-5.34499979019165,1.2549999952316284,-7.918000221252441,5.375
1621848625671,-6.71999979019165,1.4589999914169312,-5.855999946594238,1.215999960899353,-7.89300012588501,5.459000110626221
1621848625681,-6.579999923706055,1.093999981880188,-6.203999996185303,1.1770000457763672,-7.939000129699707,5.491000175476074
1621848625691,-6.440000057220459,1.19350004196167,-6.364500045776367,1.1380000114440918,-7.984000205993653,5.5229997634887695
1621848625701,-6.300000190734863,1.2929999828338623,-6.525000095367432,1.1380000114440918,-7.9770002365112305,5.484000205993652
1621848625711,-6.159999847412109,1.1950000524520874,-7.182000160217285,1.0590000152587893,-7.974999904632568,5.245999813079834
1621848625721,-6.860000133514404,1.7990000247955322,-7.78599977493286,1.0590000152587893,-7.988999843597413,5.322999954223633
1621848625730,-6.929999828338623,2.3829998970031734,-8.678000450134277,1.0980000495910645,-7.942999839782715,5.290999889373779
1621848625740,-6.650000095367432,2.938999891281128,-9.006999969482422,1.1380000114440918,-7.873000144958496,5.3429999351501465
1621848625750,-6.159999847412109,3.947999954223633,-8.685999870300293,1.1770000457763672,-7.827000141143799,5.311999797821045
1621848625760,-4.96999979019165,5.0960001945495605,-8.342000007629395,1.215999960899353,-7.789000034332275,5.317999839782715
1621848625770,-3.7799999713897705,5.415999889373779,-8.142999649047852,1.2549999952316284,-7.743000030517577,5.2870001792907715
1621848625780,-2.940000057220459,5.671999931335449,-8.381999969482422,1.2549999952316284,-7.75,5.324999809265137
1621848625790,-1.6100000143051147,5.9720001220703125,-8.472000122070312,1.3730000257492063,-7.827000141143799,5.311999797821045
1621848625800,-0.4900000095367431,6.0370001792907715,-8.034000396728516,1.4509999752044678,-7.866000175476073,5.304999828338623
1621848625810,0.0700000002980232,6.28000020980835,-6.995999813079834,1.4509999752044678,-7.936999797821045,5.251999855041504
1621848625820,0.209999993443489,6.138000011444092,-6.593999862670898,1.491000056266785,-7.949999809265136,5.329999923706055
1621848625830,0.0700000002980232,5.802000045776367,-6.297999858856201,1.5299999713897705,-7.988999843597413,5.322999954223633
1621848625840,0.2800000011920929,5.546000003814697,-6.059000015258789,1.5299999713897705,-7.96400022506714,5.4070000648498535
1621848625850,0.7699999809265136,4.718999862670898,-6.204999923706055,1.569000005722046,-7.9770002365112305,5.484000205993652
1621848625860,0.9800000190734864,4.184000015258789,-5.5879998207092285,1.5299999713897705,-7.89300012588501,5.459000110626221
1621848625870,1.4700000286102295,3.9159998893737793,-5.28000020980835,1.569000005722046,-7.89300012588501,5.459000110626221
1621848625880,2.0999999046325684,3.911999940872192,-4.854000091552734,1.4509999752044678,-7.855000019073486,5.466000080108643
1621848625890,2.5199999809265137,3.9040000438690186,-5.210999965667725,1.4119999408721924,-7.848000049591064,5.427000045776367
1621848625900,2.59000015258789,3.9040000438690186,-5.210999965667725,1.4119999408721924,-7.887000083923339,5.421000003814697
1621848625910,2.6600000858306885,3.9040000438690186,-5.210999965667725,1.4119999408721924,-8.008999824523926,5.439000129699707
