timestamp,gyro_x,gyro_y,gyro_z,acc_x,acc_y,acc_z
1621852733422,0.0,0.0,0.0,0.0,0.0,0.0
1621852733431,1.4700000286102295,-13.88700008392334,8.213000297546387,-0.4309999942779541,-10.163999557495115,2.072000026702881
1621852733441,0.6299999952316284,-9.843999862670898,7.860000133514405,-0.4709999859333038,-10.079999923706056,2.046999931335449
1621852733451,-0.4199999868869781,-4.738999843597412,8.333999633789062,-0.4709999859333038,-9.949999809265137,1.9900000095367432
1621852733461,-1.190000057220459,0.0540000014007091,7.756999969482423,-0.4309999942779541,-9.82800006866455,1.9709999561309817
1621852733471,-1.190000057220459,3.8900001049041744,7.367000102996825,-0.3529999852180481,-9.744000434875488,1.9459999799728391
1621852733481,-1.399999976158142,7.117000102996826,6.798999786376953,-0.3140000104904174,-9.697999954223633,1.9149999618530271
1621852733491,-1.5399999618530271,9.947999954223633,5.663000106811523,-0.2349999994039535,-9.652999877929688,1.8830000162124632
1621852733501,-1.8200000524520872,12.085000038146973,4.831999778747559,-0.2750000059604644,-9.737000465393066,1.9079999923706057
1621852733511,-2.450000047683716,13.782999992370604,4.065000057220459,-0.1570000052452087,-9.774999618530272,1.9010000228881836
1621852733521,-2.869999885559082,15.434000015258787,3.5739998817443848,-0.1570000052452087,-9.76900005340576,1.861999988555908
1621852733531,-3.7799999713897705,16.775999069213867,2.815999984741211,-0.1180000007152557,-9.762000083923342,1.8240000009536743
1621852733541,-4.900000095367432,17.740999221801758,1.7779999971389773,-0.0780000016093254,-9.722999572753906,1.830999970436096
1621852733551,-5.809999942779541,18.84000015258789,1.190000057220459,-0.0780000016093254,-9.678000450134276,1.7990000247955322
1621852733561,-6.440000057220459,19.483999252319336,-0.0469999983906745,-0.0390000008046627,-9.593999862670898,1.77400004863739
1621852733571,-7.280000209808349,19.589000701904297,-1.4500000476837158,-0.0390000008046627,-9.593999862670898,1.77400004863739
1621852733581,-7.8400001525878915,20.233999252319336,-2.687000036239624,-0.0390000008046627,-9.663999557495115,1.7220000028610227
1621852733591,-8.539999961853027,20.805999755859375,-3.509999990463257,-0.0390000008046627,-9.663999557495115,1.7220000028610227
1621852733601,-9.100000381469728,21.645000457763672,-4.642000198364258,0.0,-9.625,1.7280000448226929
1621852733611,-9.800000190734863,22.23699951171875,-5.177000045776367,0.0,-9.586999893188477,1.7350000143051147
1621852733621,-9.835000038146973,22.51449966430664,-5.341500282287598,0.0,-9.579999923706056,1.6959999799728394
1621852733631,-9.869999885559082,22.79199981689453,-5.50600004196167,0.0390000008046627,-9.572999954223633,1.6579999923706057
1621852733641,-9.800000190734863,23.71699905395508,-5.910999774932861,0.0780000016093254,-9.477999687194824,1.7940000295639038
1621852733651,-9.729999542236328,23.940000534057617,-6.369999885559082,0.0390000008046627,-9.418999671936035,1.684999942779541
1621852733661,-9.029999732971191,24.312999725341797,-6.873000144958496,0.1180000007152557,-9.366000175476074,1.6150000095367432
1621852733671,-8.119999885559082,24.815000534057617,-7.708000183105469,0.0780000016093254,-9.352999687194824,1.5369999408721924
1621852733681,-7.280000209808349,25.698999404907227,-8.689000129699707,0.0780000016093254,-9.39099979400635,1.531000018119812
1621852733691,-6.230000019073486,26.916000366210938,-9.541000366210936,0.1180000007152557,-9.359999656677246,1.5759999752044678
1621852733701,-5.110000133514404,27.52400016784668,-10.571000099182127,0.1959999948740005,-9.39099979400635,1.531000018119812
1621852733711,-4.550000190734863,27.97800064086914,-11.130999565124512,0.1959999948740005,-9.444000244140623,1.60099995136261
1621852733721,-3.7799999713897705,28.29400062561035,-11.715000152587892,0.2750000059604644,-9.527999877929688,1.6260000467300415
1621852733731,-3.2899999618530273,28.621999740600582,-12.368000030517578,0.2750000059604644,-9.513999938964846,1.5490000247955322
1621852733741,-3.1500000953674316,28.94300079345703,-13.376999855041504,0.3529999852180481,-9.559000015258787,1.5809999704360962
1621852733751,-3.430000066757202,28.61000061035156,-13.506999969482422,0.3919999897480011,-9.590999603271484,1.5349999666213987
1621852733761,-4.480000019073486,28.59000015258789,-13.795000076293944,0.4709999859333038,-9.630000114440918,1.5279999971389773
1621852733771,-5.460000038146973,28.290000915527344,-14.913999557495115,0.4309999942779541,-9.637000083923342,1.5670000314712524
1621852733781,-6.510000228881836,28.43899917602539,-16.16699981689453,0.4309999942779541,-9.675000190734863,1.559999942779541
1621852733791,-7.9099998474121085,28.224000930786133,-16.559999465942383,0.4709999859333038,-9.675000190734863,1.559999942779541
1621852733801,-8.75,28.333999633789062,-15.972000122070312,0.4309999942779541,-9.753000259399414,1.5470000505447388
1621852733811,-8.890000343322754,27.892000198364254,-15.482000350952148,0.3919999897480011,-9.675000190734863,1.559999942779541
1621852733821,-8.960000038146973,27.17799949645996,-15.465000152587892,0.3919999897480011,-9.630000114440918,1.5279999971389773
1621852733831,-9.380000114440918,27.40999984741211,-14.357999801635742,0.4309999942779541,-9.590999603271484,1.5349999666213987
1621852733841,-9.170000076293944,26.979999542236328,-13.937000274658203,0.3529999852180481,-9.630000114440918,1.5279999971389773
1621852733851,-8.260000228881836,26.7450008392334,-14.618000030517578,0.3919999897480011,-9.585000038146973,1.496999979019165
1621852733861,-8.364999771118164,26.75900077819824,-14.899999618530272,0.4309999942779541,-9.623000144958496,1.4900000095367432
1621852733871,-8.470000267028809,26.77300071716309,-15.182000160217283,0.3919999897480011,-9.661999702453612,1.4830000400543213
1621852733881,-8.609999656677246,26.52199935913086,-15.368000030517578,0.3529999852180481,-9.899999618530272,1.4809999465942385
1621852733891,-8.539999961853027,26.05500030517578,-15.947999954223633,0.3140000104904174,-10.241000175476074,1.38100004196167
1621852733901,-8.260000228881836,25.774999618530273,-15.571000099182127,0.2750000059604644,-10.628000259399414,1.312999963760376
1621852733911,-7.210000038146973,25.593000411987305,-15.744999885559082,0.1959999948740005,-10.95699977874756,1.3739999532699585
1621852733921,-5.599999904632568,25.14699935913086,-16.03700065612793,0.1959999948740005,-10.64799976348877,1.4290000200271606
1621852733931,-3.7799999713897705,24.28700065612793,-17.610000610351562,0.2349999994039535,-10.156999588012695,1.3559999465942385
1621852733941,-4.199999809265137,23.483999252319336,-17.893999099731445,0.2349999994039535,-10.104999542236328,1.2849999666213987
1621852733951,-5.949999809265137,23.902000427246097,-15.829999923706056,0.1959999948740005,-10.112000465393066,1.3240000009536743
1621852733961,-6.159999847412109,24.003000259399418,-15.598999977111816,0.0780000016093254,-10.003000259399414,1.3830000162124634
1621852733971,-5.670000076293945,23.33799934387207,-17.066999435424805,0.0780000016093254,-9.822999954223633,1.49399995803833
1621852733981,-4.760000228881836,22.625,-15.842000007629396,0.0390000008046627,-9.815999984741213,1.4559999704360962
1621852733991,-3.990000009536743,22.19099998474121,-13.78600025177002,-0.0390000008046627,-9.862000465393066,1.4869999885559082
1621852734001,-3.1500000953674316,21.829999923706055,-13.35200023651123,-0.0780000016093254,-9.869000434875488,1.5260000228881836
1621852734011,-2.0299999713897705,21.45299911499023,-13.631999969482422,-0.1180000007152557,-9.829999923706056,1.5329999923706057
1621852734021,-1.75,21.108999252319336,-12.484000205993652,-0.1570000052452087,-9.869000434875488,1.5260000228881836
1621852734031,-1.3300000429153442,21.194000244140625,-11.758000373840332,-0.2349999994039535,-9.869000434875488,1.5260000228881836
1621852734041,-1.6100000143051147,21.059999465942383,-12.208000183105469,-0.3140000104904174,-9.791000366210936,1.5399999618530271
1621852734051,-2.380000114440918,21.233999252319336,-12.390999794006348,-0.3529999852180481,-9.809000015258787,1.4170000553131104
1621852734061,-3.2899999618530273,21.07200050354004,-12.277000427246094,-0.3919999897480011,-9.880000114440918,1.3650000095367432
1621852734071,-4.550000190734863,20.979000091552734,-13.359999656677246,-0.3919999897480011,-9.833999633789062,1.3329999446868896
1621852734081,-4.970000267028809,21.04349899291992,-14.130499839782717,-0.3919999897480011,-9.75,1.3079999685287476
1621852734091,-5.389999866485596,21.107999801635746,-14.901000022888184,-0.3919999897480011,-9.635000228881836,1.3279999494552612
1621852734101,-5.880000114440918,21.315000534057617,-16.072999954223633,-0.3919999897480011,-9.543999671936035,1.2649999856948853
1621852734111,-6.369999885559082,21.246000289916992,-16.084999084472656,-0.4309999942779541,-9.498000144958496,1.2330000400543213
1621852734121,-6.860000133514404,21.295000076293945,-15.152000427246094,-0.3919999897480011,-9.388999938964846,1.2920000553131104
1621852734131,-6.929999828338623,20.65399932861328,-14.340999603271484,-0.3919999897480011,-9.312000274658203,1.305999994277954
1621852734141,-6.860000133514404,20.17200088500977,-13.218000411987305,-0.3919999897480011,-9.343999862670898,1.2599999904632568
1621852734151,-7.139999866485596,19.198999404907227,-12.536999702453612,-0.4309999942779541,-9.38199996948242,1.253000020980835
1621852734161,-7.420000076293945,18.392000198364254,-12.395000457763672,-0.4309999942779541,-9.286999702453612,1.3899999856948853
1621852734171,-7.980000019073486,17.12299919128418,-12.050000190734863,-0.4709999859333038,-9.357000350952148,1.337000012397766
1621852734181,-7.630000114440918,16.218000411987305,-12.5649995803833,-0.4709999859333038,-9.291000366210936,1.190000057220459
1621852734191,-7.699999809265136,15.48799991607666,-13.26200008392334,-0.5099999904632568,-9.137000083923342,1.2170000076293943
1621852734201,-7.559999942779541,15.017999649047852,-14.62399959564209,-0.5099999904632568,-9.079999923706056,1.3459999561309814
1621852734211,-7.420000076293945,14.85099983215332,-15.29300022125244,-0.4709999859333038,-9.168999671936035,1.1720000505447388
1621852734221,-7.630000114440918,13.890000343322754,-15.888999938964844,-0.4309999942779541,-9.031999588012695,1.0759999752044678
1621852734231,-7.349999904632568,13.371000289916992,-15.767999649047852,-0.3919999897480011,-9.006999969482422,1.1599999666213987
1621852734241,-6.650000095367432,13.04300022125244,-15.114999771118164,-0.4309999942779541,-9.01900005340576,0.9990000128746032
1621852734251,-5.25,12.041000366210936,-13.869999885559082,-0.3919999897480011,-8.916000366210938,1.0970000028610227
1621852734261,-3.849999904632568,10.921999931335447,-12.361000061035156,-0.3919999897480011,-9.031999588012695,1.0759999752044678
1621852734271,-2.309999942779541,9.503000259399414,-10.762999534606934,-0.3919999897480011,-9.038999557495115,1.1150000095367432
1621852734281,-0.8399999737739563,8.611000061035156,-10.138999938964844,-0.3919999897480011,-9.116000175476074,1.10099995136261
1621852734291,-0.0700000002980232,7.443999767303467,-9.562999725341797,-0.4309999942779541,-9.23900032043457,1.11899995803833
1621852734301,0.2800000011920929,6.934999942779541,-9.296999931335447,-0.5099999904632568,-9.399999618530272,1.13100004196167
1621852734311,0.6299999952316284,6.426000118255615,-9.031000137329102,-0.5879999995231628,-9.51599979400635,1.1100000143051147
1621852734321,0.699999988079071,5.756999969482422,-8.864999771118164,-0.5879999995231628,-9.696000099182127,0.9990000128746032
1621852734331,0.4900000095367431,5.546000003814697,-8.47599983215332,-0.6280000209808348,-9.819000244140623,1.0169999599456787
1621852734341,-0.699999988079071,5.488999843597412,-7.348000049591064,-0.7059999704360961,-10.218999862670898,1.0260000228881836
1621852734351,-1.399999976158142,4.9710001945495605,-6.01800012588501,-0.7850000262260437,-10.256999969482422,1.0190000534057615
1621852734361,-2.0299999713897705,4.460000038146973,-4.330999851226807,-0.8240000009536743,-10.328000068664553,0.9670000076293944
1621852734371,-2.309999942779541,3.786999940872192,-2.5309998989105225,-0.8629999756813049,-10.366000175476074,0.9599999785423278
1621852734381,-2.799999952316284,2.947999954223633,-1.39900004863739,-0.9020000100135804,-10.373000144958496,0.9990000128746032
1621852734391,-2.6600000858306885,2.364000082015991,-0.5070000290870667,-0.9020000100135804,-10.29599952697754,1.0130000114440918
1621852734401,-2.5899999141693115,1.7920000553131104,0.3160000145435333,-0.981000006198883,-10.187000274658203,1.0720000267028809
1621852734411,-2.5899999141693115,1.444000005722046,0.6809999942779541,-1.0199999809265137,-10.031999588012695,1.0989999771118164
1621852734421,-1.75,1.034000039100647,0.181999996304512,-1.0199999809265137,-9.83899974822998,1.1330000162124634
1621852734431,-1.0499999523162842,0.5509999990463256,0.0970000028610229,-1.0199999809265137,-9.722999572753906,1.1529999971389773
1621852734441,-0.7699999809265136,0.3970000147819519,0.5680000185966491,-0.9409999847412108,-9.600000381469728,1.1349999904632568
1621852734451,-0.5600000023841857,-0.0610000006854534,0.3449999988079071,-0.9409999847412108,-9.562000274658203,1.1419999599456787
1621852734461,-0.5600000023841857,-0.44200000166893,-0.7179999947547911,-0.9409999847412108,-9.522999763488768,1.14900004863739
1621852734471,-0.5600000023841857,-0.9049999713897704,-1.7230000495910645,-0.9020000100135804,-9.529999732971191,1.187000036239624
1621852734481,-0.7699999809265136,-1.0989999771118164,-3.0369999408721924,-0.8629999756813049,-9.522999763488768,1.14900004863739
1621852734491,-1.3300000429153442,-1.5740000009536743,-3.973999977111816,-0.8629999756813049,-9.406999588012695,1.1690000295639038
1621852734501,-1.6100000143051147,-1.6959999799728394,-4.493000030517578,-0.8240000009536743,-9.375,1.2150000333786013
1621852734511,-1.5750000476837158,-2.138000011444092,-4.606499671936035,-0.8240000009536743,-9.369000434875488,1.1759999990463257
1621852734521,-1.5399999618530271,-2.5799999237060547,-4.71999979019165,-0.7850000262260437,-9.45300006866455,1.2009999752044678
1621852734531,-1.399999976158142,-2.628000020980835,-4.443999767303467,-0.8240000009536743,-9.569000244140623,1.180999994277954
1621852734541,-1.4700000286102295,-3.4230000972747803,-4.370999813079834,-0.8240000009536743,-9.536999702453612,1.22599995136261
1621852734551,-1.3300000429153442,-3.630000114440918,-5.616000175476074,-0.7850000262260437,-9.45300006866455,1.2009999752044678
1621852734561,-1.6799999475479126,-3.7070000171661377,-5.985000133514404,-0.7450000047683715,-9.536999702453612,1.22599995136261
1621852734571,-2.309999942779541,-3.5889999866485596,-5.039999961853027,-0.7059999704360961,-9.6850004196167,1.1599999666213987
1621852734581,-3.2899999618530273,-3.8080000877380367,-3.799000024795532,-0.6669999957084655,-9.961999893188477,1.1510000228881836
1621852734591,-3.6400001049041744,-4.26200008392334,-3.239000082015991,-0.6669999957084655,-10.578000068664553,0.8040000200271606
1621852734601,-4.199999809265137,-4.435999870300293,-1.8480000495910645,-0.6669999957084655,-11.281999588012695,0.9580000042915344
1621852734611,-1.0499999523162842,-6.058000087738037,0.4959999918937683,-0.7850000262260437,-10.343000411987305,1.2829999923706057
1621852734621,-0.8399999737739563,-9.031000137329102,-4.008999824523926,-0.7850000262260437,-9.085000038146973,1.1469999551773071
1621852734631,-4.199999809265137,-8.706999778747559,-5.445000171661377,-0.6280000209808348,-8.928000450134277,0.9350000023841856
1621852734641,-6.579999923706055,-5.785999774932861,0.9700000286102294,-0.5490000247955322,-9.572999954223633,0.981000006198883
1621852734651,-8.329999923706055,-5.302999973297119,4.679999828338623,-0.6280000209808348,-10.071000099182127,1.0920000076293943
1621852734661,-8.399999618530273,-8.222999572753906,0.6819999814033508,-0.7450000047683715,-10.071000099182127,1.0920000076293943
1621852734671,-6.860000133514404,-10.619999885559082,-2.6549999713897705,-0.5879999995231628,-9.83899974822998,1.1330000162124634
1621852734681,-6.369999885559082,-11.265000343322754,-0.2090000063180923,-0.5099999904632568,-9.638999938964846,1.128000020980835
1621852734691,-6.369999885559082,-11.758999824523926,2.190999984741211,-0.5879999995231628,-9.569000244140623,1.180999994277954
1621852734701,-5.845000267028809,-12.436500549316406,1.3964999914169312,-0.7059999704360961,-9.45300006866455,1.2009999752044678
1621852734711,-5.320000171661377,-13.11400032043457,0.6019999980926513,-0.7059999704360961,-9.491000175476074,1.194000005722046
1621852734721,-4.550000190734863,-13.515000343322754,-0.7480000257492065,-0.6669999957084655,-9.607000350952148,1.1740000247955322
1621852734731,-4.480000019073486,-13.475000381469728,-0.1720000058412551,-0.6280000209808348,-9.690999984741213,1.1990000009536743
1621852734741,-4.130000114440918,-13.232000350952148,-1.5509999990463257,-0.6280000209808348,-9.76900005340576,1.184999942779541
1621852734751,-4.059999942779541,-13.970000267028809,-5.021999835968018,-0.5490000247955322,-9.800000190734863,1.1399999856948853
1621852734761,-4.690000057220459,-15.017000198364258,-6.343999862670898,-0.3919999897480011,-9.76900005340576,1.184999942779541
1621852734771,-6.230000019073486,-16.090999603271484,-7.1020002365112305,-0.2750000059604644,-9.762000083923342,1.1469999551773071
1621852734781,-7.210000038146973,-18.038000106811523,-9.364999771118164,-0.1959999948740005,-9.67099952697754,1.0829999446868896
1621852734791,-7.769999980926514,-20.000999450683594,-11.131999969482422,-0.1180000007152557,-9.579999923706056,1.0190000534057615
1621852734801,-8.1899995803833,-22.13400077819824,-11.9350004196167,0.0,-9.48900032043457,0.955999970436096
1621852734811,-8.399999618530273,-24.570999145507812,-12.222000122070312,0.1180000007152557,-9.451000213623049,0.9629999995231628
1621852734821,-8.819999694824219,-28.357999801635746,-12.107999801635742,0.3919999897480011,-9.380000114440918,1.0149999856948853
1621852734831,-8.609999656677246,-32.75,-11.390000343322754,0.5099999904632568,-9.347999572753906,1.059999942779541
1621852734841,-8.539999961853027,-37.68399810791016,-9.20400047302246,0.5490000247955322,-9.354999542236328,1.0989999771118164
1621852734851,-7.980000019073486,-43.417999267578125,-6.51800012588501,0.5490000247955322,-9.387000083923342,1.0529999732971191
1621852734861,-7.559999942779541,-48.53900146484375,-4.080999851226807,0.4709999859333038,-9.387000083923342,1.0529999732971191
1621852734871,-7.139999866485596,-53.375999450683594,-2.446000099182129,0.3919999897480011,-9.347999572753906,1.059999942779541
1621852734881,-6.894999980926514,-55.62049865722656,-1.811000108718872,0.2349999994039535,-9.347999572753906,1.059999942779541
1621852734891,-6.650000095367432,-57.8650016784668,-1.1759999990463257,0.1180000007152557,-9.277999877929688,1.1119999885559082
1621852734901,-5.739999771118164,-61.18600082397461,-0.4819999933242797,0.0390000008046627,-9.23900032043457,1.11899995803833
1621852734911,-4.409999847412109,-64.10900115966797,-0.4289999902248382,-0.0780000016093254,-9.28499984741211,1.1510000228881836
1621852734921,-3.009999990463257,-66.19400024414062,-1.506999969482422,-0.1570000052452087,-9.315999984741213,1.1059999465942385
1621852734931,-1.6100000143051147,-67.0979995727539,-3.2309999465942383,-0.1180000007152557,-9.446000099182127,1.1619999408721924
1621852734941,0.2800000011920929,-67.63800048828125,-5.814000129699707,-0.0780000016093254,-9.562000274658203,1.1419999599456787
1621852734951,1.8200000524520872,-67.41899871826172,-8.262999534606934,0.0,-9.76900005340576,1.184999942779541
1621852734961,2.380000114440918,-67.50499725341797,-10.196999549865724,0.1180000007152557,-9.883999824523924,1.1649999618530271
1621852734971,1.8899999856948853,-67.91000366210938,-11.121000289916992,0.1959999948740005,-9.954999923706056,1.1130000352859497
1621852734981,0.7699999809265136,-68.81900024414062,-11.211000442504885,0.3140000104904174,-9.991000175476074,0.8669999837875366
1621852734991,-1.0499999523162842,-69.29299926757812,-10.939000129699709,0.3529999852180481,-9.965999603271484,0.9509999752044676
1621852735001,-2.5199999809265137,-70.31900024414062,-9.555999755859377,0.3140000104904174,-9.875,0.8880000114440918
1621852735011,-3.5,-71.63700103759766,-7.7270002365112305,0.2750000059604644,-9.760000228881836,0.9079999923706054
1621852735021,-4.409999847412109,-72.74700164794922,-5.861000061035156,0.2750000059604644,-9.612000465393066,0.9739999771118164
1621852735031,-4.96999979019165,-73.60700225830078,-3.809999942779541,0.2750000059604644,-9.451000213623049,0.9629999995231628
1621852735041,-4.550000190734863,-74.59600067138672,-1.4249999523162842,0.1959999948740005,-9.25699996948242,0.996999979019165
1621852735051,-3.009999990463257,-75.00900268554688,0.9190000295639038,0.1180000007152557,-9.14099979400635,1.0169999599456787
1621852735061,-2.065000057220459,-75.17500305175781,2.0625,0.0390000008046627,-9.071000099182127,1.069000005722046
1621852735071,-1.1200000047683716,-75.34100341796875,3.2060000896453857,-0.0390000008046627,-9.071000099182127,1.069000005722046
1621852735081,1.0499999523162842,-75.45899963378906,4.677999973297119,-0.0780000016093254,-9.090999603271484,1.184999942779541
1621852735091,3.569999933242798,-75.2030029296875,5.646999835968018,-0.1180000007152557,-9.182000160217283,1.2489999532699585
1621852735101,5.949999809265137,-75.11399841308594,5.947000026702881,-0.1570000052452087,-9.272999763488768,1.312000036239624
1621852735110,7.769999980926514,-74.93099975585938,6.120999813079834,-0.2750000059604644,-9.371000289916992,1.4149999618530271
1621852735120,8.960000038146973,-74.41600036621094,5.2170000076293945,-0.3140000104904174,-9.40999984741211,1.4079999923706057
1621852735130,10.289999961853027,-73.34200286865236,3.558000087738037,-0.3919999897480011,-9.50699996948242,1.5099999904632568
1621852735140,11.6899995803833,-71.48899841308594,1.1130000352859497,-0.3919999897480011,-9.585000038146973,1.496999979019165
1621852735150,12.390000343322754,-69.38500213623047,-1.1460000276565552,-0.4709999859333038,-9.637000083923342,1.5670000314712524
1621852735160,13.789999961853027,-66.84300231933594,-3.4700000286102295,-0.5490000247955322,-9.637000083923342,1.5670000314712524
1621852735170,14.699999809265137,-64.04100036621094,-5.25,-0.5490000247955322,-9.720999717712402,1.5920000076293943
1621852735180,15.329999923706056,-61.09299850463867,-6.650000095367432,-0.5879999995231628,-9.758999824523924,1.5850000381469729
1621852735190,15.81999969482422,-57.71599960327149,-7.263000011444091,-0.6669999957084655,-9.720999717712402,1.5920000076293943
1621852735200,16.59000015258789,-54.301998138427734,-8.081999778747559,-0.6280000209808348,-9.637000083923342,1.5670000314712524
1621852735210,17.709999084472656,-50.84299850463867,-8.751999855041504,-0.6280000209808348,-9.553000450134276,1.5420000553131104
1621852735220,18.899999618530273,-46.81999969482422,-9.392999649047852,-0.6669999957084655,-9.461999893188477,1.4780000448226929
1621852735230,20.510000228881836,-42.40399932861328,-10.24899959564209,-0.7450000047683715,-9.33199977874756,1.4220000505447388
1621852735240,22.540000915527344,-38.000999450683594,-11.03600025177002,-0.7450000047683715,-9.255000114440918,1.434999942779541
1621852735250,23.450000762939453,-35.371498107910156,-11.638999938964844,-0.7450000047683715,-9.20300006866455,1.3650000095367432
1621852735260,24.36000061035156,-32.742000579833984,-12.241999626159668,-0.7059999704360961,-9.248000144958496,1.3969999551773071
1621852735270,26.31999969482422,-27.400999069213867,-13.503000259399414,-0.6280000209808348,-9.314000129699709,1.5440000295639038
1621852735280,27.510000228881836,-22.445999145507812,-14.192999839782717,-0.5099999904632568,-9.437000274658203,1.562000036239624
1621852735290,28.06999969482422,-18.05900001525879,-13.277999877929688,-0.4309999942779541,-9.496000289916992,1.6710000038146973
1621852735300,28.559999465942383,-14.392999649047852,-11.494000434875488,-0.3140000104904174,-9.508999824523924,1.7489999532699585
1621852735310,28.6299991607666,-11.277999877929688,-9.807000160217283,-0.2349999994039535,-9.522999763488768,1.825999975204468
1621852735320,28.350000381469727,-8.744000434875488,-8.86299991607666,-0.1570000052452087,-9.484000205993652,1.8329999446868896
1621852735330,28.280000686645508,-6.22599983215332,-8.631999969482422,-0.0780000016093254,-9.38199996948242,1.930999994277954
1621852735340,28.700000762939453,-3.901999950408935,-8.506999969482422,-0.0390000008046627,-9.279999732971191,2.0280001163482666
1621852735350,29.61000061035156,-2.2269999980926514,-9.13599967956543,0.0,-9.262000083923342,2.1510000228881836
1621852735360,30.100000381469727,-0.6420000195503234,-10.064000129699709,0.0,-9.366000175476074,2.2920000553131104
1621852735370,30.309999465942383,1.0199999809265137,-10.62399959564209,-0.0390000008046627,-9.51599979400635,2.4649999141693115
1621852735380,29.68000030517578,2.884999990463257,-11.93000030517578,-0.0780000016093254,-9.690999984741213,2.552999973297119
1621852735390,28.280000686645508,5.613999843597412,-13.296999931335447,-0.1180000007152557,-9.743000030517578,2.624000072479248
1621852735400,26.31999969482422,8.902999877929688,-14.210000038146973,-0.1570000052452087,-9.82699966430664,2.6489999294281006
1621852735410,24.43000030517578,12.38599967956543,-13.809000015258787,-0.1959999948740005,-9.880000114440918,2.7190001010894775
1621852735420,22.540000915527344,16.259000778198242,-13.196999549865724,-0.2750000059604644,-9.854999542236328,2.802999973297119
1621852735430,21.73500061035156,18.15449905395508,-12.86299991607666,-0.2750000059604644,-9.770999908447264,2.7780001163482666
1621852735440,20.93000030517578,20.049999237060547,-12.529000282287598,-0.3919999897480011,-9.623000144958496,2.8440001010894775
1621852735450,19.8799991607666,24.323999404907227,-11.774999618530272,-0.5490000247955322,-9.559000015258787,2.934999942779541
1621852735460,19.530000686645508,28.5049991607666,-10.895999908447266,-0.6669999957084655,-9.72700023651123,2.984999895095825
1621852735470,19.18000030517578,33.43600082397461,-10.23900032043457,-0.7059999704360961,-9.954999923706056,3.1440000534057617
1621852735480,18.270000457763672,38.91400146484375,-10.269000053405762,-0.7450000047683715,-10.097999572753906,3.2780001163482666
1621852735490,16.239999771118164,45.19100189208984,-10.796999931335447,-0.7059999704360961,-10.142999649047852,3.309999942779541
1621852735500,13.510000228881836,51.95899963378906,-12.090999603271484,-0.5879999995231628,-10.086000442504885,3.438999891281128
1621852735510,10.289999961853027,58.30500030517578,-12.607000350952148,-0.5879999995231628,-9.932000160217283,3.4670000076293945
1621852735520,7.0,63.970001220703125,-12.887999534606934,-0.5490000247955322,-9.815999984741213,3.486999988555908
1621852735530,4.550000190734863,69.16400146484375,-12.11400032043457,-0.4709999859333038,-9.784000396728516,3.5329999923706055
1621852735540,2.799999952316284,73.58799743652344,-11.404999732971191,-0.3529999852180481,-9.692999839782717,3.4690001010894775
1621852735550,1.399999976158142,77.4729995727539,-10.862000465393066,-0.2349999994039535,-9.64099979400635,3.3980000019073486
1621852735560,0.209999993443489,80.90399932861328,-9.758999824523924,-0.1959999948740005,-9.574999809265137,3.250999927520752
1621852735570,-1.190000057220459,83.2760009765625,-9.90999984741211,-0.1959999948740005,-9.562000274658203,3.174000024795532
1621852735580,-2.380000114440918,85.23799896240233,-10.559000015258787,-0.1959999948740005,-9.55500030517578,3.134999990463257
1621852735590,-3.2899999618530273,86.89299774169922,-11.47599983215332,-0.2349999994039535,-9.541000366210936,3.058000087738037
1621852735600,-4.269999980926514,89.06199645996094,-13.296999931335447,-0.3140000104904174,-9.411999702453612,3.000999927520752
1621852735610,-4.409999847412109,91.02400207519533,-15.154000282287598,-0.2349999994039535,-9.218000411987305,3.0350000858306885
1621852735620,-3.9549999237060542,92.22450256347656,-16.114999771118164,-0.2349999994039535,-9.18000030517578,3.0420000553131104
1621852735630,-3.5,93.4250030517578,-17.076000213623047,-0.2349999994039535,-9.211999893188477,2.996000051498413
1621852735640,-2.799999952316284,95.1760025024414,-18.545000076293945,-0.3140000104904174,-9.321000099182127,2.937000036239624
1621852735650,-2.240000009536743,96.76200103759764,-18.26499938964844,-0.3529999852180481,-9.475000381469728,2.9100000858306885
1621852735660,-2.0299999713897705,98.08399963378906,-18.10300064086914,-0.4309999942779541,-9.612000465393066,3.005000114440918
1621852735670,-3.0799999237060547,100.25299835205078,-18.715999603271484,-0.3919999897480011,-9.772999763488768,3.0169999599456787
1621852735680,-5.110000133514404,102.67400360107422,-19.142000198364254,-0.3919999897480011,-9.779999732971191,3.055000066757202
1621852735690,-7.349999904632568,105.43499755859376,-20.290000915527344,-0.3919999897480011,-9.817999839782717,3.049000024795532
1621852735700,-9.3100004196167,107.46199798583984,-21.708999633789062,-0.3140000104904174,-9.817999839782717,3.049000024795532
1621852735710,-11.340000152587892,109.40499877929688,-22.645999908447266,-0.2750000059604644,-9.734000205993652,3.0239999294281006
1621852735720,-13.020000457763672,110.61699676513672,-23.07200050354004,-0.1959999948740005,-9.559000015258787,2.934999942779541
1621852735730,-14.350000381469728,111.78099822998048,-23.222000122070312,-0.1570000052452087,-9.513999938964846,2.9030001163482666
1621852735740,-15.609999656677246,111.83699798583984,-23.141000747680664,-0.0780000016093254,-9.345999717712402,2.8529999256134033
1621852735750,-15.960000038146973,111.63899993896484,-22.820999145507812,-0.0390000008046627,-9.248000144958496,2.750999927520752
1621852735760,-15.68000030517578,110.13899993896484,-22.375,0.0,-9.241000175476074,2.711999893188477
1621852735770,-15.050000190734863,108.55699920654295,-21.871999740600582,-0.0390000008046627,-9.234000205993652,2.674000024795532
1621852735780,-14.279999732971191,107.3000030517578,-21.59600067138672,0.0,-9.258999824523924,2.5889999866485596
1621852735790,-13.649999618530272,105.70700073242188,-21.02400016784668,0.0,-9.284000396728516,2.505000114440918
1621852735800,-13.300000190734863,104.58300018310548,-21.506000518798828,0.0,-9.354999542236328,2.453000068664551
1621852735810,-13.020000457763672,103.29399871826172,-21.448999404907227,0.0,-9.387000083923342,2.4079999923706055
1621852735820,-12.880000114440918,102.0530014038086,-21.667999267578125,0.0,-9.46399974822998,2.3940000534057617
1621852735830,-13.159999847412108,101.06550598144533,-21.913000106811523,0.0,-9.45699977874756,2.3550000190734863
1621852735840,-13.4399995803833,100.0780029296875,-22.15800094604492,-0.0390000008046627,-9.527999877929688,2.302999973297119
1621852735850,-14.210000038146973,98.16400146484376,-22.993000030517575,0.0,-9.559000015258787,2.2579998970031734
1621852735860,-15.119999885559082,96.27400207519533,-22.757999420166016,-0.0390000008046627,-9.553000450134276,2.2190001010894775
1621852735870,-15.960000038146973,94.97699737548828,-23.058000564575195,-0.0390000008046627,-9.50699996948242,2.187000036239624
1621852735880,-16.940000534057617,93.73600006103516,-23.277000427246097,-0.0780000016093254,-9.487000465393066,2.071000099182129
1621852735890,-17.290000915527344,92.44200134277344,-24.00200080871582,-0.0780000016093254,-9.395999908447264,2.0079998970031734
1621852735900,-17.149999618530273,91.33499908447264,-24.979000091552734,-0.0780000016093254,-9.343999862670898,1.937000036239624
1621852735910,-16.65999984741211,90.18800354003906,-25.323999404907227,-0.1180000007152557,-9.375,1.8919999599456787
1621852735920,-16.239999771118164,88.86599731445312,-25.486000061035156,-0.1180000007152557,-9.399999618530272,1.8079999685287476
1621852735930,-15.68000030517578,87.6729965209961,-25.979999542236328,-0.1570000052452087,-9.439000129699709,1.8009999990463257
1621852735940,-15.1899995803833,86.6520004272461,-26.23200035095215,-0.1959999948740005,-9.425000190734863,1.7239999771118164
1621852735950,-14.489999771118164,85.93000030517578,-26.57200050354004,-0.1570000052452087,-9.449999809265137,1.6399999856948853
1621852735960,-13.720000267028809,85.52400207519531,-27.496999740600582,-0.1959999948740005,-9.559000015258787,1.5809999704360962
1621852735970,-13.300000190734863,84.84300231933594,-27.26099967956543,-0.2349999994039535,-9.623000144958496,1.4900000095367432
1621852735980,-13.300000190734863,84.35199737548828,-27.70299911499023,-0.2750000059604644,-9.694000244140623,1.437000036239624
1621852735990,-13.649999618530272,84.5510025024414,-28.02400016784668,-0.3140000104904174,-9.732000350952148,1.430999994277954
1621852736000,-14.06999969482422,85.01699829101562,-28.652000427246097,-0.3140000104904174,-9.725000381469728,1.3919999599456787
1621852736010,-14.770000457763672,85.7020034790039,-29.312999725341797,-0.2750000059604644,-9.68000030517578,1.3600000143051147
1621852736020,-15.1899995803833,85.78299713134764,-29.3700008392334,-0.1959999948740005,-9.68000030517578,1.3600000143051147
1621852736030,-15.960000038146973,85.70600128173828,-28.531000137329105,-0.1180000007152557,-9.67300033569336,1.3220000267028809
1621852736040,-15.960000038146973,84.72899627685547,-27.423999786376953,-0.0390000008046627,-9.666000366210936,1.2829999923706057
1621852736050,-16.065000534057617,84.29949951171875,-27.001998901367188,0.0,-9.652999877929688,1.2059999704360962
1621852736060,-16.170000076293945,83.87000274658203,-26.579999923706055,0.0390000008046627,-9.600000381469728,1.1349999904632568
1621852736070,-16.170000076293945,82.32099914550781,-25.857999801635746,0.1180000007152557,-9.51599979400635,1.1100000143051147
1621852736080,-15.81999969482422,81.13300323486328,-25.56999969482422,0.1180000007152557,-9.51599979400635,1.1100000143051147
1621852736090,-14.979999542236328,79.50299835205078,-24.791000366210938,0.1959999948740005,-9.46399974822998,1.0399999618530271
1621852736100,-14.350000381469728,77.26399993896484,-24.19099998474121,0.2750000059604644,-9.482000350952148,0.9169999957084656
1621852736110,-13.300000190734863,75.34200286865236,-24.173999786376953,0.2750000059604644,-9.482000350952148,0.9169999957084656
1621852736120,-12.600000381469728,73.12799835205078,-23.711999893188477,0.2750000059604644,-9.47599983215332,0.8780000209808348
1621852736130,-11.6899995803833,71.08499908447266,-23.006000518798828,0.3140000104904174,-9.482000350952148,0.9169999957084656
1621852736140,-10.920000076293944,69.23200225830078,-22.97699928283691,0.3529999852180481,-9.513999938964846,0.871999979019165
1621852736150,-9.729999542236328,67.33799743652344,-22.31599998474121,0.3919999897480011,-9.513999938964846,0.871999979019165
1621852736160,-9.170000076293944,65.39600372314453,-21.378999710083008,0.3919999897480011,-9.538999557495115,0.7879999876022338
1621852736170,-8.819999694824219,63.547000885009766,-20.56800079345703,0.3919999897480011,-9.564000129699709,0.703000009059906
1621852736180,-8.609999656677246,61.17100143432618,-19.992000579833984,0.4709999859333038,-9.635000228881836,0.6510000228881835
1621852736190,-8.680000305175781,59.2239990234375,-19.836999893188477,0.5099999904632568,-9.635000228881836,0.6510000228881835
1621852736200,-8.399999618530273,57.05500030517578,-19.225000381469727,0.5879999995231628,-9.635000228881836,0.6510000228881835
1621852736210,-8.050000190734863,54.67100143432618,-19.0049991607666,0.6280000209808348,-9.595999717712402,0.6579999923706054
1621852736220,-7.070000171661377,52.391998291015625,-18.981000900268555,0.6669999957084655,-9.621000289916992,0.5740000009536743
1621852736230,-6.369999885559082,49.78499984741211,-18.30299949645996,0.7059999704360961,-9.543999671936035,0.5879999995231628
1621852736240,-5.320000171661377,47.18600082397461,-17.268999099731445,0.7450000047683715,-9.557000160217283,0.6650000214576721
1621852736250,-4.690000057220459,44.22100067138672,-16.58300018310547,0.7850000262260437,-9.67300033569336,0.6439999938011169
1621852736260,-3.7799999713897705,40.880001068115234,-16.177000045776367,0.8629999756813049,-9.635000228881836,0.6510000228881835
1621852736270,-3.53499984741211,39.19300079345703,-16.083499908447266,0.8629999756813049,-9.628000259399414,0.6129999756813049
1621852736280,-3.2899999618530273,37.506000518798835,-15.989999771118164,0.9409999847412108,-9.67300033569336,0.6439999938011169
1621852736290,-3.430000066757202,34.180999755859375,-16.07900047302246,0.981000006198883,-9.666000366210936,0.606000006198883
1621852736300,-3.7100000381469727,30.933000564575195,-15.79800033569336,0.981000006198883,-9.737000465393066,0.5540000200271606
1621852736310,-4.269999980926514,27.66900062561035,-16.23200035095215,0.9409999847412108,-9.776000022888184,0.5469999909400939
1621852736320,-5.460000038146973,24.749000549316406,-16.604999542236328,0.981000006198883,-9.776000022888184,0.5469999909400939
1621852736330,-6.090000152587891,21.392000198364254,-16.91200065612793,0.9409999847412108,-9.737000465393066,0.5540000200271606
1621852736340,-7.210000038146973,18.53700065612793,-16.847000122070312,0.981000006198883,-9.744000434875488,0.5920000076293945
1621852736350,-7.630000114440918,15.175999641418455,-15.520999908447266,1.0199999809265137,-9.697999954223633,0.5600000023841857
1621852736360,-7.699999809265136,12.12600040435791,-14.35200023651123,1.0199999809265137,-9.704999923706056,0.5989999771118164
1621852736370,-7.489999771118165,9.276000022888184,-13.503999710083008,0.9409999847412108,-9.61400032043457,0.5350000262260437
1621852736380,-7.139999866485596,6.376999855041504,-13.58899974822998,0.9020000100135804,-9.61400032043457,0.5350000262260437
1621852736390,-6.510000228881836,4.0329999923706055,-12.793999671936035,0.8629999756813049,-9.61400032043457,0.5350000262260437
1621852736400,-5.460000038146973,1.6690000295639038,-12.286999702453612,0.8629999756813049,-9.6850004196167,0.4830000102519989
1621852736410,-4.96999979019165,-0.6340000033378601,-12.12399959564209,0.8629999756813049,-9.722999572753906,0.4760000109672546
1621852736420,-4.550000190734863,-2.8929998874664307,-11.812000274658203,0.8240000009536743,-9.762000083923342,0.4690000116825103
1621852736430,-4.760000228881836,-4.466000080108643,-12.159999847412108,0.7850000262260437,-9.800999641418455,0.4629999995231628
1621852736440,-4.829999923706055,-6.129000186920166,-11.600000381469728,0.7850000262260437,-9.76900005340576,0.5080000162124633
1621852736450,-4.760000228881836,-7.389999866485595,-12.107000350952148,0.7850000262260437,-9.762000083923342,0.4690000116825103
1621852736460,-4.550000190734863,-8.416000366210938,-11.93299961090088,0.7059999704360961,-9.755000114440918,0.4309999942779541
1621852736470,-4.409999847412109,-9.373000144958496,-11.746000289916992,0.6669999957084655,-9.748000144958496,0.3919999897480011
1621852736480,-4.199999809265137,-9.916000366210936,-11.486000061035156,0.6669999957084655,-9.814000129699709,0.5400000214576721
1621852736490,-3.989999771118164,-10.025500297546388,-11.470000267028809,0.6280000209808348,-9.885000228881836,0.4880000054836273
1621852736500,-3.7799999713897705,-10.135000228881836,-11.45400047302246,0.5879999995231628,-9.852999687194824,0.5329999923706054
1621852736510,-3.7799999713897705,-10.458999633789062,-11.22700023651123,0.4709999859333038,-9.83899974822998,0.4560000002384185
1621852736520,-4.130000114440918,-10.211999893188477,-10.614999771118164,0.5099999904632568,-9.878000259399414,0.4490000009536743
1621852736530,-4.480000019073486,-9.95199966430664,-10.071000099182127,0.4709999859333038,-9.916000366210936,0.44200000166893
1621852736540,-4.900000095367432,-9.262999534606934,-9.949999809265137,0.4309999942779541,-9.90999984741211,0.4040000140666961
1621852736550,-5.739999771118164,-8.27400016784668,-9.916999816894531,0.3919999897480011,-9.940999984741213,0.3580000102519989
1621852736560,-6.579999923706055,-7.775000095367432,-10.32699966430664,0.3529999852180481,-9.972999572753906,0.3129999935626983
1621852736570,-7.420000076293945,-7.110000133514404,-10.067999839782717,0.3919999897480011,-9.9350004196167,0.3199999928474426
1621852736580,-8.539999961853027,-6.204999923706055,-9.553000450134276,0.3529999852180481,-9.88199996948242,0.248999997973442
1621852736590,-9.380000114440918,-4.815000057220459,-9.378999710083008,0.3919999897480011,-9.843999862670898,0.2560000121593475
1621852736600,-9.520000457763674,-4.125,-9.25699996948242,0.4309999942779541,-9.829999923706056,0.1790000051259994
1621852736610,-9.239999771118164,-3.3429999351501465,-9.26099967956543,0.4309999942779541,-9.836999893188477,0.2169999927282333
1621852736620,-9.239999771118164,-2.6610000133514404,-9.496000289916992,0.5490000247955322,-9.732000350952148,0.0759999975562095
1621852736630,-8.960000038146973,-1.8789999485015867,-9.50100040435791,0.5099999904632568,-9.616999626159668,0.0970000028610229
1621852736640,-8.1899995803833,-1.437000036239624,-9.991000175476074,0.5879999995231628,-9.592000007629396,0.1809999942779541
1621852736650,-7.420000076293945,-1.14900004863739,-10.01200008392334,0.5490000247955322,-9.592000007629396,0.1809999942779541
1621852736660,-6.510000228881836,-0.6460000276565551,-9.638999938964846,0.5490000247955322,-9.661999702453612,0.1289999932050705
1621852736670,-5.389999866485596,-0.2849999964237213,-10.072999954223633,0.5490000247955322,-9.73900032043457,0.1150000020861625
1621852736680,-5.110000133514404,-0.7549999952316284,-9.017999649047852,0.5490000247955322,-9.777999877929688,0.1080000028014183
1621852736690,-4.829999923706055,-0.5770000219345092,-8.418000221252441,0.5879999995231628,-9.777999877929688,0.1080000028014183
1621852736700,-5.110000133514404,-0.7189999818801879,-8.017000198364258,0.5879999995231628,-9.777999877929688,0.1080000028014183
1621852736710,-5.670000076293945,-1.128000020980835,-7.307000160217285,0.6280000209808348,-9.770999908447264,0.0700000002980232
1621852736720,-5.775000095367432,-0.9945000410079956,-6.857000350952148,0.6669999957084655,-9.732000350952148,0.0759999975562095
1621852736730,-5.880000114440918,-0.8610000014305114,-6.4070000648498535,0.6280000209808348,-9.694000244140623,0.0829999968409538
1621852736740,-5.809999942779541,-0.865000009536743,-5.980999946594238,0.5879999995231628,-9.647999763488768,0.0509999990463256
1621852736750,-5.809999942779541,-1.00600004196167,-5.579999923706055,0.5879999995231628,-9.57800006866455,0.1040000021457672
1621852736760,-5.039999961853027,-1.468999981880188,-5.376999855041504,0.5879999995231628,-9.571000099182127,0.0649999976158142
1621852736770,-4.619999885559082,-1.861999988555908,-5.1620001792907715,0.5879999995231628,-9.531999588012695,0.0719999969005584
1621852736779,-3.9200000762939458,-2.1500000953674316,-5.140999794006348,0.6280000209808348,-9.538999557495115,0.1099999994039535
1621852736790,-3.009999990463257,-2.6689999103546143,-5.019999980926514,0.5879999995231628,-9.461999893188477,0.123999997973442
1621852736800,-2.0299999713897705,-3.4639999866485596,-4.947000026702881,0.4709999859333038,-9.487000465393066,0.0399999991059303
1621852736809,-0.9800000190734864,-3.6700000762939458,-4.982999801635742,0.4309999942779541,-9.526000022888184,0.032999999821186
1621852736819,0.2800000011920929,-3.9300000667572026,-5.526000022888184,0.4309999942779541,-9.494000434875488,0.0790000036358833
1621852736829,1.4700000286102295,-4.340000152587891,-6.025000095367432,0.4709999859333038,-9.461999893188477,0.123999997973442
1621852736839,2.7300000190734863,-4.960000038146973,-6.135000228881836,0.3919999897480011,-9.538999557495115,0.1099999994039535
1621852736849,3.7100000381469727,-4.839000225067139,-6.823999881744385,0.3919999897480011,-9.531999588012695,0.0719999969005584
1621852736859,4.829999923706055,-4.681000232696533,-7.719999790191651,0.3529999852180481,-9.538999557495115,0.1099999994039535
1621852736869,5.320000171661377,-4.177999973297119,-8.555000305175781,0.3140000104904174,-9.630000114440918,0.1739999949932098
1621852736879,5.949999809265137,-3.6019999980926514,-9.803999900817873,0.3140000104904174,-9.675999641418455,0.2060000002384185
1621852736889,6.579999923706055,-3.013999938964844,-11.121999740600586,0.3140000104904174,-9.760000228881836,0.231000006198883
1621852736899,6.860000133514404,-1.993000030517578,-12.079999923706056,0.4709999859333038,-9.741000175476074,0.3540000021457672
1621852736909,6.71999979019165,-0.9100000262260436,-13.380999565124512,0.4309999942779541,-9.734999656677246,0.3149999976158142
1621852736919,6.579999923706055,-0.1969999969005584,-14.605999946594238,0.4309999942779541,-9.786999702453612,0.3849999904632568
1621852736929,6.369999885559082,0.5609999895095825,-15.680999755859377,0.4709999859333038,-9.826000213623049,0.3790000081062316
1621852736939,5.880000114440918,1.5390000343322754,-16.788000106811523,0.4709999859333038,-9.779999732971191,0.3470000028610229
1621852736949,5.599999904632568,2.7709999084472656,-18.13400077819824,0.4709999859333038,-9.779999732971191,0.3470000028610229
1621852736959,5.355000019073486,2.9555001258850098,-18.777000427246097,0.4709999859333038,-9.786999702453612,0.3849999904632568
1621852736969,5.110000133514404,3.140000104904175,-19.420000076293945,0.5490000247955322,-9.86400032043457,0.3720000088214874
1621852736979,4.340000152587891,3.318000078201294,-20.027999877929688,0.5490000247955322,-9.940999984741213,0.3580000102519989
1621852736989,3.359999895095825,4.197999954223633,-20.583999633789062,0.5879999995231628,-9.972999572753906,0.3129999935626983
1621852736999,2.380000114440918,4.85099983215332,-20.2549991607666,0.6280000209808348,-9.965999603271484,0.2739999890327453
1621852737009,1.399999976158142,5.296999931335449,-19.96299934387207,0.6669999957084655,-9.940999984741213,0.3580000102519989
1621852737019,0.2800000011920929,5.763000011444092,-19.38400077819824,0.6669999957084655,-9.9350004196167,0.3199999928474426
1621852737029,-0.8399999737739563,6.242000102996826,-18.87299919128418,0.7059999704360961,-9.902999877929688,0.3650000095367431
1621852737039,-1.399999976158142,6.781000137329102,-18.707000732421875,0.7059999704360961,-9.86400032043457,0.3720000088214874
1621852737049,-1.6100000143051147,7.045000076293945,-18.589000701904297,0.7450000047683715,-9.85099983215332,0.2949999868869781
1621852737059,-1.3300000429153442,7.441999912261963,-18.020999908447266,0.7850000262260437,-9.819000244140623,0.3400000035762786
1621852737069,-0.699999988079071,7.690000057220459,-17.409000396728516,0.7850000262260437,-9.779999732971191,0.3470000028610229
1621852737079,-0.6299999952316284,8.005999565124512,-16.78499984741211,0.8629999756813049,-9.786999702453612,0.3849999904632568
1621852737089,-0.7699999809265136,8.13599967956543,-15.909000396728516,0.9020000100135804,-9.826000213623049,0.3790000081062316
1621852737099,-0.8399999737739563,8.574000358581543,-14.765000343322754,0.9409999847412108,-9.819000244140623,0.3400000035762786
1621852737109,-0.6299999952316284,8.79699993133545,-14.015000343322754,0.981000006198883,-9.779999732971191,0.3470000028610229
1621852737119,-1.190000057220459,8.729000091552734,-12.819000244140623,0.981000006198883,-9.812000274658203,0.3009999990463256
1621852737129,-1.75,9.005000114440918,-11.562000274658203,0.981000006198883,-9.80500030517578,0.2630000114440918
1621852737139,-2.1700000762939453,8.319000244140625,-10.901000022888184,1.0199999809265137,-9.76599979400635,0.2689999938011169
1621852737149,-2.5899999141693115,8.125,-9.79800033569336,1.0199999809265137,-9.76599979400635,0.2689999938011169
1621852737159,-2.7300000190734863,7.791999816894531,-8.718999862670898,1.0590000152587893,-9.760000228881836,0.231000006198883
1621852737169,-2.7300000190734863,7.066999912261963,-7.426000118255616,1.0980000495910645,-9.720999717712402,0.2380000054836273
1621852737179,-2.7300000190734863,6.576000213623047,-6.658999919891357,1.0980000495910645,-9.637000083923342,0.2129999995231628
1621852737189,-1.9600000381469729,5.914999961853027,-6.136000156402588,1.0980000495910645,-9.5600004196167,0.2259999960660934
1621852737199,-0.8399999737739563,5.117000102996826,-5.63700008392334,1.0199999809265137,-9.513999938964846,0.1940000057220459
1621852737209,0.3499999940395355,4.083000183105469,-5.818999767303467,1.0199999809265137,-9.482000350952148,0.2399999946355819
1621852737219,1.5399999618530271,3.2190001010894775,-5.758999824523926,1.0590000152587893,-9.510000228881836,0.3939999938011169
1621852737229,1.8550000190734863,2.694000005722046,-5.602499961853027,1.0199999809265137,-9.527999877929688,0.2720000147819519
1621852737239,2.1700000762939453,2.1689999103546143,-5.446000099182129,1.0199999809265137,-9.597999572753906,0.2189999967813491
1621852737249,2.5899999141693115,1.88100004196167,-5.426000118255615,0.981000006198883,-9.637000083923342,0.2129999995231628
1621852737259,2.450000047683716,1.1510000228881836,-6.123000144958496,0.9409999847412108,-9.675999641418455,0.2060000002384185
1621852737269,2.6600000858306885,0.7530000209808348,-6.690999984741211,0.9020000100135804,-9.720999717712402,0.2380000054836273
1621852737279,2.0999999046325684,0.6230000257492065,-7.566999912261963,0.9020000100135804,-9.71399974822998,0.1990000009536743
1621852737289,1.6799999475479126,0.202000007033348,-7.995999813079834,0.9020000100135804,-9.720999717712402,0.2380000054836273
1621852737299,1.2599999904632568,0.1609999984502792,-8.571999549865723,0.8629999756813049,-9.727999687194824,0.2759999930858612
1621852737309,1.190000057220459,0.3840000033378601,-9.031000137329102,0.8629999756813049,-9.76599979400635,0.2689999938011169
1621852737319,0.9800000190734864,0.3549999892711639,-9.675000190734863,0.8629999756813049,-9.76599979400635,0.2689999938011169
1621852737329,0.4199999868869781,0.1199999973177909,-10.355999946594238,0.9020000100135804,-9.76599979400635,0.2689999938011169
1621852737339,0.1400000005960464,0.4850000143051147,-11.215999603271484,0.8629999756813049,-9.772999763488768,0.3079999983310699
1621852737349,0.0700000002980232,0.3070000112056732,-11.815999984741213,0.8240000009536743,-9.76599979400635,0.2689999938011169
1621852737359,-0.2800000011920929,0.5580000281333923,-12.838000297546388,0.8629999756813049,-9.76599979400635,0.2689999938011169
1621852737369,-0.699999988079071,0.7080000042915344,-14.090999603271484,0.9020000100135804,-9.76599979400635,0.2689999938011169
1621852737379,-1.0499999523162842,0.7279999852180481,-15.01200008392334,0.9409999847412108,-9.720999717712402,0.2380000054836273
1621852737389,-1.5399999618530271,0.621999979019165,-16.024999618530273,0.981000006198883,-9.720999717712402,0.2380000054836273
1621852737399,-1.3300000429153442,0.7269999980926513,-17.42799949645996,0.981000006198883,-9.682000160217283,0.2440000027418136
1621852737409,-1.6100000143051147,0.824999988079071,-19.187999725341797,0.9409999847412108,-9.668999671936035,0.1669999957084655
1621852737419,-1.8899999856948853,0.7839999794960022,-20.972999572753903,0.9409999847412108,-9.675999641418455,0.2060000002384185
1621852737429,-1.9600000381469729,0.6740000247955322,-22.768999099731445,0.981000006198883,-9.675999641418455,0.2060000002384185
1621852737439,-2.380000114440918,0.1059999987483024,-24.788000106811523,0.981000006198883,-9.675999641418455,0.2060000002384185
1621852737449,-2.380000114440918,0.3129999935626983,-27.167999267578125,1.0199999809265137,-9.668999671936035,0.1669999957084655
1621852737459,-2.380000114440918,0.6039999723434448,-28.822999954223633,1.0199999809265137,-9.637000083923342,0.2129999995231628
1621852737469,-2.799999952316284,0.5669999718666076,-31.03300094604492,1.0980000495910645,-9.675999641418455,0.2060000002384185
1621852737479,-3.2200000286102295,0.3729999959468841,-32.34700012207031,1.0980000495910645,-9.668999671936035,0.1669999957084655
1621852737489,-3.2200000286102295,0.2590000033378601,-33.112998962402344,1.1380000114440918,-9.623000144958496,0.135000005364418
1621852737499,-3.2200000286102295,0.1449999958276748,-33.87900161743164,1.215999960899353,-9.597999572753906,0.2189999967813491
1621852737509,-3.359999895095825,0.4620000123977661,-34.4630012512207,1.2549999952316284,-9.553000450134276,0.1879999935626983
1621852737519,-3.1500000953674316,0.9679999947547911,-34.51599884033203,1.2549999952316284,-9.553000450134276,0.1879999935626983
1621852737529,-2.940000057220459,2.015000104904175,-34.40299987792969,1.3339999914169312,-9.468999862670898,0.163000002503395
1621852737539,-2.5899999141693115,3.0360000133514404,-34.152000427246094,1.3730000257492063,-9.42300033569336,0.1309999972581863
1621852737549,-2.450000047683716,3.70199990272522,-33.891998291015625,1.4119999408721924,-9.43000030517578,0.1689999997615814
1621852737559,-1.75,4.690999984741211,-33.86000061035156,1.491000056266785,-9.42300033569336,0.1309999972581863
1621852737569,-1.1200000047683716,5.551000118255615,-33.494998931884766,1.569000005722046,-9.454999923706056,0.0850000008940696
1621852737579,-0.8399999737739563,6.479000091552734,-33.11800003051758,1.569000005722046,-9.416999816894531,0.0920000001788139
1621852737589,0.0700000002980232,7.581999778747559,-32.92399978637695,1.6080000400543213,-9.378000259399414,0.0989999994635581
1621852737599,0.9800000190734864,8.579999923706055,-32.534000396728516,1.72599995136261,-9.371000289916992,0.0599999986588954
1621852737609,2.240000009536743,10.039999961853027,-32.347999572753906,1.7649999856948853,-9.385000228881836,0.1379999965429306
1621852737619,3.6400001049041744,10.890999794006348,-31.131999969482425,1.9609999656677248,-9.378000259399414,0.0989999994635581
1621852737629,4.690000057220459,11.800000190734863,-29.833999633789062,2.0399999618530273,-9.378000259399414,0.0989999994635581
1621852737639,5.739999771118164,12.559000015258787,-27.284000396728516,2.118000030517578,-9.42300033569336,0.1309999972581863
1621852737649,6.650000095367432,13.414999961853027,-24.076000213623047,2.1570000648498535,-9.468999862670898,0.163000002503395
1621852737659,7.769999980926514,13.815999984741213,-21.51799964904785,2.236000061035156,-9.397999763488768,0.2150000035762786
1621852737669,9.100000381469728,14.21399974822998,-18.53300094604492,2.313999891281128,-9.444000244140623,0.2469999939203262
1621852737679,9.869999885559082,14.600000381469728,-15.479999542236328,2.3540000915527344,-9.45699977874756,0.3240000009536743
1621852737689,10.920000076293944,14.538999557495115,-12.718000411987305,2.431999921798706,-9.470999717712402,0.4009999930858612
1621852737699,11.619999885559082,14.616999626159668,-9.93299961090088,2.4709999561309814,-9.522999763488768,0.4720000028610229
1621852737709,12.109999656677246,14.336999893188477,-7.138999938964844,2.4709999561309814,-9.576000213623049,0.5419999957084655
1621852737719,12.529999732971191,13.86299991607666,-4.449999809265137,2.510999917984009,-9.621000289916992,0.5740000009536743
1621852737729,12.460000038146973,13.187000274658203,-2.2239999771118164,2.510999917984009,-9.711999893188477,0.6380000114440918
1621852737739,12.074999809265137,12.803500175476074,-1.2610000371932983,2.431999921798706,-9.815999984741213,0.7789999842643737
1621852737749,11.6899995803833,12.420000076293944,-0.2980000078678131,2.431999921798706,-9.873000144958496,0.6489999890327453
1621852737759,10.779999732971191,11.711000442504885,1.7100000381469729,2.431999921798706,-9.887000083923342,0.7260000109672546
1621852737769,9.65999984741211,10.803000450134276,2.8289999961853027,2.3929998874664307,-9.854999542236328,0.7720000147819519
1621852737779,8.75,9.765000343322754,4.281000137329102,2.3540000915527344,-9.847999572753906,0.7329999804496765
1621852737789,7.489999771118165,9.133000373840332,5.448999881744385,2.313999891281128,-9.847999572753906,0.7329999804496765
1621852737799,6.090000152587891,7.697000026702882,6.333000183105469,2.236000061035156,-9.8100004196167,0.740000009536743
1621852737809,4.96999979019165,7.235000133514405,6.535999774932861,2.1570000648498535,-9.815999984741213,0.7789999842643737
1621852737819,3.5,6.4079999923706055,6.389999866485596,2.118000030517578,-9.854999542236328,0.7720000147819519
1621852737829,2.1700000762939453,5.860000133514404,5.867000102996826,2.000999927520752,-9.822999954223633,0.8169999718666076
1621852737839,0.6299999952316284,5.409999847412109,4.791999816894531,1.9220000505447388,-9.862000465393066,0.8100000023841857
1621852737849,-0.7699999809265136,5.502999782562256,3.4579999446868896,1.843999981880188,-9.89400005340576,0.7649999856948853
1621852737859,-2.1700000762939453,5.607999801635742,2.055000066757202,1.8040000200271609,-9.854999542236328,0.7720000147819519
1621852737869,-3.2899999618530273,5.449999809265137,0.5339999794960022,1.7649999856948853,-9.770999908447264,0.746999979019165
1621852737879,-4.059999942779541,5.210999965667725,-0.9290000200271606,1.7649999856948853,-9.67300033569336,0.6439999938011169
1621852737889,-4.340000152587891,5.035999774932861,-1.955000042915344,1.7649999856948853,-9.602999687194824,0.6970000267028807
1621852737899,-4.269999980926514,4.548999786376953,-2.822999954223633,1.7649999856948853,-9.557000160217283,0.6650000214576721
1621852737909,-3.9200000762939458,4.663000106811523,-3.8689999580383305,1.72599995136261,-9.557000160217283,0.6650000214576721
1621852737919,-3.7799999713897705,3.9769999980926514,-4.415999889373779,1.7649999856948853,-9.564000129699709,0.703000009059906
1621852737929,-3.2200000286102295,3.76200008392334,-4.809999942779541,1.72599995136261,-9.465999603271484,0.6010000109672546
1621852737939,-2.309999942779541,3.5390000343322754,-5.559999942779541,1.72599995136261,-9.413999557495115,0.531000018119812
1621852737949,-1.399999976158142,3.6689999103546143,-5.892000198364258,1.72599995136261,-9.42099952697754,0.5690000057220459
1621852737959,-0.9449999928474426,3.4744999408721924,-5.997500419616699,1.687000036239624,-9.37600040435791,0.5379999876022338
1621852737969,-0.4900000095367431,3.2799999713897705,-6.103000164031982,1.72599995136261,-9.37600040435791,0.5379999876022338
1621852737979,0.4199999868869781,2.927000045776367,-6.520999908447266,1.72599995136261,-9.336999893188477,0.5440000295639038
1621852737989,1.3300000429153442,2.8420000076293945,-7.247000217437744,1.72599995136261,-9.336999893188477,0.5440000295639038
1621852737999,2.5199999809265137,2.752000093460083,-7.546999931335449,1.72599995136261,-9.343999862670898,0.5830000042915344
1621852738009,3.7100000381469727,3.1619999408721924,-7.047999858856201,1.6480000019073486,-9.343999862670898,0.5830000042915344
1621852738019,4.900000095367432,3.243000030517578,-7.105000019073486,1.6480000019073486,-9.388999938964846,0.615000009536743
1621852738029,5.949999809265137,3.3929998874664307,-7.14900016784668,1.72599995136261,-9.472999572753906,0.6399999856948853
1621852738039,6.230000019073486,3.7260000705718994,-7.019999980926514,1.72599995136261,-9.479999542236328,0.6779999732971191
1621852738049,6.860000133514404,4.3460001945495605,-6.909999847412109,1.687000036239624,-9.602999687194824,0.6970000267028807
1621852738059,6.71999979019165,4.698999881744385,-6.493000030517578,1.72599995136261,-9.718999862670898,0.6759999990463256
1621852738069,5.949999809265137,5.172999858856201,-5.556000232696533,1.7649999856948853,-9.725000381469728,0.7149999737739563
1621852738079,4.900000095367432,4.982999801635742,-4.879000186920166,1.7649999856948853,-9.770999908447264,0.746999979019165
1621852738089,3.7799999713897705,5.425000190734863,-4.160999774932861,1.7649999856948853,-9.770999908447264,0.746999979019165
1621852738099,2.380000114440918,5.421000003814697,-3.7349998950958256,1.72599995136261,-9.73900032043457,0.7919999957084655
1621852738109,1.5399999618530271,5.2829999923706055,-3.759999990463257,1.72599995136261,-9.70699977874756,0.8379999995231628
1621852738119,1.0499999523162842,5.214000225067139,-3.7720000743865967,1.7649999856948853,-9.70699977874756,0.8379999995231628
1621852738129,0.5600000023841857,5.428999900817871,-3.378999948501587,1.8040000200271609,-9.661999702453612,0.8059999942779541
1621852738139,0.0700000002980232,5.129000186920166,-3.2890000343322754,1.8040000200271609,-9.668999671936035,0.8439999818801879
1621852738149,-0.1400000005960464,4.85699987411499,-3.763999938964844,1.7649999856948853,-9.699999809265137,0.7990000247955322
1621852738159,-0.5600000023841857,4.690999984741211,-4.433000087738037,1.8040000200271609,-9.668999671936035,0.8439999818801879
1621852738169,-0.9099999666213988,4.63599967956543,-4.7270002365112305,1.72599995136261,-9.720999717712402,0.915000021457672
1621852738179,-1.2599999904632568,4.580999851226807,-5.020999908447266,1.72599995136261,-9.71399974822998,0.8759999871253967
1621852738189,-2.1700000762939453,4.168000221252441,-5.093999862670898,1.72599995136261,-9.746000289916992,0.8309999704360961
1621852738199,-3.0799999237060547,4.041999816894531,-5.186999797821045,1.7649999856948853,-9.73900032043457,0.7919999957084655
1621852738209,-3.7100000381469727,4.021999835968018,-5.474999904632568,1.7649999856948853,-9.732000350952148,0.7530000209808348
1621852738219,-3.9200000762939458,3.700999975204468,-5.672999858856201,1.7649999856948853,-9.694000244140623,0.7599999904632568
1621852738229,-3.990000009536743,3.700999975204468,-5.672999858856201,1.7649999856948853,-9.647999763488768,0.7279999852180481
1621852738239,-3.990000009536743,3.82699990272522,-5.579999923706055,1.7649999856948853,-9.609999656677246,0.7350000143051147
1621852738249,-3.9200000762939458,3.875999927520752,-5.855999946594238,1.7649999856948853,-9.571000099182127,0.7419999837875366
1621852738259,-3.849999904632568,4.176000118255615,-5.945000171661377,1.7649999856948853,-9.526000022888184,0.7099999785423278
1621852738269,-3.6400001049041744,4.5970001220703125,-6.723999977111816,1.72599995136261,-9.550999641418455,0.6259999871253967
1621852738279,-3.569999933242798,4.434999942779541,-6.610000133514404,1.7649999856948853,-9.543999671936035,0.5879999995231628
1621852738289,-3.5,4.618000030517578,-6.435999870300293,1.7649999856948853,-9.550999641418455,0.6259999871253967
1621852738299,-2.940000057220459,4.949999809265137,-6.306000232696533,1.7649999856948853,-9.543999671936035,0.5879999995231628
1621852738309,-2.6600000858306885,5.0960001945495605,-5.925000190734863,1.7649999856948853,-9.58199977874756,0.5809999704360961
1621852738319,-2.380000114440918,5.079999923706055,-5.429999828338623,1.7649999856948853,-9.576000213623049,0.5419999957084655
1621852738329,-2.0999999046325684,4.580999851226807,-5.020999908447266,1.8040000200271609,-9.536999702453612,0.5490000247955322
1621852738339,-1.3300000429153442,4.625999927520752,-4.870999813079834,1.8040000200271609,-9.498000144958496,0.5559999942779541
1621852738349,-0.7699999809265136,4.495999813079834,-4.538000106811523,1.7649999856948853,-9.512000083923342,0.6330000162124633
1621852738359,-0.2449999898672103,4.3520002365112305,-4.5279998779296875,1.7649999856948853,-9.465999603271484,0.6010000109672546
1621852738369,0.2800000011920929,4.208000183105469,-4.51800012588501,1.8040000200271609,-9.465999603271484,0.6010000109672546
1621852738379,1.3300000429153442,3.9330000877380367,-4.565999984741211,1.8040000200271609,-9.472999572753906,0.6399999856948853
1621852738389,1.75,4.184000015258789,-4.380000114440918,1.8040000200271609,-9.550999641418455,0.6259999871253967
1621852738399,1.5399999618530271,4.294000148773193,-3.7920000553131104,1.7649999856948853,-9.595999717712402,0.6579999923706054
1621852738409,1.5399999618530271,4.10699987411499,-3.5409998893737793,1.72599995136261,-9.64099979400635,0.6899999976158142
1621852738419,1.2599999904632568,3.888000011444092,-3.5079998970031734,1.72599995136261,-9.68000030517578,0.6830000281333923
1621852738429,0.4199999868869781,3.7339999675750737,-3.038000106811523,1.687000036239624,-9.711999893188477,0.6380000114440918
1621852738439,-0.2800000011920929,3.928999900817871,-2.931999921798706,1.6480000019073486,-9.68000030517578,0.6830000281333923
1621852738449,-0.2800000011920929,3.990000009536743,-3.2769999504089355,1.687000036239624,-9.630000114440918,0.8510000109672546
1621852738459,-0.6299999952316284,3.839999914169311,-3.2320001125335693,1.6480000019073486,-9.654999732971191,0.7670000195503234
1621852738469,-0.8399999737739563,3.884000062942505,-3.0820000171661377,1.6480000019073486,-9.609999656677246,0.7350000143051147
1621852738479,-0.9100000262260436,3.615999937057495,-3.9830000400543217,1.6480000019073486,-9.602999687194824,0.6970000267028807
1621852738488,-1.2599999904632568,3.688999891281128,-4.395999908447266,1.6480000019073486,-9.602999687194824,0.6970000267028807
1621852738498,-1.4700000286102295,3.377000093460083,-4.23799991607666,1.6480000019073486,-9.64099979400635,0.6899999976158142
1621852738508,-1.6100000143051147,3.2309999465942383,-4.61899995803833,1.6080000400543213,-9.635000228881836,0.6510000228881835
1621852738518,-1.5399999618530271,2.9549999237060547,-4.668000221252441,1.6480000019073486,-9.635000228881836,0.6510000228881835
1621852738528,-1.5399999618530271,2.509000062942505,-4.960000038146973,1.6480000019073486,-9.64099979400635,0.6899999976158142
1621852738538,-1.434999942779541,2.5234999656677246,-5.241499900817871,1.6080000400543213,-9.602999687194824,0.6970000267028807
1621852738548,-1.3300000429153442,2.538000106811523,-5.5229997634887695,1.569000005722046,-9.609999656677246,0.7350000143051147
1621852738558,-0.9100000262260436,2.538000106811523,-5.5229997634887695,1.569000005722046,-9.602999687194824,0.6970000267028807
1621852738568,-0.699999988079071,2.4690001010894775,-5.534999847412109,1.6080000400543213,-9.635000228881836,0.6510000228881835
1621852738578,-0.4199999868869781,2.7160000801086426,-6.131999969482422,1.6080000400543213,-9.595999717712402,0.6579999923706054
1621852738588,-0.3499999940395355,2.558000087738037,-6.443999767303467,1.6080000400543213,-9.595999717712402,0.6579999923706054
1621852738598,-0.1400000005960464,2.6510000228881836,-6.568999767303467,1.569000005722046,-9.635000228881836,0.6510000228881835
1621852738608,-0.4900000095367431,3.0439999103546143,-6.783999919891357,1.569000005722046,-9.635000228881836,0.6510000228881835
1621852738618,-0.4900000095367431,3.328000068664551,-6.379000186920166,1.6080000400543213,-9.67300033569336,0.6439999938011169
1621852738628,-0.6299999952316284,3.259000062942505,-6.390999794006348,1.6080000400543213,-9.628000259399414,0.6129999756813049
1621852738638,-0.5600000023841857,3.421999931335449,-6.505000114440918,1.6080000400543213,-9.635000228881836,0.6510000228881835
1621852738648,-0.5600000023841857,3.684999942779541,-6.38700008392334,1.6080000400543213,-9.635000228881836,0.6510000228881835
1621852738658,-0.4900000095367431,3.6530001163482666,-6.605999946594238,1.6480000019073486,-9.635000228881836,0.6510000228881835
1621852738668,-0.3499999940395355,3.815000057220459,-6.71999979019165,1.6480000019073486,-9.635000228881836,0.6510000228881835
1621852738678,0.0,4.065999984741211,-5.324999809265137,1.6080000400543213,-9.58899974822998,0.6190000176429749
1621852738688,0.4199999868869781,3.811000108718872,-5.085000038146973,1.6080000400543213,-9.557000160217283,0.6650000214576721
1621852738698,0.9800000190734864,3.624000072479248,-4.834000110626221,1.569000005722046,-9.595999717712402,0.6579999923706054
1621852738708,1.5399999618530271,3.7709999084472656,-4.453000068664551,1.5299999713897705,-9.602999687194824,0.6970000267028807
1621852738718,1.6449999809265137,3.7969999313354497,-4.19950008392334,1.491000056266785,-9.571000099182127,0.7419999837875366
1621852738728,1.75,3.822999954223633,-3.946000099182129,1.5299999713897705,-9.564000129699709,0.703000009059906
1621852738738,1.8899999856948853,4.114999771118164,-4.392000198364258,1.5299999713897705,-9.564000129699709,0.703000009059906
1621852738748,1.75,4.38700008392334,-3.9179999828338623,1.5299999713897705,-9.609999656677246,0.7350000143051147
1621852738758,2.0999999046325684,4.317999839782715,-3.9300000667572026,1.5299999713897705,-9.602999687194824,0.6970000267028807
1621852738768,2.1700000762939453,4.203999996185303,-4.0920000076293945,1.491000056266785,-9.609999656677246,0.7350000143051147
1621852738778,2.240000009536743,4.041999816894531,-3.9790000915527344,1.491000056266785,-9.57800006866455,0.781000018119812
1621852738788,2.240000009536743,4.114999771118164,-4.392000198364258,1.4509999752044678,-9.616000175476074,0.7739999890327453
1621852738798,2.240000009536743,4.208000183105469,-4.51800012588501,1.4509999752044678,-9.585000038146973,0.8190000057220459
1621852738808,1.8899999856948853,4.361999988555908,-4.98799991607666,1.4119999408721924,-9.57800006866455,0.781000018119812
1621852738818,2.1700000762939453,4.675000190734863,-5.145999908447266,1.4509999752044678,-9.57800006866455,0.781000018119812
1621852738828,2.0299999713897705,4.748000144958496,-5.559999942779541,1.4509999752044678,-9.57800006866455,0.781000018119812
1621852738838,1.8899999856948853,4.695000171661377,-6.066999912261963,1.4119999408721924,-9.64400005340576,0.9279999732971193
1621852738848,2.0299999713897705,4.824999809265137,-6.39900016784668,1.4509999752044678,-9.675000190734863,0.8830000162124633
1621852738858,1.9600000381469729,4.84499979019165,-6.111999988555908,1.491000056266785,-9.623000144958496,0.8130000233650208
1621852738868,1.8200000524520872,5.408999919891357,-6.083000183105469,1.5299999713897705,-9.668999671936035,0.8439999818801879
1621852738878,1.6100000143051147,5.732999801635742,-6.309999942779541,1.5299999713897705,-9.70699977874756,0.8379999995231628
1621852738888,1.4700000286102295,5.688499927520752,-6.460000038146973,1.5299999713897705,-9.70699977874756,0.8379999995231628
1621852738898,1.3300000429153442,5.644000053405762,-6.610000133514404,1.5299999713897705,-9.746000289916992,0.8309999704360961
1621852738908,0.9800000190734864,5.684000015258789,-7.243000030517577,1.5299999713897705,-9.70699977874756,0.8379999995231628
1621852738918,0.4900000095367431,5.761000156402588,-6.874000072479248,1.491000056266785,-9.699999809265137,0.7990000247955322
1621852738928,0.0,5.794000148773193,-6.65500020980835,1.491000056266785,-9.699999809265137,0.7990000247955322
1621852738938,-0.3499999940395355,6.093999862670898,-6.74399995803833,1.491000056266785,-9.661999702453612,0.8059999942779541
1621852738948,-0.209999993443489,6.068999767303467,-6.605999946594238,1.491000056266785,-9.668999671936035,0.8439999818801879
1621852738958,-0.3499999940395355,5.9679999351501465,-6.8379998207092285,1.491000056266785,-9.623000144958496,0.8130000233650208
1621852738968,-0.4900000095367431,6.0289998054504395,-7.182000160217285,1.491000056266785,-9.647999763488768,0.7279999852180481
1621852738978,-0.209999993443489,6.065000057220459,-7.388999938964843,1.5299999713897705,-9.609999656677246,0.7350000143051147
1621852738988,-0.3499999940395355,6.057000160217285,-7.745999813079834,1.5299999713897705,-9.602999687194824,0.6970000267028807
1621852738998,-0.5600000023841857,5.940000057220459,-7.48199987411499,1.6080000400543213,-9.602999687194824,0.6970000267028807
1621852739008,-0.5600000023841857,6.045000076293945,-7.677000045776368,1.569000005722046,-9.609999656677246,0.7350000143051147
1621852739018,-0.699999988079071,5.931000232696533,-7.83900022506714,1.569000005722046,-9.661999702453612,0.8059999942779541
1621852739028,-1.399999976158142,5.861999988555908,-7.85099983215332,1.5299999713897705,-9.654999732971191,0.7670000195503234
1621852739038,-1.5399999618530271,5.485000133514404,-8.130999565124512,1.5299999713897705,-9.699999809265137,0.7990000247955322
1621852739048,-1.6799999475479126,6.2230000495910645,-8.28499984741211,1.5299999713897705,-9.694000244140623,0.7599999904632568
1621852739058,-1.7849999666213987,6.091500282287598,-8.343999862670898,1.5299999713897705,-9.654999732971191,0.7670000195503234
1621852739068,-1.8899999856948853,5.960000038146973,-8.402999877929688,1.5299999713897705,-9.654999732971191,0.7670000195503234
1621852739078,-2.380000114440918,5.960000038146973,-8.402999877929688,1.569000005722046,-9.654999732971191,0.7670000195503234
1621852739088,-2.240000009536743,6.015999794006348,-8.321999549865723,1.6080000400543213,-9.647999763488768,0.7279999852180481
1621852739098,-2.0299999713897705,5.849999904632568,-7.782000064849853,1.6080000400543213,-9.609999656677246,0.7350000143051147
1621852739108,-1.75,5.711999893188477,-7.807000160217285,1.687000036239624,-9.609999656677246,0.7350000143051147
1621852739118,-1.2599999904632568,5.368000030517578,-7.867000102996825,1.6480000019073486,-9.57800006866455,0.781000018119812
1621852739128,-1.75,4.949999809265137,-7.514999866485595,1.6480000019073486,-9.571000099182127,0.7419999837875366
1621852739138,-1.399999976158142,4.86899995803833,-7.458000183105469,1.687000036239624,-9.616000175476074,0.7739999890327453
1621852739148,-1.2599999904632568,4.48799991607666,-7.311999797821045,1.6480000019073486,-9.571000099182127,0.7419999837875366
1621852739158,-1.190000057220459,4.301000118255615,-7.059999942779541,1.6480000019073486,-9.526000022888184,0.7099999785423278
1621852739168,-0.9800000190734864,4.126999855041504,-6.877999782562256,1.6480000019073486,-9.564000129699709,0.703000009059906
1621852739178,-0.699999988079071,3.884000062942505,-6.706999778747559,1.6080000400543213,-9.571000099182127,0.7419999837875366
1621852739188,-0.6299999952316284,3.802999973297119,-6.651000022888184,1.6480000019073486,-9.602999687194824,0.6970000267028807
1621852739198,-0.699999988079071,3.688999891281128,-6.813000202178955,1.6080000400543213,-9.602999687194824,0.6970000267028807
1621852739208,-0.5600000023841857,3.7260000705718994,-7.019999980926514,1.569000005722046,-9.602999687194824,0.6970000267028807
1621852739218,-0.4199999868869781,3.7820000648498535,-6.939000129699707,1.6080000400543213,-9.609999656677246,0.7350000143051147
1621852739228,-0.3849999904632568,3.942500114440918,-6.8394999504089355,1.6080000400543213,-9.609999656677246,0.7350000143051147
1621852739238,-0.3499999940395355,4.103000164031982,-6.739999771118164,1.569000005722046,-9.647999763488768,0.7279999852180481
1621852739248,-0.5600000023841857,4.000999927520752,-6.9710001945495605,1.6080000400543213,-9.64099979400635,0.6899999976158142
1621852739258,-0.7699999809265136,4.061999797821045,-7.315999984741211,1.6080000400543213,-9.68000030517578,0.6830000281333923
1621852739268,-0.7699999809265136,4.394999980926514,-7.185999870300293,1.6080000400543213,-9.687000274658203,0.722000002861023
1621852739278,-0.9100000262260436,4.89300012588501,-7.59600019454956,1.5299999713897705,-9.697999954223633,0.5600000023841857
1621852739288,-0.9100000262260436,4.51200008392334,-7.449999809265136,1.569000005722046,-9.725000381469728,0.7149999737739563
1621852739298,-1.1200000047683716,4.750999927520752,-7.193999767303467,1.6080000400543213,-9.647999763488768,0.7279999852180481
1621852739308,-0.699999988079071,4.7230000495910645,-6.63100004196167,1.569000005722046,-9.602999687194824,0.6970000267028807
1621852739318,-0.5600000023841857,4.638000011444092,-6.1479997634887695,1.6480000019073486,-9.602999687194824,0.6970000267028807
1621852739328,-0.2800000011920929,4.382999897003174,-5.908999919891357,1.6080000400543213,-9.564000129699709,0.703000009059906
1621852739338,0.5600000023841857,4.046000003814697,-5.61299991607666,1.6480000019073486,-9.564000129699709,0.703000009059906
1621852739348,0.7699999809265136,3.6080000400543217,-5.547999858856201,1.6480000019073486,-9.564000129699709,0.703000009059906
1621852739358,0.9100000262260436,3.3570001125335693,-5.734000205993652,1.6480000019073486,-9.602999687194824,0.6970000267028807
1621852739368,0.9800000190734864,3.299999952316284,-5.815000057220459,1.569000005722046,-9.64099979400635,0.6899999976158142
1621852739378,0.699999988079071,3.186000108718872,-5.978000164031982,1.569000005722046,-9.635000228881836,0.6510000228881835
1621852739388,0.4199999868869781,2.691999912261963,-5.99399995803833,1.569000005722046,-9.609999656677246,0.7350000143051147
1621852739398,-0.0700000002980232,2.4519999027252197,-6.249000072479248,1.569000005722046,-9.571000099182127,0.7419999837875366
1621852739408,-0.1400000005960464,2.551499843597412,-6.408999919891357,1.569000005722046,-9.647999763488768,0.7279999852180481
1621852739418,-0.209999993443489,2.6510000228881836,-6.568999767303467,1.569000005722046,-9.647999763488768,0.7279999852180481
1621852739428,-0.2800000011920929,2.4079999923706055,-6.39900016784668,1.569000005722046,-9.647999763488768,0.7279999852180481
1621852739438,-0.4900000095367431,2.38700008392334,-6.686999797821045,1.569000005722046,-9.654999732971191,0.7670000195503234
1621852739448,-0.0700000002980232,2.5820000171661377,-6.581999778747559,1.569000005722046,-9.654999732971191,0.7670000195503234
1621852739458,-0.0700000002980232,2.5460000038146973,-6.375,1.5299999713897705,-9.571000099182127,0.7419999837875366
1621852739468,0.6299999952316284,2.7279999256134033,-6.199999809265137,1.569000005722046,-9.609999656677246,0.7350000143051147
1621852739478,0.6299999952316284,2.7239999771118164,-5.775000095367432,1.569000005722046,-9.609999656677246,0.7350000143051147
1621852739488,0.9800000190734864,2.736000061035156,-5.843999862670898,1.6080000400543213,-9.654999732971191,0.7670000195503234
1621852739498,1.3300000429153442,2.874000072479248,-5.818999767303467,1.6080000400543213,-9.654999732971191,0.7670000195503234
1621852739508,1.5399999618530271,2.5460000038146973,-6.375,1.6080000400543213,-9.68000030517578,0.6830000281333923
1621852739518,1.1200000047683716,2.7160000801086426,-6.131999969482422,1.687000036239624,-9.635000228881836,0.6510000228881835
1621852739528,0.7699999809265136,2.5739998817443848,-5.730000019073486,1.687000036239624,-9.64099979400635,0.6899999976158142
1621852739538,0.2800000011920929,2.4769999980926514,-5.178999900817871,1.687000036239624,-9.694000244140623,0.7599999904632568
1621852739548,-0.4199999868869781,2.0959999561309814,-5.0329999923706055,1.6480000019073486,-9.654999732971191,0.7670000195503234
1621852739558,-0.7699999809265136,1.5199999809265137,-4.992000102996826,1.6080000400543213,-9.694000244140623,0.7599999904632568
1621852739568,-1.0499999523162842,1.0460000038146973,-4.71999979019165,1.687000036239624,-9.687000274658203,0.722000002861023
1621852739578,-1.3300000429153442,0.6679999828338623,-5.0,1.7649999856948853,-9.725000381469728,0.7149999737739563
1621852739588,-1.9600000381469729,-0.2360000014305114,-4.306000232696533,1.8040000200271609,-9.8100004196167,0.740000009536743
1621852739598,-2.450000047683716,-0.9859999418258668,-4.083000183105469,1.8830000162124632,-9.847999572753906,0.7329999804496765
1621852739608,-2.940000057220459,-1.7359999418258667,-3.8599998950958256,1.9220000505447388,-9.815999984741213,0.7789999842643737
1621852739618,-4.690000057220459,-3.750999927520752,-2.509999990463257,1.9609999656677248,-9.899999618530272,0.8040000200271606
1621852739628,-5.599999904632568,-5.888000011444092,-1.6779999732971191,1.9609999656677248,-9.932000160217283,0.7580000162124633
1621852739638,-6.71999979019165,-8.965999603271484,-1.1540000438690186,2.000999927520752,-10.015999794006348,0.7829999923706054
1621852739648,-8.399999618530273,-11.711000442504885,-0.5009999871253967,2.0789999961853027,-10.093999862670898,0.7689999938011169
1621852739658,-10.079999923706056,-14.420000076293944,-0.0549999997019767,2.118000030517578,-10.138999938964844,0.8009999990463256
1621852739668,-12.8100004196167,-17.277999877929688,0.4359999895095825,2.197000026702881,-10.159000396728516,0.9169999957084656
1621852739678,-15.960000038146973,-21.13400077819824,1.746999979019165,2.118000030517578,-10.145999908447266,0.8399999737739563
1621852739688,-18.829999923706055,-25.09199905395508,2.825999975204468,2.0399999618530273,-10.100000381469728,0.8080000281333923
1621852739698,-21.6299991607666,-29.045000076293945,4.688000202178955,2.000999927520752,-10.119000434875488,0.6850000023841857
1621852739708,-23.799999237060547,-32.69900131225586,5.251999855041504,1.9220000505447388,-10.079999923706056,0.6919999718666076
1621852739718,-25.690000534057617,-35.797000885009766,5.486999988555908,1.8040000200271609,-9.996000289916992,0.6669999957084655
1621852739728,-27.649999618530273,-38.70800018310547,6.679999828338623,1.687000036239624,-9.897999763488768,0.5649999976158142
1621852739738,-28.84000015258789,-41.02299880981445,8.119999885559082,1.569000005722046,-9.93000030517578,0.5189999938011169
1621852739748,-29.75,-42.77899932861328,8.805000305175781,1.4509999752044678,-9.987000465393066,0.3899999856948852
1621852739758,-31.149999618530273,-44.06399917602539,9.645000457763674,1.3730000257492063,-10.08899974822998,0.2919999957084655
1621852739768,-33.459999084472656,-44.63600158691406,10.468000411987305,1.2549999952316284,-9.998000144958496,0.2290000021457672
1621852739778,-35.0,-44.729000091552734,11.802000045776367,1.1380000114440918,-9.836999893188477,0.2169999927282333
1621852739788,-36.04999923706055,-44.97600173950195,12.39799976348877,1.0980000495910645,-9.661999702453612,0.1289999932050705
1621852739798,-36.119998931884766,-44.81800079345703,13.918999671936035,0.9409999847412108,-9.531999588012695,0.0719999969005584
1621852739808,-35.209999084472656,-44.08399963378906,14.1899995803833,0.8240000009536743,-9.51900005340576,-0.0049999998882412
1621852739818,-33.810001373291016,-42.96900177001953,14.315999984741213,0.6669999957084655,-9.505000114440918,-0.0829999968409538
1621852739828,-33.11000061035156,-42.20850372314453,14.23699951171875,0.5879999995231628,-9.491999626159668,-0.1599999964237213
1621852739838,-32.40999984741211,-41.448001861572266,14.157999992370604,0.5099999904632568,-9.503000259399414,-0.3210000097751617
1621852739848,-31.219999313354492,-39.391998291015625,13.383000373840332,0.5099999904632568,-9.53499984741211,-0.367000013589859
1621852739858,-30.170000076293945,-37.2599983215332,12.97700023651123,0.5099999904632568,-9.451000213623049,-0.3919999897480011
1621852739868,-29.1200008392334,-35.39400100708008,12.880000114440918,0.4309999942779541,-9.392000198364256,-0.5009999871253967
1621852739878,-28.0,-33.71900177001953,13.458999633789064,0.3919999897480011,-9.345999717712402,-0.5329999923706054
1621852739888,-26.11000061035156,-31.80500030517578,14.293999671936035,0.3529999852180481,-9.300999641418455,-0.5649999976158142
1621852739898,-23.65999984741211,-30.000999450683594,14.541000366210938,0.3529999852180481,-9.133000373840332,-0.615000009536743
1621852739908,-20.719999313354492,-28.143999099731445,14.086999893188477,0.2750000059604644,-9.010000228881836,-0.6330000162124633
1621852739918,-16.940000534057617,-26.461000442504883,13.8149995803833,0.2750000059604644,-8.894000053405762,-0.6119999885559082
1621852739928,-12.8100004196167,-24.854999542236328,13.173999786376951,0.2349999994039535,-8.842000007629395,-0.6830000281333923
1621852739938,-8.539999961853027,-23.062999725341797,12.281999588012695,0.1959999948740005,-8.795999526977539,-0.7149999737739563
1621852739948,-3.9200000762939458,-21.059999465942383,11.0,0.1570000052452087,-8.776000022888184,-0.8299999833106994
1621852739958,0.7699999809265136,-19.361000061035156,9.024999618530272,0.1959999948740005,-8.737000465393066,-0.8240000009536743
1621852739968,4.900000095367432,-18.076000213623047,6.9770002365112305,0.2349999994039535,-8.866999626159668,-0.7670000195503234
1621852739978,9.100000381469728,-16.8799991607666,4.629000186920166,0.2349999994039535,-9.06700038909912,-0.762000024318695
1621852739988,11.619999885559082,-15.687999725341797,2.7070000171661377,0.2750000059604644,-9.428000450134276,-0.7459999918937683
1621852739998,12.390000343322754,-14.772000312805176,0.7360000014305114,0.3529999852180481,-9.788999557495115,-0.7300000190734863
1621852740008,10.989999771118164,-14.270000457763672,-1.3079999685287476,0.3140000104904174,-9.996000289916992,-0.6869999766349792
1621852740018,8.609999656677246,-13.491000175476074,-3.302999973297119,0.3529999852180481,-10.12600040435791,-0.6299999952316284
1621852740028,5.949999809265137,-13.005000114440918,-6.059999942779541,0.3919999897480011,-10.241999626159668,-0.6510000228881835
1621852740038,2.0299999713897705,-11.753000259399414,-8.32699966430664,0.3919999897480011,-10.378000259399414,-0.5550000071525573
1621852740048,-2.0299999713897705,-10.774999618530272,-9.434000015258787,0.4309999942779541,-10.371000289916992,-0.5939999818801879
1621852740058,-5.739999771118164,-10.446999549865724,-11.29599952697754,0.5099999904632568,-10.371000289916992,-0.5939999818801879
1621852740068,-8.399999618530273,-10.442999839782717,-12.93000030517578,0.5099999904632568,-10.300999641418455,-0.5419999957084655
1621852740078,-9.41499996185303,-10.57900047302246,-13.166999816894531,0.5490000247955322,-10.229999542236328,-0.488999992609024
1621852740088,-10.43000030517578,-10.715000152587892,-13.404000282287598,0.6669999957084655,-10.11400032043457,-0.4690000116825103
1621852740098,-11.970000267028809,-11.083999633789064,-13.32699966430664,0.7450000047683715,-10.043999671936035,-0.4169999957084655
1621852740108,-13.720000267028809,-11.534000396728516,-11.984999656677246,0.8240000009536743,-9.913999557495115,-0.4740000069141387
1621852740118,-15.1899995803833,-12.32900047302246,-10.703000068664553,0.9020000100135804,-9.822999954223633,-0.537000000476837
1621852740128,-16.3799991607666,-13.894000053405762,-9.487000465393066,0.9020000100135804,-9.72599983215332,-0.6389999985694885
1621852740138,-16.450000762939453,-15.694000244140623,-7.743000030517577,0.9020000100135804,-9.776000022888184,-0.8080000281333923
1621852740148,-16.239999771118164,-17.298999786376953,-5.894000053405762,0.8629999756813049,-9.845999717712402,-0.8600000143051147
1621852740158,-15.890000343322754,-18.986000061035156,-2.7790000438690186,0.8240000009536743,-9.65999984741211,-0.787000000476837
1621852740168,-15.399999618530272,-20.291000366210938,-1.0190000534057615,0.7850000262260437,-9.491999626159668,-0.8370000123977661
1621852740178,-14.489999771118164,-21.516000747680664,0.684000015258789,0.7450000047683715,-9.43299961090088,-0.9459999799728392
1621852740187,-13.229999542236328,-22.56999969482422,2.63100004196167,0.7059999704360961,-9.43299961090088,-0.9459999799728392
1621852740197,-11.760000228881836,-23.356000900268555,4.269000053405762,0.6669999957084655,-9.418999671936035,-1.02400004863739
1621852740207,-10.850000381469728,-23.979999542236328,5.794000148773193,0.5490000247955322,-9.39900016784668,-1.1390000581741333
1621852740217,-9.59000015258789,-24.559999465942383,6.260000228881836,0.4709999859333038,-9.553000450134276,-1.1670000553131104
1621852740227,-8.609999656677246,-25.305999755859375,7.265999794006347,0.3919999897480011,-9.592000007629396,-1.1729999780654907
1621852740237,-7.769999980926514,-25.674999237060547,8.550999641418457,0.3140000104904174,-9.553000450134276,-1.1670000553131104
1621852740247,-7.559999942779541,-25.618000030517575,9.840999603271484,0.2349999994039535,-9.508000373840332,-1.1979999542236328
1621852740257,-7.070000171661377,-25.29400062561035,10.821999549865724,0.1570000052452087,-9.513999938964846,-1.1599999666213987
1621852740267,-6.71999979019165,-25.15999984741211,11.272000312805176,0.0780000016093254,-9.468999862670898,-1.1920000314712524
1621852740277,-6.440000057220459,-25.07900047302246,11.215999603271484,0.0,-9.43000030517578,-1.184999942779541
1621852740287,-5.179999828338623,-24.86000061035156,11.18299961090088,-0.0390000008046627,-9.352999687194824,-1.1710000038146973
1621852740297,-4.059999942779541,-24.48699951171875,10.68000030517578,-0.0780000016093254,-9.392000198364256,-1.1779999732971191
1621852740307,-2.240000009536743,-24.097000122070312,9.68299961090088,-0.1570000052452087,-9.404999732971191,-1.10099995136261
1621852740317,-0.5600000023841857,-23.788999557495117,8.741999626159668,-0.2750000059604644,-9.43000030517578,-1.184999942779541
1621852740327,0.4199999868869781,-23.638999938964844,8.696999549865723,-0.2750000059604644,-9.39900016784668,-1.1390000581741333
1621852740337,0.8399999737739563,-23.399999618530273,8.348499298095703,-0.3140000104904174,-9.385000228881836,-1.2170000076293943
1621852740347,1.2599999904632568,-23.160999298095703,8.0,-0.3919999897480011,-9.39900016784668,-1.1390000581741333
1621852740357,2.0299999713897705,-22.167999267578125,7.605999946594238,-0.3529999852180481,-9.444000244140623,-1.1080000400543213
1621852740367,2.380000114440918,-21.250999450683594,6.843999862670898,-0.3529999852180481,-9.53499984741211,-1.0440000295639038
1621852740377,3.2200000286102295,-21.069000244140625,5.809999942779541,-0.3140000104904174,-9.572999954223633,-1.0509999990463257
1621852740387,3.1500000953674316,-20.52199935913086,5.124000072479248,-0.3529999852180481,-9.689000129699709,-1.0709999799728394
1621852740397,3.6400001049041744,-19.91699981689453,4.519999980926514,-0.3529999852180481,-10.01200008392334,-1.0479999780654907
1621852740407,3.0799999237060547,-18.920000076293945,3.700999975204468,-0.3529999852180481,-9.888999938964846,-1.0670000314712524
1621852740417,0.9100000262260436,-18.527000427246097,3.486000061035156,-0.4309999942779541,-9.62600040435791,-0.9800000190734864
1621852740427,-0.4900000095367431,-17.573999404907227,2.5169999599456787,-0.4309999942779541,-9.666999816894531,-0.7490000128746032
1621852740437,-1.2599999904632568,-16.92099952697754,1.6369999647140503,-0.5099999904632568,-9.737000465393066,-0.8009999990463256
1621852740447,-1.75,-15.770000457763672,1.5549999475479126,-0.5490000247955322,-9.727999687194824,-1.0779999494552612
1621852740457,-1.2599999904632568,-14.505000114440918,0.4280000030994415,-0.4709999859333038,-9.847999572753906,-1.2979999780654907
1621852740467,-0.5600000023841857,-13.345000267028809,-0.5049999952316284,-0.5490000247955322,-9.73900032043457,-1.2389999628067017
1621852740477,-0.4900000095367431,-12.246000289916992,0.1150000020861625,-0.6669999957084655,-9.513999938964846,-1.1599999666213987
1621852740487,0.8399999737739563,-11.553000450134276,-0.1889999955892562,-0.6669999957084655,-9.387000083923342,-0.977999985218048
1621852740497,2.869999885559082,-10.810999870300291,-0.7689999938011169,-0.6280000209808348,-9.401000022888184,-0.9010000228881836
1621852740507,4.480000019073486,-9.751999855041506,0.4839999973773956,-0.6280000209808348,-9.401000022888184,-0.9010000228881836
1621852740517,5.670000076293945,-8.913000106811523,1.7690000534057615,-0.6280000209808348,-9.484999656677246,-0.8759999871253967
1621852740527,6.159999847412109,-8.324000358581543,2.868000030517578,-0.6669999957084655,-9.569000244140623,-0.8510000109672546
1621852740537,6.159999847412109,-7.646999835968018,3.059000015258789,-0.6669999957084655,-9.710000038146973,-0.9549999833106994
1621852740547,6.090000152587891,-6.434999942779541,2.6329998970031734,-0.6669999957084655,-9.604999542236328,-1.0959999561309814
1621852740557,5.809999942779541,-5.2789998054504395,2.125999927520752,-0.6669999957084655,-9.586999893188477,-0.9729999899864196
1621852740567,5.25,-4.302000045776367,2.2269999980926514,-0.6669999957084655,-9.54800033569336,-0.9670000076293944
1621852740577,4.340000152587891,-3.4630000591278076,2.303999900817871,-0.6669999957084655,-9.54800033569336,-0.9670000076293944
1621852740587,3.7100000381469727,-3.555999994277954,2.428999900817871,-0.6669999957084655,-9.70300006866455,-0.9940000176429749
1621852740597,3.0799999237060547,-3.677500009536743,3.118499994277954,-0.6280000209808348,-9.871000289916992,-0.944000005722046
1621852740607,2.450000047683716,-3.799000024795532,3.8080000877380367,-0.6280000209808348,-9.845999717712402,-0.8600000143051147
1621852740617,0.9100000262260436,-4.504000186920166,5.389999866485596,-0.6669999957084655,-10.019000053405762,-1.0099999904632568
1621852740627,0.4199999868869781,-5.340000152587891,6.09499979019165,-0.6669999957084655,-10.109999656677246,-0.9459999799728392
1621852740637,-0.209999993443489,-5.890999794006348,7.206999778747559,-0.6669999957084655,-9.70300006866455,-0.9940000176429749
1621852740647,-0.7699999809265136,-7.013999938964844,7.933000087738037,-0.6280000209808348,-9.411999702453612,-1.062000036239624
1621852740657,-0.9800000190734864,-7.763999938964843,6.947000026702881,-0.6280000209808348,-9.270999908447264,-0.9580000042915344
1621852740667,1.3300000429153442,-7.7160000801086435,5.4629998207092285,-0.6669999957084655,-9.336999893188477,-0.8100000023841857
1621852740677,4.550000190734863,-7.436999797821045,1.4609999656677246,-0.7059999704360961,-9.37600040435791,-0.8169999718666076
1621852740687,7.769999980926514,-6.229000091552734,-4.580999851226807,-0.8240000009536743,-9.314000129699709,-0.4869999885559082
1621852740697,10.640000343322754,-3.9590001106262207,-8.588000297546387,-0.8240000009536743,-9.32800006866455,-0.4099999964237213
1621852740707,11.270000457763672,-1.805999994277954,-11.123000144958496,-0.7059999704360961,-9.512000083923342,-0.7210000157356262
1621852740717,10.710000038146973,0.5540000200271606,-11.20400047302246,-0.6669999957084655,-9.758000373840332,-0.6850000023841857
1621852740727,9.449999809265137,2.3550000190734863,-9.322999954223633,-0.6669999957084655,-9.854999542236328,-0.5830000042915344
1621852740737,7.489999771118165,3.3559999465942383,-8.151000022888184,-0.5879999995231628,-9.777999877929688,-0.5690000057220459
1621852740747,6.019999980926514,3.937000036239624,-6.201000213623047,-0.5879999995231628,-9.5600004196167,-0.4510000050067901
1621852740757,6.579999923706055,4.460000038146973,-3.122999906539917,-0.6280000209808348,-9.458000183105469,-0.3529999852180481
1621852740767,7.980000019073486,5.150000095367432,-0.5849999785423278,-0.6669999957084655,-9.277999877929688,-0.2419999986886978
1621852740777,10.079999923706056,5.627999782562256,-0.0740000009536743,-0.6280000209808348,-9.168999671936035,-0.1829999983310699
1621852740787,12.529999732971191,6.281000137329102,-0.9539999961853028,-0.5879999995231628,-9.28499984741211,-0.2029999941587448
1621852740797,13.720000267028809,6.706999778747559,-0.949999988079071,-0.6280000209808348,-9.401000022888184,-0.2240000069141387
1621852740807,14.630000114440918,7.89900016784668,-1.6640000343322754,-0.6280000209808348,-9.593999862670898,-0.2579999864101409
1621852740817,15.329999923706056,9.152000427246092,-2.7219998836517334,-0.6669999957084655,-9.6850004196167,-0.1940000057220459
1621852740827,15.75,10.01099967956543,-3.565999984741211,-0.6280000209808348,-9.744000434875488,-0.0850000008940696
1621852740837,15.119999885559082,10.935999870300291,-3.9709999561309814,-0.6280000209808348,-9.835000038146973,-0.0209999997168779
1621852740847,14.630000114440918,11.758999824523926,-3.4000000953674316,-0.6280000209808348,-9.880000114440918,0.0099999997764825
1621852740857,14.350000381469728,12.270000457763672,-2.6700000762939453,-0.6280000209808348,-9.944000244140623,-0.0799999982118606
1621852740867,14.420000076293944,12.568000793457031,-1.9420000314712524,-0.5879999995231628,-10.038999557495115,-0.2169999927282333
1621852740877,14.489999771118164,12.866000175476074,-1.2139999866485596,-0.6280000209808348,-9.92300033569336,-0.1959999948740005
1621852740887,14.489999771118164,13.600000381469728,-0.9430000185966492,-0.6669999957084655,-9.904999732971191,-0.0740000009536743
1621852740897,14.350000381469728,14.123000144958496,-0.2820000052452087,-0.5879999995231628,-9.79599952697754,-0.0149999996647238
1621852740907,14.350000381469728,14.703000068664553,0.4600000083446502,-0.6280000209808348,-9.89400005340576,0.0879999995231628
1621852740917,13.789999961853027,14.942999839782717,0.7160000205039978,-0.6280000209808348,-9.951000213623049,-0.0419999994337558
1621852740927,12.390000343322754,15.0,0.7969999909400939,-0.6669999957084655,-9.996000289916992,-0.0099999997764825
1621852740937,10.5,15.340000152587892,1.2829999923706057,-0.5879999995231628,-9.998000144958496,0.2290000021457672
1621852740947,9.729999542236328,15.312000274658203,1.8470000028610227,-0.6280000209808348,-9.75699996948242,-0.0080000003799796
1621852740957,9.170000076293944,14.751999855041504,1.3930000066757202,-0.6669999957084655,-9.763999938964846,0.0309999994933605
1621852740967,8.75,15.284000396728516,2.4110000133514404,-0.6669999957084655,-9.835000038146973,-0.0209999997168779
1621852740977,7.280000209808349,14.838000297546388,3.3269999027252197,-0.7059999704360961,-9.873000144958496,-0.0280000008642673
1621852740987,6.440000057220459,14.229000091552734,1.940000057220459,-0.7450000047683715,-9.835000038146973,-0.0209999997168779
1621852740997,5.949999809265137,13.937000274658203,1.1779999732971191,-0.7059999704360961,-9.840999603271484,0.0170000009238719
1621852741007,5.880000114440918,13.973999977111816,0.9710000157356262,-0.6669999957084655,-9.630000114440918,0.1739999949932098
1621852741017,7.489999771118165,13.218999862670898,-0.7969999909400939,-0.6669999957084655,-9.33899974822998,0.1059999987483024
1621852741027,9.170000076293944,11.901000022888184,-1.383999943733215,-0.6669999957084655,-9.397999763488768,0.2150000035762786
1621852741037,8.890000343322754,11.20400047302246,-0.6539999842643737,-0.7059999704360961,-9.630000114440918,0.1739999949932098
1621852741047,7.9099998474121085,10.546999931335447,-0.5569999814033508,-0.8240000009536743,-9.777999877929688,0.1080000028014183
1621852741057,6.789999961853027,10.489999771118164,-1.8459999561309817,-0.8240000009536743,-9.732000350952148,0.0759999975562095
1621852741067,5.670000076293945,10.656000137329102,-2.385999917984009,-0.7850000262260437,-9.763999938964846,0.0309999994933605
1621852741077,4.760000228881836,10.612000465393066,-2.5360000133514404,-0.7850000262260437,-9.873000144958496,-0.0280000008642673
1621852741087,3.6400001049041744,10.079999923706056,-3.553999900817871,-0.7850000262260437,-9.880000114440918,0.0099999997764825
1621852741097,2.940000057220459,9.41100025177002,-4.5960001945495605,-0.7450000047683715,-9.89400005340576,0.0879999995231628
1621852741107,2.940000057220459,8.656999588012695,-5.15500020980835,-0.6669999957084655,-10.027999877929688,-0.0549999997019767
1621852741117,2.9749999046325684,8.243000030517578,-5.228000164031982,-0.6280000209808348,-10.128000259399414,-0.3919999897480011
1621852741127,3.009999990463257,7.828999996185303,-5.301000118255615,-0.5879999995231628,-10.086999893188477,-0.6230000257492065
1621852741137,3.990000009536743,6.798999786376953,-5.908999919891357,-0.6280000209808348,-9.939000129699709,-0.5580000281333923
1621852741147,4.900000095367432,5.992000102996826,-5.767000198364258,-0.7059999704360961,-9.678000450134276,-0.2329999953508377
1621852741157,5.460000038146973,5.014999866485596,-5.868000030517578,-0.7450000047683715,-9.468999862670898,0.163000002503395
1621852741167,5.809999942779541,4.557000160217285,-6.091000080108643,-0.7450000047683715,-9.579999923706056,0.3420000076293945
1621852741177,5.880000114440918,4.03000020980835,-6.326000213623047,-0.7059999704360961,-9.76599979400635,0.2689999938011169
1621852741187,5.880000114440918,4.053999900817871,-6.464000225067139,-0.7059999704360961,-9.862000465393066,0.1330000013113021
1621852741197,5.039999961853027,3.499000072479248,-6.136000156402588,-0.7850000262260437,-10.015999794006348,0.1059999987483024
1621852741207,3.9200000762939458,2.9749999046325684,-6.796999931335449,-0.7450000047683715,-10.053000450134276,-0.1389999985694885
1621852741217,3.2200000286102295,2.3469998836517334,-7.263000011444091,-0.7059999704360961,-10.031999588012695,-0.2549999952316284
1621852741227,2.380000114440918,2.318000078201294,-7.907999992370605,-0.6669999957084655,-9.92300033569336,-0.1959999948740005
1621852741237,1.8200000524520872,2.009999990463257,-8.175000190734863,-0.7450000047683715,-9.67300033569336,-0.032999999821186
1621852741247,1.190000057220459,2.002000093460083,-8.531999588012695,-0.7059999704360961,-9.48900032043457,0.2790000140666961
1621852741257,0.9100000262260436,1.4869999885559082,-8.836000442504883,-0.7059999704360961,-9.510000228881836,0.3939999938011169
1621852741267,0.9100000262260436,1.3860000371932983,-9.06700038909912,-0.6669999957084655,-9.741000175476074,0.3540000021457672
1621852741277,0.6299999952316284,1.337000012397766,-8.791000366210938,-0.6280000209808348,-9.854999542236328,0.0949999988079071
1621852741287,0.5600000023841857,1.118000030517578,-8.758999824523926,-0.6280000209808348,-9.961999893188477,-0.2029999941587448
1621852741297,0.5600000023841857,0.8949999809265136,-8.300999641418457,-0.6669999957084655,-9.93000030517578,-0.1580000072717666
1621852741307,0.0,0.8140000104904174,-8.244000434875488,-0.6669999957084655,-9.821000099182127,-0.0989999994635581
1621852741317,-0.8399999737739563,1.340999960899353,-8.008999824523926,-0.6669999957084655,-9.866000175476074,-0.06700000166893
1621852741327,-1.8200000524520872,1.6289999485015867,-8.029000282287598,-0.6669999957084655,-9.918999671936035,0.0040000001899898
1621852741337,-3.009999990463257,1.491000056266785,-8.053000450134277,-0.6669999957084655,-9.932000160217283,0.0810000002384185
1621852741347,-3.3949999809265137,1.6105000972747805,-7.925499916076661,-0.7059999704360961,-9.911999702453612,-0.0350000001490116
1621852741357,-3.7799999713897705,1.7300000190734863,-7.797999858856201,-0.6669999957084655,-9.79599952697754,-0.0149999996647238
1621852741367,-4.199999809265137,1.718000054359436,-7.729000091552734,-0.6669999957084655,-9.75699996948242,-0.0080000003799796
1621852741377,-4.130000114440918,1.9739999771118164,-7.967999935150147,-0.6280000209808348,-9.67300033569336,-0.032999999821186
1621852741387,-4.059999942779541,1.7669999599456787,-8.005000114440918,-0.6280000209808348,-9.697999954223633,-0.1169999986886978
1621852741397,-3.9200000762939458,1.7669999599456787,-8.005000114440918,-0.5879999995231628,-9.69200038909912,-0.1550000011920929
1621852741407,-3.359999895095825,1.7630000114440918,-7.578999996185303,-0.6280000209808348,-9.666999816894531,-0.0710000023245811
1621852741417,-3.5,1.656999945640564,-7.383999824523927,-0.5879999995231628,-9.75100040435791,-0.0460000000894069
1621852741427,-3.7100000381469727,1.4550000429153442,-6.638000011444092,-0.5490000247955322,-9.852999687194824,-0.1439999938011169
1621852741437,-3.990000009536743,1.0369999408721924,-6.284999847412109,-0.4709999859333038,-9.871000289916992,-0.2669999897480011
1621852741447,-4.059999942779541,0.8629999756813049,-6.103000164031982,-0.5099999904632568,-9.857000350952148,-0.3440000116825103
1621852741457,-3.5,0.8790000081062316,-5.388999938964844,-0.5879999995231628,-9.812000274658203,-0.3759999871253967
1621852741467,-3.2200000286102295,1.1510000228881836,-4.914999961853027,-0.5879999995231628,-9.70300006866455,-0.31700000166893
1621852741477,-2.940000057220459,0.9240000247955322,-5.238999843597412,-0.6280000209808348,-9.63199996948242,-0.2649999856948852
1621852741487,-2.1700000762939453,1.2359999418258667,-5.396999835968018,-0.6669999957084655,-9.62600040435791,-0.3030000030994415
1621852741497,-1.75,1.758999943733215,-4.736000061035156,-0.6669999957084655,-9.562000274658203,-0.2119999974966049
1621852741507,-0.9800000190734864,2.1570000648498535,-4.169000148773193,-0.7059999704360961,-9.628000259399414,-0.0649999976158142
1621852741517,-0.3499999940395355,2.500999927520752,-4.107999801635742,-0.7059999704360961,-9.697999954223633,-0.1169999986886978
1621852741527,0.4199999868869781,3.0290000438690186,-3.872999906539917,-0.7059999704360961,-9.65999984741211,-0.1099999994039535
1621852741537,1.399999976158142,3.3489999771118164,-3.674000024795532,-0.6669999957084655,-9.6850004196167,-0.1940000057220459
1621852741547,1.9600000381469729,3.5190000534057617,-3.430999994277954,-0.6280000209808348,-9.6850004196167,-0.1940000057220459
1621852741557,2.134999990463257,3.553500175476074,-3.424999952316284,-0.6280000209808348,-9.729999542236328,-0.1620000004768371
1621852741567,2.309999942779541,3.5880000591278076,-3.4189999103546143,-0.6669999957084655,-9.722999572753906,-0.2010000050067901
1621852741577,2.0299999713897705,3.880000114440918,-3.865000009536743,-0.7450000047683715,-9.717000007629396,-0.2399999946355819
1621852741587,2.0299999713897705,4.36299991607666,-3.7799999713897705,-0.7450000047683715,-9.76900005340576,-0.1689999997615814
1621852741597,1.5399999618530271,4.581999778747559,-3.812000036239624,-0.7059999704360961,-9.729999542236328,-0.1620000004768371
1621852741607,1.399999976158142,4.560999870300293,-4.099999904632568,-0.6669999957084655,-9.69200038909912,-0.1550000011920929
1621852741617,1.6799999475479126,5.059999942779541,-4.510000228881836,-0.6669999957084655,-9.61400032043457,-0.1420000046491622
1621852741627,1.9600000381469729,5.526000022888184,-5.138000011444092,-0.6280000209808348,-9.65999984741211,-0.1099999994039535
1621852741637,1.399999976158142,5.769999980926514,-5.309000015258789,-0.6280000209808348,-9.697999954223633,-0.1169999986886978
1621852741647,1.190000057220459,5.7170000076293945,-5.815999984741211,-0.6280000209808348,-9.729999542236328,-0.1620000004768371
1621852741657,0.6299999952316284,6.065000057220459,-6.181000232696533,-0.6280000209808348,-9.755000114440918,-0.2460000067949295
1621852741667,-0.3499999940395355,6.63700008392334,-5.796000003814697,-0.6280000209808348,-9.755000114440918,-0.2460000067949295
1621852741677,-0.7699999809265136,7.254000186920166,-5.260000228881836,-0.6280000209808348,-9.755000114440918,-0.2460000067949295
1621852741687,-1.4700000286102295,7.954999923706055,-5.208000183105469,-0.6669999957084655,-9.656999588012695,-0.3490000069141387
1621852741697,-2.5199999809265137,8.770000457763672,-4.993000030517578,-0.6669999957084655,-9.638999938964846,-0.2259999960660934
1621852741707,-3.359999895095825,9.633999824523924,-3.8450000286102295,-0.6280000209808348,-9.593999862670898,-0.2579999864101409
1621852741717,-4.130000114440918,10.595000267028809,-3.25,-0.6280000209808348,-9.60099983215332,-0.2189999967813491
1621852741727,-4.480000019073486,11.121999740600586,-3.013999938964844,-0.6280000209808348,-9.586999893188477,-0.2960000038146972
1621852741737,-4.515000343322754,11.558000564575195,-2.866499900817871,-0.6280000209808348,-9.55500030517578,-0.2509999871253967
1621852741747,-4.550000190734863,11.994000434875488,-2.7190001010894775,-0.6280000209808348,-9.55500030517578,-0.2509999871253967
1621852741757,-4.130000114440918,12.626999855041504,-2.677999973297119,-0.6669999957084655,-9.593999862670898,-0.2579999864101409
1621852741767,-3.6400001049041744,13.272000312805176,-2.7070000171661377,-0.6669999957084655,-9.638999938964846,-0.2259999960660934
1621852741777,-3.0799999237060547,14.04599952697754,-3.068000078201294,-0.7059999704360961,-9.638999938964846,-0.2259999960660934
1621852741787,-2.940000057220459,14.934000015258787,-3.2660000324249268,-0.7059999704360961,-9.717000007629396,-0.2399999946355819
1621852741797,-2.940000057220459,15.550000190734863,-3.940000057220459,-0.6669999957084655,-9.845999717712402,-0.1829999983310699
1621852741807,-3.0799999237060547,16.84000015258789,-3.996999979019165,-0.7059999704360961,-9.954999923706056,-0.2419999986886978
1621852741817,-3.7799999713897705,17.635000228881836,-4.070000171661377,-0.7059999704360961,-10.187000274658203,-0.2829999923706054
1621852741827,-4.130000114440918,18.27899932861328,-4.0980000495910645,-0.7059999704360961,-10.565999984741213,-0.3889999985694885
1621852741837,-4.409999847412109,19.14699935913086,-3.375999927520752,-0.7450000047683715,-10.850000381469728,-0.3600000143051147
1621852741847,-3.9200000762939458,19.85300064086914,-2.5409998893737793,-0.7450000047683715,-10.819000244140623,-0.3140000104904174
1621852741857,-2.5899999141693115,19.589000701904297,-2.6589999198913574,-0.7450000047683715,-10.656999588012695,-0.3260000050067901
1621852741866,-0.7699999809265136,19.04199981689453,-3.181999921798706,-0.7850000262260437,-10.503000259399414,-0.2980000078678131
1621852741877,0.0,19.329999923706055,-3.2019999027252197,-0.8240000009536743,-10.425999641418455,-0.2849999964237213
1621852741887,-0.3499999940395355,19.926000595092773,-2.9549999237060547,-0.8240000009536743,-10.315999984741213,-0.2259999960660934
1621852741897,-0.6299999952316284,20.257999420166016,-2.825000047683716,-0.8629999756813049,-10.194000244140623,-0.2440000027418136
1621852741906,-1.8200000524520872,20.38400077819824,-1.5230000019073486,-0.8240000009536743,-10.071000099182127,-0.2619999945163726
1621852741916,-2.5899999141693115,19.893999099731445,0.4510000050067901,-0.7850000262260437,-9.961999893188477,-0.2029999941587448
1621852741926,-2.625,19.480499267578125,0.9825000166893004,-0.8629999756813049,-9.814000129699709,-0.1369999945163726
1621852741936,-2.6600000858306885,19.066999435424805,1.5140000581741333,-0.8629999756813049,-9.65999984741211,-0.1099999994039535
1621852741946,-2.7300000190734863,17.92300033569336,1.9520000219345093,-0.8629999756813049,-9.621000289916992,-0.1030000001192092
1621852741956,-2.5899999141693115,16.941999435424805,2.2769999504089355,-0.9409999847412108,-9.512000083923342,-0.0439999997615814
1621852741966,-2.5199999809265137,16.548999786376953,2.4920001029968266,-0.9409999847412108,-9.472999572753906,-0.0370000004768371
1621852741976,-2.799999952316284,16.034000396728516,2.187000036239624,-0.981000006198883,-9.402999877929688,0.0149999996647238
1621852741986,-3.2200000286102295,15.677000045776367,0.9869999885559082,-1.0980000495910645,-9.4350004196167,-0.0299999993294477
1621852741996,-3.9200000762939458,15.717000007629396,0.3549999892711639,-1.0980000495910645,-9.4350004196167,-0.0299999993294477
1621852742006,-5.039999961853027,16.058000564575195,-0.367000013589859,-1.1770000457763672,-9.472999572753906,-0.0370000004768371
1621852742016,-6.159999847412109,16.224000930786133,-0.9070000052452089,-1.215999960899353,-9.467000007629396,-0.0759999975562095
1621852742026,-7.420000076293945,16.670000076293945,-1.8229999542236328,-1.2940000295639038,-9.505000114440918,-0.0829999968409538
1621852742036,-8.050000190734863,17.042999267578125,-2.325999975204468,-1.2940000295639038,-9.467000007629396,-0.0759999975562095
1621852742046,-8.75,17.16900062561035,-2.2330000400543213,-1.3339999914169312,-9.460000038146973,-0.1150000020861625
1621852742056,-8.819999694824219,17.266000747680664,-1.5759999752044678,-1.3730000257492063,-9.413999557495115,-0.1459999978542327
1621852742066,-8.399999618530273,17.420000076293945,-2.0460000038146973,-1.4119999408721924,-9.37600040435791,-0.1400000005960464
1621852742076,-8.260000228881836,17.302000045776367,-1.7829999923706057,-1.4119999408721924,-9.369000434875488,-0.1780000030994415
1621852742086,-7.9099998474121085,17.00200080871582,-1.6929999589920044,-1.4509999752044678,-9.401000022888184,-0.2240000069141387
1621852742096,-7.769999980926514,16.645999908447266,-1.684999942779541,-1.4509999752044678,-9.439000129699709,-0.2300000041723251
1621852742106,-7.734999656677246,16.467498779296875,-1.680999994277954,-1.491000056266785,-9.439000129699709,-0.2300000041723251
1621852742116,-7.699999809265136,16.288999557495117,-1.6770000457763672,-1.569000005722046,-9.470999717712402,-0.2759999930858612
1621852742126,-8.050000190734863,16.11400032043457,-1.49399995803833,-1.569000005722046,-9.470999717712402,-0.2759999930858612
1621852742136,-8.399999618530273,16.024999618530273,-1.7949999570846558,-1.6480000019073486,-9.470999717712402,-0.2759999930858612
1621852742146,-8.680000305175781,15.802000045776367,-1.3359999656677246,-1.6480000019073486,-9.46399974822998,-0.3149999976158142
1621852742156,-9.029999732971191,15.916000366210938,-1.1740000247955322,-1.687000036239624,-9.425999641418455,-0.3079999983310699
1621852742166,-9.380000114440918,16.062000274658203,-0.7929999828338623,-1.72599995136261,-9.387000083923342,-0.3009999990463256
1621852742176,-9.449999809265137,16.024999618530273,-0.5860000252723693,-1.7649999856948853,-9.335000038146973,-0.3709999918937683
1621852742186,-9.449999809265137,16.195999145507812,-0.3429999947547912,-1.7649999856948853,-9.303000450134276,-0.3260000050067901
1621852742196,-9.100000381469728,16.211999893188477,-0.8379999995231628,-1.8040000200271609,-9.29599952697754,-0.3650000095367431
1621852742206,-8.819999694824219,15.968000411987305,-0.6669999957084655,-1.843999981880188,-9.335000038146973,-0.3709999918937683
1621852742216,-8.119999885559082,15.935999870300291,-0.8859999775886535,-1.9220000505447388,-9.335000038146973,-0.3709999918937683
1621852742226,-7.280000209808349,15.756999969482422,-1.4859999418258667,-1.8830000162124632,-9.373000144958496,-0.3779999911785125
1621852742236,-6.579999923706055,16.02899932861328,-2.2200000286102295,-1.9609999656677248,-9.444000244140623,-0.4300000071525573
1621852742246,-6.369999885559082,15.935999870300291,-3.302999973297119,-1.9609999656677248,-9.468999862670898,-0.5149999856948853
1621852742256,-6.440000057220459,16.518999099731445,-4.195000171661377,-2.0399999618530273,-9.468999862670898,-0.5149999856948853
1621852742266,-7.0,16.344999313354492,-5.2210001945495605,-2.118000030517578,-9.437000274658203,-0.4690000116825103
1621852742276,-7.280000209808349,16.56800079345703,-5.678999900817871,-2.0789999961853027,-9.359999656677246,-0.4550000131130218
1621852742286,-7.560000419616699,16.598499298095703,-5.851500034332275,-2.0399999618530273,-9.314000129699709,-0.4869999885559082
1621852742296,-7.8400001525878915,16.628999710083008,-6.02400016784668,-2.0789999961853027,-9.229999542236328,-0.512000024318695
1621852742306,-8.1899995803833,17.216999053955078,-6.133999824523926,-2.118000030517578,-9.152999877929688,-0.4990000128746032
1621852742316,-8.539999961853027,17.533000946044922,-6.7179999351501465,-2.0789999961853027,-9.152999877929688,-0.4990000128746032
1621852742326,-8.050000190734863,17.945999145507812,-6.644999980926514,-2.118000030517578,-9.19200038909912,-0.5049999952316284
1621852742336,-7.420000076293945,18.14900016784668,-6.182000160217285,-2.1570000648498535,-9.237000465393066,-0.4740000069141387
1621852742346,-6.440000057220459,18.551000595092773,-6.039999961853027,-2.197000026702881,-9.244000434875488,-0.4350000023841857
1621852742356,-5.179999828338623,19.340999603271484,-6.895999908447266,-2.236000061035156,-9.282999992370604,-0.44200000166893
1621852742366,-4.480000019073486,20.201000213623047,-6.531000137329102,-2.2750000953674316,-9.32800006866455,-0.4099999964237213
1621852742376,-4.409999847412109,20.54199981689453,-6.045000076293945,-2.313999891281128,-9.527999877929688,-0.4050000011920929
1621852742386,-4.059999942779541,21.344999313354492,-5.761000156402588,-2.3540000915527344,-9.651000022888184,-0.3869999945163726
1621852742396,-3.569999933242798,22.075000762939453,-5.064000129699707,-2.431999921798706,-9.727999687194824,-0.4009999930858612
1621852742406,-3.0799999237060547,22.99099922180176,-4.618000030517578,-2.3929998874664307,-9.772999763488768,-0.3689999878406524
1621852742416,-2.380000114440918,23.542999267578125,-4.520999908447266,-2.3929998874664307,-9.767000198364256,-0.4079999923706054
1621852742426,-1.190000057220459,24.159000396728516,-3.9849998950958256,-2.431999921798706,-9.767000198364256,-0.4079999923706054
1621852742436,-0.0700000002980232,24.98200035095215,-3.4140000343322754,-2.431999921798706,-9.734999656677246,-0.3619999885559082
1621852742446,1.2599999904632568,25.1200008392334,-3.388999938964844,-2.3929998874664307,-9.741999626159668,-0.3240000009536743
1621852742456,2.0299999713897705,25.496999740600582,-3.109999895095825,-2.3929998874664307,-9.696000099182127,-0.3549999892711639
1621852742466,2.869999885559082,25.72800064086914,-3.2109999656677246,-2.313999891281128,-9.767000198364256,-0.4079999923706054
1621852742476,3.114999771118164,25.888500213623047,-3.111500024795532,-2.313999891281128,-9.727999687194824,-0.4009999930858612
1621852742486,3.359999895095825,26.048999786376953,-3.01200008392334,-2.313999891281128,-9.767000198364256,-0.4079999923706054
1621852742496,3.430000066757202,25.988000869750977,-2.6679999828338623,-2.2750000953674316,-9.696000099182127,-0.3549999892711639
1621852742506,3.7100000381469727,26.1299991607666,-3.069000005722046,-2.2750000953674316,-9.663999557495115,-0.3100000023841857
1621852742516,3.7100000381469727,26.4950008392334,-2.7209999561309814,-2.197000026702881,-9.619000434875488,-0.3420000076293945
1621852742526,3.7799999713897705,26.10199928283691,-2.50600004196167,-2.197000026702881,-9.53499984741211,-0.367000013589859
1621852742536,4.059999942779541,25.03499984741211,-2.9070000648498535,-2.1570000648498535,-9.458000183105469,-0.3529999852180481
1621852742546,4.199999809265137,24.673999786376953,-3.6809999942779545,-2.118000030517578,-9.418999671936035,-0.3459999859333038
1621852742556,4.059999942779541,24.131000518798828,-4.630000114440918,-2.118000030517578,-9.380000114440918,-0.3400000035762786
1621852742566,4.059999942779541,23.624000549316406,-5.785999774932861,-2.118000030517578,-9.342000007629396,-0.3330000042915344
1621852742576,4.409999847412109,23.257999420166016,-7.342999935150147,-2.118000030517578,-9.347999572753906,-0.2939999997615814
1621852742586,4.340000152587891,23.156999588012695,-8.781999588012695,-2.0789999961853027,-9.347999572753906,-0.2939999997615814
1621852742596,4.340000152587891,22.969999313354492,-9.73900032043457,-2.0789999961853027,-9.31700038909912,-0.248999997973442
1621852742606,4.480000019073486,23.128000259399418,-10.635000228881836,-2.0399999618530273,-9.23900032043457,-0.2349999994039535
1621852742616,4.409999847412109,22.969999313354492,-10.947999954223633,-2.000999927520752,-9.232999801635742,-0.2739999890327453
1621852742626,4.619999885559082,23.14800071716309,-11.555999755859377,-1.9609999656677248,-9.270999908447264,-0.2800000011920929
1621852742636,4.409999847412109,23.201000213623047,-12.256999969482422,-1.9220000505447388,-9.43299961090088,-0.2689999938011169
1621852742646,3.6400001049041744,23.48900032043457,-12.277999877929688,-1.9609999656677248,-9.586999893188477,-0.2960000038146972
1621852742656,2.5899999141693115,23.41200065612793,-11.437999725341797,-1.9609999656677248,-9.696000099182127,-0.3549999892711639
1621852742666,1.0499999523162842,23.76099967956543,-10.595000267028809,-1.9220000505447388,-9.857000350952148,-0.3440000116825103
1621852742676,-0.0700000524520874,24.25550079345703,-9.974500656127928,-1.9609999656677248,-9.826000213623049,-0.2989999949932098
1621852742686,-1.190000057220459,24.75,-9.354000091552734,-1.9609999656677248,-9.86400032043457,-0.3050000071525573
1621852742696,-3.0799999237060547,25.21299934387207,-8.348999977111816,-1.9220000505447388,-10.031999588012695,-0.2549999952316284
1621852742706,-5.25,26.37700080871582,-7.289999961853027,-1.9609999656677248,-9.994000434875488,-0.248999997973442
1621852742716,-6.440000057220459,27.114999771118164,-5.0279998779296875,-1.9220000505447388,-9.979999542236328,-0.3260000050067901
1621852742726,-7.630000114440918,26.81100082397461,-3.303999900817871,-1.9220000505447388,-9.94200038909912,-0.3190000057220459
1621852742736,-8.890000343322754,26.871999740600582,-1.2319999933242798,-1.8830000162124632,-9.972999572753906,-0.363999992609024
1621852742746,-9.869999885559082,26.746999740600582,1.090999960899353,-1.9220000505447388,-10.076000213623049,-0.4620000123977661
1621852742756,-11.409999847412108,26.475000381469727,3.0339999198913574,-2.000999927520752,-10.178000450134276,-0.5600000023841857
1621852742766,-12.880000114440918,25.97699928283691,4.6519999504089355,-2.0399999618530273,-10.203000068664553,-0.6439999938011169
1621852742776,-14.420000076293944,25.701000213623047,5.810999870300293,-2.0789999961853027,-10.13700008392334,-0.7919999957084655
1621852742786,-15.399999618530272,25.045000076293945,7.117000102996826,-2.0789999961853027,-10.0600004196167,-0.777999997138977
1621852742796,-16.940000534057617,23.989999771118164,7.855000019073486,-2.118000030517578,-9.897999763488768,-0.7889999747276306
1621852742806,-17.920000076293945,23.082000732421875,7.765999794006347,-2.118000030517578,-9.762000083923342,-0.8849999904632568
1621852742816,-19.38999938964844,22.513999938964844,6.954999923706055,-2.1570000648498535,-9.633000373840332,-0.9419999718666076
1621852742826,-20.649999618530273,22.145000457763672,5.823999881744385,-2.197000026702881,-9.541999816894531,-1.0049999952316284
1621852742836,-21.489999771118164,21.26099967956543,4.388999938964844,-2.197000026702881,-9.527999877929688,-1.0829999446868896
